 log(Bfield)      Mns     Pspin  cutoff_power  cutoff_wavelength  fnickel    kappa  kappagamma   mejecta  log(nhhost)  temperature  texplosion  thetaPB      vejecta      A_V        MJD_0   log(KE)      M_Ni  Peak_mag     Peak_MJD 
    14.09927  1.73546   2.25856       3.71584         3317.69333  0.19606  0.12067       0.112  15.34599      18.2201   8171.97608   -87.32563  0.77078   3755.77161  0.00092     58273.19  51.78772   14.2918  19.14822  58352.02666 
    14.36522  1.89608   1.30454       2.64826         2849.81962    0.233  0.03733     0.04071   34.4568     19.27631   9233.55418   -71.27455  0.84064   4848.51241   0.0105  58289.24107  52.07417  19.71018   19.2238  58352.02666 
    13.82165  1.36171   1.97016       2.17054          3531.9012  0.07458  0.02398     0.01916  39.18577     17.20247   8872.52735   -76.96347  1.30492   3058.29305    9e-05  58283.55215  51.68336    6.4473  19.38638  58373.49849 
    14.09243  1.61692   1.97641       2.92594         3260.78466  0.07507  0.03234     0.01864   40.0142     18.39707   9820.73758   -89.42573  0.70708   3101.05753  0.00139   58271.0899  51.69693   6.51266  19.22968  58363.50391 
     14.1657  1.79466   1.19476       2.09247         2167.52848  0.14724  0.01735     0.13121  59.70101     18.18334   8080.61044   -75.11875  1.32149   5129.68921  0.00085  58285.39688  52.16214  13.62587   18.9184  58369.91986 
    14.06905  1.64625   2.59734       0.38086         4216.61367  0.00242  0.02003      0.0167  27.39924     16.19275   8952.48956   -59.16745  0.55267    4292.3155    1e-05  58301.34817  51.95098   0.19697  19.26937  58359.18394 
    14.20321  1.95813   3.37943       2.42715         3567.69489  0.00438  0.04571     0.05656  18.49657     18.30417    7094.0153   -66.23455  0.55288   3429.17284  0.00112  58294.28107  51.72449   0.33082   19.1496     58371.51 
    13.50702  1.74451  26.52197       1.84648         2871.29587  0.31322  0.03312     0.12478  51.46539     18.76605   7656.11376   -59.11547  0.44212  10523.09374  0.00324  58301.40016  52.77605  28.31285  18.99093  58366.34122 
     13.8883   1.5364   2.08877       4.04677         3207.71769  0.00208  0.02219     0.02159  54.79106     19.59849   9640.83584   -89.75812  0.88649    2917.5195  0.02204   58270.7575  51.66612   0.18956  19.15571  58360.51562 
    12.19713  1.58354   1.56135       2.66722         3409.89559  0.26633  0.02202     0.07645  50.55049     19.27469   6708.53873    -40.7701  0.07326  10741.70535  0.01046  58319.74553  52.79266  24.00565  19.24856  58366.34122 
    14.15185  2.16688    3.3784       4.52921          3183.1804  0.18043  0.06966     0.02222  14.64491     18.83897   9153.06625   -73.47982  1.00763   3428.68346  0.00383  58287.03581  51.70452  13.03044  19.18635  58363.50391 
    14.20506  2.19776   1.94966       2.49749         2654.67828  0.02337  0.02286      0.0133  56.75384     17.70949   8662.57913   -96.60816  0.74971   2825.13986  0.00028  58263.90746  51.64059   2.14578  19.09716  58348.44802 
    13.44804  1.66264  23.66391       3.52924          3072.6135  0.40112  0.02107     0.02521  41.34861     20.19336   9258.32596   -32.83621  0.93711   18963.4602  0.08671  58327.67941  53.27212  34.98935  19.25876     58374.52 
    12.57512  1.61369  23.42255       2.68364         3098.80768  0.32883   0.0202     0.45168  45.45932     16.88807   9842.02464   -80.70755  0.13363   5780.66418    4e-05  58279.80808  52.24701  29.13354  19.13767  58344.86938 
    13.81041  1.65702   3.77728        3.9794         3356.68428  0.01368  0.01607     0.13839  24.48156     19.42259    8689.9322   -42.12908  1.33204   4356.40812   0.0147  58318.38654  51.95506   1.08953   19.1362  58344.86938 
    14.02301  1.66576   2.28491       0.18173         4005.34212  0.04048  0.01838     0.08067    20.623     16.39468   9869.21319   -48.05964  0.76197   5095.92608    1e-05  58312.45599  52.07751   3.12358  19.09029     58371.51 
     14.0284  1.77391   3.16345       4.33767         2915.85429  0.00274  0.02992     0.02604  31.93367     18.27726   8070.01211   -63.37605   0.7102   4253.18626  0.00105  58297.13957   51.9547   0.22873   19.1786   58355.6053 
    14.15008  1.94154   2.16107       4.36036         3175.22776  0.13493  0.05739     0.03606  22.65361     18.85261   8555.20784   -82.12976  0.99166   2924.01205  0.00396  58278.38586   51.6026  10.59545  19.18863  58366.34122 
    13.99548  1.55983   2.92589       3.15925         3484.24038  0.01076  0.06679     0.01771  16.05812     17.17984   8114.54207   -72.58337   0.6006   3804.68334    8e-05  58287.93226  51.80284   0.79121   19.1233  58352.02666 
    13.86997  1.70872    2.9243        1.8376         3686.17034  0.00241  0.05072     0.05648  15.54786     18.89397    9474.5216   -70.86491  1.10011   3360.07809  0.00435  58289.65071  51.69214   0.17586  19.26544  58366.34122 
    13.73363  1.69396  23.23862       1.72866         3072.00326  0.28371  0.01332     0.01166  51.28078     19.35962   8478.41504   -35.49513  0.49553  12117.03609  0.01272   58325.0205  52.89831  25.63062  19.21923   58355.6053 
    13.71922  1.39899   2.25945       1.41058         3871.68406  0.00348  0.01305     0.14259  53.75749     18.13925   7967.85083   -71.48129  1.49863   3059.47854  0.00077  58289.03433  51.70608    0.3168  19.17673   58355.6053 
    13.86101  1.54381   3.22004       3.33079         3199.76508  0.03233   0.0152     0.32263  40.97602     17.20154   8046.71842    -58.2326  0.96342    4386.9327    9e-05  58302.28302  51.99995   2.81579   19.0999  58373.49849 
    14.22442   1.5959   3.51229       3.01904         3636.18798  0.03599  0.01305     0.11291  54.62424     16.64384   9174.85987   -50.08818  0.42239   4650.53246    2e-05  58310.42744  52.07089   3.28469  19.27554  58377.07713 
    13.84216  1.74614   3.61115       4.82186         3435.21369  0.00796  0.02137     0.02617  23.21922     18.33848   9755.79771   -62.46944  1.09757   3954.92168  0.00121  58298.04619  51.86688   0.62804  19.44552  58369.91986 
    13.86807  1.66269   2.58378        3.6251          3331.9121  0.00421  0.03026     0.31559  29.53696     16.60811    6605.0389   -87.55481  1.01923   2736.36097    2e-05  58272.96081  51.56571   0.34694  19.27499  58377.07713 
    13.72894  1.54596  21.57979       4.53689         2451.10602  0.34006  0.01795     0.15609  33.67138     18.39934   6487.31963   -28.51686   1.4685  12280.80358  0.00139  58331.99877  52.87969  28.65264  19.09042   58355.6053 
     13.3377  1.72741   28.0231       0.79392         3294.08434   0.2279  0.01418     0.16858  60.00691     18.03846   7047.82109   -43.22595  1.05515  10755.27106  0.00061  58317.28968  52.80555  21.10635  19.30279  58363.50391 
    13.94479  1.83503   2.03465       1.30647         3813.91191  0.01102  0.05075     0.04965  26.12508     18.42618   9940.02701   -93.19513  1.11298   2964.09845  0.00148  58267.32049  51.62568   0.88773  19.28851   58355.6053 
    13.78243    1.501  22.03572        2.7706         2975.49958  0.36793  0.03377       0.172  35.79224     17.80972   6775.57101   -40.91321  0.68187  11763.28969  0.00036  58319.60241  52.84682  31.32559  18.08087  58305.50435 
    14.01292  1.82158   2.44456       3.53672         3296.41072  0.01366   0.0137     0.06361  61.25422     18.18919   7801.70486   -94.12894   0.8173   2541.91709  0.00086  58266.38669  51.55402   1.26918  19.08842  58344.86938 
    14.20671   1.6773   1.30211       3.29141         3471.92709  0.18565  0.06786     0.04855  23.30058      18.9091   9186.07666   -73.97392  0.90663   3297.61485  0.00451  58286.54171  51.70929  14.65369  19.07557  58348.44802 
    13.87076  1.58777   2.18183       3.97221         3089.02516  0.03276  0.02796     0.01493   43.5681     18.45879   9108.47617   -87.53964  1.19198    3111.3138   0.0016  58272.97598  51.70592   2.88271  19.24284  58373.49849 
    13.93128  1.58737  21.95845       3.20575         3463.73674  0.45595  0.02495     0.26391  23.77659     18.21221   6911.23204   -32.27192  1.11999   8924.27466  0.00091  58328.24371  52.57564  36.12285  19.00404  58362.76258 
    13.79868  1.53712     2.839       1.10816         3716.17267  0.00733  0.01126     0.17675  55.44699     16.40578   7045.79935   -69.03805  0.89843   5065.52885    1e-05  58291.47758  52.14616   0.67011  19.13458   58355.6053 
    14.15905  1.57018   0.97507       4.79799         3500.47444   0.0043  0.01917     0.10111  83.74849     16.70555   8659.86401   -92.90158  0.71323   2166.14375    3e-05  58267.61404  51.43572     0.419  18.41379  58334.13346 
    13.98611  1.93826   2.31416       3.88794         3094.01111   0.0149  0.03665     0.05264  33.46333     19.81775   8991.31918   -97.80688  1.02562   2739.36162  0.03652  58262.70875  51.57607   1.25389  19.16282  58366.34122 
      12.798  1.55768  23.72644       2.00716         3460.95127  0.20514  0.01378     0.01963   69.8138     19.44633   7565.42175   -23.31632  1.47649  23535.88659  0.01553  58337.19931  53.49591  19.44757  19.19881   58355.6053 
    14.56725  1.89348   4.67179       2.43812         3016.59874  0.31175  0.02828     0.07774  32.32749     18.77702   9779.58045     -53.944  0.49914   7994.92047  0.00332  58306.57162  52.50382  26.08337  19.17828  58341.29074 
    14.48504  1.93843   1.90987       4.09885          3289.6942  0.39993  0.11244     0.05723  12.58969     20.43642   8635.74484   -59.91752  0.51676    3835.7086  0.15176   58300.5981  51.78861  28.00761  19.21265     58368.51 
    13.76819  1.47468    3.1946       2.30287         3628.55863  0.00504  0.01222      0.0839  30.84495     18.42016   9732.12141   -48.74293  1.09827   4281.19336  0.00146   58311.7727  51.95778   0.41801  19.21853  58352.02666 
    14.31577  1.90636   2.99537       1.71473         3362.17436    0.003  0.02183      0.0198  31.76685     19.96463   9780.90308   -69.01091  0.36368   3871.56993  0.05121  58291.50471  51.87265   0.25066   19.2647  58359.18394 
    14.01614   1.9352   2.54288       3.67125         3501.56214  0.00538  0.02919     0.01753  31.21446     16.48783   9625.82219   -79.28581  1.13984   2387.37499    2e-05  58281.22982  51.45139   0.44704  19.24389     58371.47 
     14.0236  1.86427   3.27385       3.94183          3530.2114  0.01591  0.03424     0.02004  23.39681     18.74011   9823.17921   -71.56287  0.89228   2760.91504  0.00305  58288.95275  51.55532   1.25661  19.03237  58352.02666 
    14.62456  2.11361   3.68849       1.35631         3865.16987  0.20036  0.17648     0.18084   1.81329     19.69495   8910.60896   -45.50654  0.09462  13310.89847  0.02752  58315.00909  52.64736   8.41647   19.2642     58374.47 
    13.94776   1.1404   1.57441       3.76737         2935.68378  0.01269  0.01461     0.01617  87.21325     18.36963   9407.20642   -83.02146  0.50155   3140.82996   0.0013  58277.49417  51.76104   1.24386  18.34403  58326.97618 
    13.35562  1.64188  27.31504       3.68824         2253.93343  0.42985  0.02692     0.24626  28.32123     18.97161   8672.82858   -27.51721  0.91123  12878.57988   0.0052  58332.99842  52.90788  35.14256  19.08914  58344.86938 
    13.81881  1.54784   2.56766       3.33091         3575.08564  0.00417   0.0329     0.02809  26.14671     18.77219   9683.89227   -80.28831  1.14226   2598.85999  0.00329  58280.22731  51.51153   0.33627  19.18214  58359.18394 
    14.16418  1.60274  24.72078       3.93163         3210.82582  0.26025  0.01357     0.01553  43.66909     18.05869   8077.64039   -23.34921  1.08924  13011.88598  0.00064  58337.16641  52.94888   22.9063  19.09853  58341.29074 
      14.025  1.54148   1.92892       4.15964         3492.95014  0.06917  0.02746     0.03724  44.79403     18.27583   9171.55972    -79.4617  0.98537   2720.56821  0.00105  58281.05393  51.59133   6.11358  18.96314  58359.18394 
    13.96104    2.008   3.12329       2.17588         3542.46891  0.00232  0.02382     0.02714  38.05922      17.7671   8125.35793   -72.06607  1.29724   3165.39971  0.00032  58288.44955  51.71113   0.19972  19.16762   58355.6053 
    12.27462  1.15875   9.83078       3.51947         3305.45032   0.4841  0.03669     0.41243  33.27774     19.29191   8076.94291   -61.58664  0.60067  10101.78035  0.01088  58298.92898  52.70916  40.70657  19.26166  58363.50391 
    13.86134  1.57483   2.09566       3.01726           2967.345  0.00716  0.02284     0.01776   47.5084     17.29916   8003.64405   -98.96491  0.83766   3182.47777  0.00011  58261.55072   51.7317   0.63918  19.08585  58341.29074 
    14.20386  1.89654   1.50387       3.14704         3375.53424  0.00552  0.05165     0.14155  33.80474     20.53155   8627.42709    -98.6777  0.58879   2737.82397  0.18892  58261.83792  51.57634   0.46509  18.92555  58344.86938 
     13.4571  1.54333  23.66018       3.61361         3132.07773  0.37868  0.01632     0.01844  35.04144     18.39279   7970.03848   -43.48644  1.26614  10317.12322  0.00137  58317.02918  52.73132  32.12477  19.09255  58341.29074 
    14.06104  1.80884   1.40079       1.06085         3766.96721  0.08061  0.05393     0.02355  28.80102     16.41357   7798.23886   -95.59674  0.99651   3097.58743    1e-05  58264.91888  51.67148   6.61007  19.16676  58366.34122 
     13.9566  1.95534   2.19519       4.06889         2377.97451  0.01723  0.03142     0.11238  38.03196     19.24325   7775.38431   -97.81762  1.06432   3321.99773  0.00973  58262.69801  51.75302   1.48221  18.98664     58371.51 
    14.32976  1.76967   2.17222       3.90489         3306.82605  0.46514  0.12093     0.08251  11.41842     19.60216   8882.24841   -69.40998  0.68014   3928.38348  0.02223  58291.10564  51.80049  31.91741  19.27555     58374.52 
    12.89828  1.74836   23.2352       3.94486         3198.79071  0.34597   0.0146     0.02258  35.99958      18.7622   7963.82062   -28.12732  1.29584   17269.8263  0.00321  58332.38831  53.18077  29.48518   19.0834  58341.29074 
    14.00909  1.51899    1.3794        3.5659         3331.33117  0.10161  0.06838      0.0221  26.36374     18.52645   9672.04245    -96.5594  0.91983   2835.43186  0.00187  58263.95623  51.58784   8.20222  19.24577  58373.49849 
     13.8483  1.56693   2.98788       1.34298          3796.4628  0.04473  0.02286     0.02404  24.87022     17.29557   9850.56585   -64.24331  0.92394   4227.09958  0.00011  58296.27231  51.93013     3.573  18.96923     58371.47 
    14.06618  1.89807   2.48308       4.40141         3316.75994  0.11305  0.05327      0.0321  25.30581     17.56677   7779.19448   -89.30997  1.00552   2988.43213   0.0002  58271.20566  51.63029   9.05839    19.187   58355.6053 
    14.01888  1.95346    2.4827       4.70299         3495.06081  0.00614  0.04128     0.18086  28.77324     19.80556   7621.78151   -79.78701  1.37212   2452.59863   0.0355  58280.72862  51.46861   0.50333  18.82679     58374.47 
    14.10699  1.54715   1.64076       0.30155         3698.01525   0.0039  0.02352     0.10474  35.81137     16.14041   8801.39631   -89.68844  0.42803   3751.77692    1e-05  58270.82719  51.85428   0.33175  19.15161  58348.44802 
    13.87795  1.58176   2.35516       1.09198         3274.48566  0.01366  0.01013     0.02876  84.16568     18.37252   8680.85071   -82.71375  0.88737   3480.08423  0.00131  58277.80187  51.84784   1.33165  19.15257  58362.76258 
    14.21478  1.99598   1.47736       3.82225         3439.79773  0.06601  0.03077     0.16307   39.7413       20.183   7204.87278   -85.05753  0.94401   2275.67771  0.08467  58275.45809  51.42764   5.72009  19.17973  58352.02666 
    13.86524  1.67702   2.55139       3.54939         3302.46218   0.0206  0.09203     0.03601  16.18571     19.16175   8377.26882    -82.5791  1.27868   3429.52094  0.00806  58277.93652  51.71335   1.51751  19.21478     58368.47 
     14.0529  1.72063   3.36813        4.5566          2896.1117   0.0289  0.01987     0.01383  34.88007     17.74214    7690.0646   -62.68093  0.61573    4315.3462  0.00031   58297.8347  51.97389   2.44939  19.22696  58359.18394 
    13.97698  1.86829   2.12745       4.98636         2966.37954  0.00186  0.08104     0.13351  20.61341      17.3323   6603.94944    -83.6762  1.45401   2980.77771  0.00012  58276.83943  51.61169   0.14373  19.08664   58355.6053 
     14.0902  1.80696   3.68892       3.79111         2477.99677  0.25889  0.02891     0.14874  26.69565     17.64285   8409.20335   -53.56077  1.34836   6233.77818  0.00024  58306.95486  52.27308  20.94421  19.04226  58352.02666 
    13.91024  1.38248   2.22238       2.09761         3492.51169  0.08316  0.03178     0.01652  24.78857     16.90511   9042.35964   -70.89647  0.85235   2848.64375    4e-05  58289.61915  51.58706   6.63887  19.14157  58344.86938 
    14.23563  2.14847   2.39899       4.17374         3088.12989  0.00167  0.04193     0.19134  31.56024      20.1992   6554.22255   -82.21213  0.67191   2755.28128  0.08789  58278.30349  51.57672   0.13884  19.25053   58355.6053 
    13.71713  1.36413   2.43305         3.238         3268.17293  0.02315  0.01664     0.02413  47.03758     19.06988   9759.97489   -73.20322  1.19244   3390.65863  0.00653  58287.31241  51.78604   2.06281  19.14658     58363.48 
    13.69507  1.73811  16.50776       4.10764         2947.22533    0.322  0.01818     0.02104  40.30181     19.63146   8100.73643   -21.53105  0.67882  18235.85453  0.02378  58338.98458  53.23629  27.96823  18.99393  58344.86938 
    13.95162  1.66719   3.18096       2.78258          3228.0516  0.45847  0.12534     0.04764   8.63866     16.61116   7476.33404   -74.34087  0.91209   4610.80895    2e-05  58286.17476   51.9133   29.6097  19.15363  58359.18394 
    13.94202   1.7195    2.1772       2.26433         3806.11931  0.01993  0.03267     0.04697  31.27221     17.15484   8699.59278   -93.29418  0.97129   2673.06042    8e-05  58267.22145  51.54971   1.65817  19.05738  58373.49849 
    13.83355  1.22154   1.42799       2.99356         3658.78509  0.04659   0.0264     0.02375  43.86323       16.265   9548.49636   -93.90962  0.93752   2339.72356    1e-05  58266.60601  51.45884   4.10359  19.18946  58369.91986 
    14.52129  2.10812   3.30316        4.7915         3244.21825  0.44941   0.1136     0.04069  10.26347     19.28945   9143.47138   -53.99883  0.56468   4186.49967  0.01082   58306.5168   51.8459  30.14473  19.17698  58360.51562 
    14.45455  1.48676   1.13905       2.78776          3229.5696  0.15684  0.08743     0.05752  21.65308     20.78791   8622.79971   -77.65375  0.24921   3834.90749  0.34091  58282.86187  51.83452  12.21349  19.15639     58363.48 
    13.81443  1.80283    2.4418       1.83971          3114.3704  0.04007  0.04674     0.01501  20.09251     20.49814   9661.37818   -79.67112  1.33894   3877.41147  0.17493  58280.84451  51.83802   3.07732  19.12811     58371.47 
    13.82413  1.81091  20.27785       4.71036         2789.71984  0.42648  0.01289      0.0136  31.15062      20.3068   8596.77891   -17.40734  0.44358  14803.48212   0.1126  58343.10829  53.03613  35.45461  19.03759  58359.18394 
    14.06961  1.76018   2.73249       0.67492         3900.60277  0.07526  0.02714     0.22974  15.76215     17.46289   9968.63914   -42.70482  0.86599   3847.94393  0.00016   58317.8108  51.81107   5.51481   19.1113  58348.44802 
    13.21792  1.56111   24.0928       1.69836         2841.60901  0.39469   0.0213     0.41713  32.76598     18.92219    8245.6841   -43.67515  0.84755   9496.72511  0.00464  58316.84047  52.65435  33.10052  19.38776  58373.49849 
    12.44266  1.69084  20.80685       3.33564         3384.76051  0.30451   0.0221     0.10728  39.18405     17.15276   7574.11905   -28.30812  0.00385  12609.50222    8e-05  58332.20751  52.91379  26.32469  19.37944     58371.47 
    14.02193  1.67116   2.65255        4.9901         3300.89745  0.04461  0.01557     0.12265  48.76753     17.46742   9819.94155     -66.401  1.06156   2769.65467  0.00016  58294.11463  51.61286   3.99753  19.13455  58352.02666 
    12.99172  1.82979   26.0516       1.37009         3357.78135  0.32105  0.01351     0.01012  44.67959     19.80811   9285.06802   -44.92015  0.31764   9694.80682  0.03571  58315.59547  52.69491  28.36406  19.41161  58377.07713 
    14.06671  1.68433   1.95098       4.98864         3287.64805  0.13095  0.06064     0.07194  21.95922     20.32595   9047.08289   -72.20545  1.05937   2907.54859  0.11767  58288.31018   51.5952   10.2237  18.99054   58337.7121 
    13.89808  1.68027   5.68658       2.93437         2658.45273  0.37693  0.01102     0.01825  74.88764      17.7649   8418.77209   -91.33028  0.95944  26428.20599  0.00032  58269.18535  53.60121   36.1166  19.14894  58352.02666 
    14.01446  1.45185   1.44707       1.31293         3488.58968  0.11674  0.04287     0.09632  28.44261     18.07652   9321.06103   -96.72435  0.68214   3078.41495  0.00066  58263.79127  51.66513   9.55126  19.12814  58348.44802 
    14.19774  1.92662   2.65287       3.90883         3319.20456  0.34718  0.11858     0.23633  12.64851     19.47943   8307.70337   -83.24698  0.76606   4004.53593  0.01676  58277.26864  51.82644  24.33678  19.37747  58373.49849 
    14.16535  1.97473   3.68621       3.41597         3346.72238  0.00339  0.13023       0.469    4.5158     20.26627   5978.62058   -48.47449  0.60195   3857.96427  0.10257  58312.04113   51.6903   0.18735  19.08829   58355.6053 
    13.60347  1.50978  19.79637       3.48354         3489.32853  0.31852  0.01359     0.01195  41.71746     19.39164   7429.27841   -35.59671   0.4953  12271.95145  0.01369  58324.91892  52.89475  27.82523  19.21598  58363.50391 
    14.00947  2.17772   3.17601       3.29411          3412.7452  0.00283  0.04523     0.09642  24.58207      18.2508    7714.0226   -89.61957  1.11816    3117.4206  0.00099  58270.89605  51.66472   0.22561  19.06314  58334.13346 
    14.51501  2.05465   3.76953       2.48764         2701.00894  0.08875  0.15011     0.15177   1.60256     20.51148    8741.1621   -33.60287  0.16062  10850.58446  0.18039  58326.91275  52.45098   3.56956  19.23106  58363.50391 
    13.91847  1.68764    2.7223       3.39976         3262.25569  0.01743  0.01496     0.01385  63.58339     16.69797   8710.87765    -79.2288  1.00976   3057.49116    3e-05  58281.28682  51.71694   1.62902  19.21281     58368.47 
     13.3509   1.5948  12.88862       4.51874         2587.23497   0.2961   0.0131     0.01029  53.31929      18.4961   7652.25491   -34.59115  0.58973  15117.12422  0.00174  58325.92448  53.09315  26.91749   19.0176  58344.86938 
    14.10244  1.92116   1.91484       4.01298         3521.63366  0.00955  0.04513     0.03338  31.02366     19.87324   9179.83968   -80.76565  1.08332   2366.93198  0.04149  58279.74998  51.44346   0.79333  19.14104   58355.6053 
     13.3509  1.79266   9.53186       1.92609         3172.15533  0.28271  0.02607     0.19182  46.39056     18.56444   8334.61996   -40.43021   0.3666  12707.49221  0.00204  58320.08541  52.93261  25.13029  19.13006  58344.86938 
    14.32762  1.80173   1.41268       2.11691         3365.45023  0.32229  0.07119     0.32173  20.38522     19.90157   9104.43348   -56.04775  0.96247   4632.66149  0.04429  58304.46787  51.99378  24.81619  18.99488  58344.86938 
     12.3077   1.8369  18.36706        4.1674         3056.38728  0.38849  0.02139     0.02976  36.73971     20.07831   7613.68513   -23.03147  0.91386  22364.36008  0.06653  58337.48416   53.4068  33.22342  19.23406     58368.51 
    14.06518  1.77397    2.5868       4.01299         3436.31826  0.01179  0.04913     0.18293  24.96597     19.35185   7956.01492   -79.75455  0.78641   2638.09928  0.01249  58280.76108  51.52093   0.94256  19.23108  58366.34122 
    13.87992  1.60392    3.2678       1.74887         3882.56714  0.00917  0.01008     0.01352  30.30072     16.60355    7734.2682   -39.77747  1.16722   3542.96787    2e-05  58320.73815  51.79204   0.75854  19.39171     58374.52 
    14.04442  1.55117   2.62252       2.70233         3293.27616   0.0796  0.04798     0.02736  20.09445     18.79809   8307.94254   -71.71873  0.62018   3685.03841  0.00349   58288.7969  51.79383   6.11258  19.09637  58348.44802 
    13.47847   1.8352  22.85635        4.7816         3155.52319  0.28644  0.02849     0.03534  53.68656     18.84981    7656.9531   -34.33967  1.23193  18592.00221  0.00393  58326.17596  53.27334  26.06734  19.34551  58377.07713 
    13.73968   1.5129   2.90408       3.90333         3241.34052  0.00133  0.09168     0.04447  10.70383     19.07391   8341.30798   -69.87984  1.24918   3862.30234  0.00659  58290.63578   51.7798   0.09035  19.15222  58359.18394 
    14.07759   1.7004   2.43485       0.06863         3422.95149  0.00591  0.02022     0.04058  37.41982     19.85423   8673.05704   -69.20508  0.51964   5211.87732  0.03972  58291.31055  52.14302   0.50724  19.16874  58344.86938 
    13.91699  1.76146   2.50319       4.73909         3141.80711  0.00908  0.01972     0.04147   51.8611     17.79906   9785.12455   -85.30563   1.1663   2812.00637  0.00035     58275.21  51.63033   0.82168  18.91984  58363.50391 
    14.54867   1.7442  23.45292       4.15737          2916.1442  0.28624  0.01359     0.01117   40.2871     17.93787   8094.66769   -25.13029  1.21052  11337.24135  0.00048  58335.38534  52.82342  24.86062  19.47725  58359.18394 
    14.18011  1.86299   1.60922       4.95936         3159.84495  0.09088  0.04045     0.03052  31.54339     18.07759   7061.43048   -79.01568  1.00028   2618.15382  0.00066  58281.49994  51.53233   7.57121   19.1783     58371.51 
    14.11734  1.70658   1.93137       3.25095         3418.15319  0.04287  0.02386     0.04574   59.7558      17.7942   9850.41714   -88.76206  0.77906   2935.71432  0.00035  58271.75356  51.67745   3.96746  19.15336  58366.34122 
    14.02902  1.96435    3.3322        4.1045          3106.6094   0.1358  0.08602      0.0346  12.63347      19.3863   7937.42353   -78.08771  0.86213   4165.98364  0.01352  58282.42791  51.86066   9.51677  19.14912  58348.44802 
     13.9315   1.6159   3.28187       4.84119         2997.63493  0.14898  0.01004     0.01089  40.15905      18.9311   9645.70258   -63.78624  0.88841   8819.55611  0.00474  58296.72938  52.60507  12.93213  18.66994  58348.44802 
    13.86773   1.6064   3.43767       3.83796         3486.48369  0.01062  0.01578     0.09832  28.73877     19.43668   9784.98089   -54.22594   0.9279   3412.98833  0.01518  58306.28969  51.75554   0.87072  19.11368  58341.29074 
    13.92426  1.79551   2.72264       4.71246         3341.79612  0.01411  0.01899     0.04057  58.76972     19.77887   9599.97307   -79.57411  1.37883   2864.01257  0.03339  58280.94151  51.65484   1.30239  19.09224  58359.18394 
    14.14637  1.84437     3.161       0.64534         3636.56617  0.20309  0.10182     0.07545   7.41978     19.24798   7811.03368   -49.89966   0.6967   5002.32257  0.00983  58310.61597  51.96904  12.66983  18.93105  58362.76258 
    14.11379  1.61387   1.76928       4.26063         3248.46167  0.14975  0.07716     0.04332  22.90159     19.30695   9816.72695   -97.65405  0.68074   3268.54203  0.01126  58262.86157  51.70022  11.78306  19.16649  58341.29074 
    13.97188  1.68197   3.19772       1.76207         3818.65309  0.00936  0.01157     0.07555  37.08993      17.5739   8776.12096   -49.31627  0.85221    3027.4115  0.00021  58311.19935  51.67053   0.80206  19.14778  58360.51562 
    13.38599  1.65185  15.78064       4.58588         3121.47017  0.36484  0.01766     0.01786  36.39338     19.69798   7801.54658   -22.89878  0.64704  17062.98912  0.02771  58337.61685   53.1711  31.15042  19.10828  58348.44802 
    13.90338  1.59391   2.18568        1.9436         3339.82284  0.00136  0.04878     0.11094  25.28624       17.917   7580.44583   -89.23494  0.84898   3153.98704  0.00046  58271.28068  51.67707    0.1089   19.1795  58352.02666 
    13.41507  1.70092  25.28748       4.35557         2972.93524  0.33396  0.01376     0.01458   42.4435     19.24936   8299.87346   -16.96366  0.63108  19864.73618  0.00986  58343.55197  53.31433  29.25659  19.04806  58348.44802 
    14.02509   1.8181   2.43672       4.71892         3344.17755  0.02288  0.08692     0.06773  19.01636     19.22416   8810.95732   -90.76459  0.88907   3243.59488  0.00931  58269.75104  51.67847   1.73907  19.22972   58355.6053 
    12.17604  1.57982  12.10618       2.47384         3309.29327  0.31339  0.02704     0.36222  50.42927     17.85267   8340.67901   -51.25724  0.30771  14005.83828   0.0004  58309.25839  53.02297  28.23657  19.13659  58341.29074 
    13.96748   1.8206   2.06821       1.62085         3457.57648  0.01465  0.03481     0.01321     36.09     18.49208   8272.30143   -92.42676  1.01823   2853.14184  0.00173  58268.08886  51.61702   1.24884  19.25234  58359.18394 
    13.55176  1.69323  19.75963       3.58632         3067.92845  0.46544  0.02365     0.02642  30.97467     20.20873   8328.05056   -35.65061  0.35925  12165.80667  0.08984  58324.86501  52.86525  38.65482  19.18967  58362.76258 
    13.90735  1.89454   2.80018       4.01755          2988.3632  0.03562   0.0919     0.21561  14.99135     16.79496   7781.68549   -82.28087  1.41779   3532.69547    3e-05  58278.23475  51.73251   2.58436  19.26634   58355.6053 
    13.95067  1.62923   2.81821       3.27326         3437.75339  0.00564  0.01195     0.06288  75.28932      16.5729   8999.41509   -77.55992  0.74651   3508.54236    2e-05  58282.95571  51.84768   0.54108  19.14106  58362.76258 
    13.72006   1.3823   2.33998       1.47717         3158.38878  0.01617  0.01945      0.0254  30.52176     16.80028   8279.15951    -70.7685  1.01954   4418.61801    4e-05  58289.74712  51.98443   1.33954  19.23739  58360.51562 
    13.95677  1.91736    2.1331       2.65308         3379.75648   0.0059  0.03144     0.01538  40.45629     18.55407   9477.56749   -98.93254   1.2403   2498.56716  0.00199  58261.58309  51.51009   0.51252  19.24105   58355.6053 
    13.83733  1.58568   2.08969       4.79064         2892.24888  0.00361  0.02666      0.0721  37.52976     20.35243   9984.55941   -76.70713   1.1856   2721.52526  0.12507  58283.80849  51.57887   0.30961  19.09533  58359.18394 
    13.13642  1.73872  25.44792       2.32346         3435.82855  0.32218  0.01645     0.01915  39.91749     17.92378   9082.93212   -22.50287  0.61889  17761.13937  0.00047  58338.01276  53.21268  27.93921  19.19555   58355.6053 
    13.77129  1.61927   3.33261       2.65669         3208.81295  0.02204  0.01686     0.01069  38.05656     17.64473   8318.13831    -59.9482  1.08997   5353.83697  0.00025  58300.56742   52.1676   1.89621  18.91202     58371.47 
     14.2778  1.91224    3.3259       3.66886         2631.26677  0.33311  0.04759     0.11809   22.8147     18.91565   8839.18187    -53.8553  0.94026   6102.93793  0.00457  58306.66033  52.24229  26.19169  19.09984  58341.29074 
    13.98343  1.35077   2.42912       1.18421         2738.11418  0.17336  0.02106     0.01834   7.57343     18.17204   9100.35826   -52.30393  0.40916   7045.01506  0.00083  58308.21169  52.26852   10.8665  19.17116  58359.18394 
     14.0009  1.35835   1.04984       3.90432         3443.88937  0.01627  0.02666     0.03467  47.83556     17.50371   9775.07051   -87.42185  0.84766   1984.31622  0.00018  58273.09377  51.32187   1.45349  19.23813  58360.51562 
    13.80302  1.62708   3.45056       2.35931         3376.31846  0.02964  0.03631     0.14987  16.08687     18.43904   7394.20057    -52.7775   1.1376   4941.66186  0.00153  58307.73812  52.03011   2.18083  19.11322  58366.34122 
    13.94204  1.95348    2.3411       3.60784         2739.23226  0.00299  0.03095     0.05484  38.49267     16.14074   5295.05708   -88.05032  1.54616   2915.14726    1e-05  58272.46531  51.64042   0.25753  19.15178  58360.51562 
    14.01169  1.52573   2.12784       3.81869         3338.89798  0.00178   0.1359       0.187  13.78399     17.70297   7886.81563   -81.46831   0.7023   3471.40449  0.00028  58279.04731  51.70998   0.12695  19.07081  58352.02666 
    14.09464  1.84729   3.61405       4.99274         3260.73268  0.00117  0.19275     0.05651   2.32432     20.55758   5737.81937   -48.17677  0.52234   4063.33418  0.20059  58312.33885  51.65233    0.0533  19.20549  58362.76258 
    13.75475  1.60038   2.05516       0.33548         3367.50299  0.01445  0.01756      0.0179   39.4957     18.49155   9290.93146    -76.8547  1.44632   4662.06069  0.00172  58283.66092  52.05013   1.25121  18.97795  58359.18394 
    13.33054  1.49514  14.37647        1.9486         3637.12995  0.16463  0.01181     0.11968  80.12906     18.71577   6924.55514   -35.96652  1.14008  11751.10977  0.00289   58324.5491  52.90164  15.93569  19.15487  58352.02666 
     13.3252  1.30414   4.54408       4.69313         2614.40876  0.40807  0.01556     0.02231  56.54707     19.26058   8515.06152   -68.22127  1.21049  26861.37911  0.01012  58292.29436  53.59651  37.44212  19.40996     58377.51 
    14.01602  1.72719   2.39704       4.83681          2863.6083  0.03744  0.07677     0.26224  20.56761     17.43374   5428.06705   -97.36496  0.67235   3801.10446  0.00015  58263.15066  51.82266   2.88803  19.16189   58355.6053 
    14.06696   1.9968   3.74339       4.11479         3351.54711  0.25404  0.11882     0.03963   9.57632      18.7389   8953.17659   -76.91927  0.82276   4261.08032  0.00305  58283.59635   51.8547   16.7853  19.18498     58374.47 
    14.13111  1.83017   1.55569       4.74085          3463.9234  0.02513  0.02709     0.02998   54.7016     17.69045   8483.74328    -90.9111  0.96095   2321.25312  0.00027  58269.60452  51.46743   2.29331  19.14496  58352.02666 
    13.37431  1.41599   5.42854        4.3702         3420.04717  0.46577  0.01242     0.01025  26.03737     19.15957   7543.41027   -34.42187  0.38892   9711.69694  0.00802  58326.09376  52.65623   37.5127  19.21771  58363.50391 
     14.0643  1.95539   2.66981       1.35224         3277.60477  0.06453  0.02879     0.02226  28.00794     19.91081   8075.17653   -77.14004  0.82903   3595.69971  0.04524  58283.37559  51.79885   5.26517  19.19887  58359.18394 
    14.13064  1.54391   1.61784       4.58208         2701.47979  0.16531  0.03418     0.02851  31.21638     20.04667   9224.75251   -53.26758  1.04922    3901.6097  0.06186  58307.24804  51.87804  13.74737  19.02274  58341.29074 
    13.89305  1.64481   1.97838       2.95817          3232.3714  0.03309  0.03419     0.01137  39.79559     17.54873   7960.45903   -98.29528  1.11256   2993.18995   0.0002  58262.22035  51.66579   2.86793  19.15455  58341.29074 
    12.83249  1.77263  29.55793       1.50756         3353.95855  0.40277  0.01337     0.01705  44.99609     17.53985   9794.06232    -44.7584  0.65067  19787.53398  0.00019  58315.75723  53.31511  35.62567  19.13643  58348.44802 
    14.03741  1.81978   3.35741       2.32882         3168.45726  0.02865  0.05694     0.01863   8.99572     19.56772   7724.23185   -63.27869  0.54472   4784.98506  0.02053  58297.23693  51.94943   1.86689  19.11621  58359.18394 
