# Wavelength Flux
# STATUS = PUBLIC
# OBJECT = 2018lzw
# TELESCOPE = P200
# INSTRUMENT =
# DATE-OBS = 2018.1006
# MJD =
# EXPTIME =
# SLIT =
# DISPERSER =
# SOURCE = 2023ApJ...943...41C
# FILTER =
# FLUX_STANDARD =
# EXTINCTION_CORRECTED = False
# PHOTOMETRY_CALIBRATED =
# FLUX_UNITS = erg/s/cm^2/Angstroms
# QUALITY =
# MIN_WAVE =
# MAX_WAVE =
# COMMENT =
3500.916 1.094e-17
3501.98 8.142e-17
3503.045 3.109e-17
3504.109 2.069e-17
3505.174 6.153e-17
3506.238 -1.574e-17
3507.303 3.372e-17
3508.368 4.107e-17
3509.433 4.481e-17
3510.497 5.43e-17
3511.562 3.618e-17
3512.627 5.328e-17
3513.692 4.777e-17
3514.757 3.789e-17
3515.822 -1.254e-17
3516.887 3.014e-17
3517.952 -2.223e-17
3519.017 -1.556e-17
3520.083 -7.895e-18
3521.148 1.535e-17
3522.213 2.074e-17
3523.279 2.877e-17
3524.344 2.197e-17
3525.409 5.061e-18
3526.475 -4.925e-17
3527.541 6.558e-17
3528.606 3.279e-17
3529.672 -1.807e-17
3530.737 5.576e-17
3531.803 4.43e-17
3532.869 1.115e-17
3533.935 3.566e-17
3535.001 6.561e-17
3536.067 3.442e-17
3537.133 2.045e-18
3538.199 1.916e-17
3539.265 -1.986e-17
3540.331 -7.273e-18
3541.397 -1.551e-17
3542.463 3.355e-17
3543.529 4.985e-17
3544.596 -2.729e-18
3545.662 4.731e-17
3546.728 1.705e-17
3547.795 1.13e-17
3548.861 -3.007e-17
3549.928 7.842e-17
3550.994 -4.106e-17
3552.061 2.508e-17
3553.128 1.175e-17
3554.194 2.296e-17
3555.261 3.724e-17
3556.328 6.63e-17
3557.395 2.631e-17
3558.462 3.325e-18
3559.529 1.179e-17
3560.596 2.603e-17
3561.663 -2.101e-19
3562.73 6.564e-17
3563.797 4.425e-17
3564.864 2.418e-17
3565.931 2.302e-17
3566.998 1.407e-18
3568.066 8.131e-18
3569.133 -2.873e-17
3570.2 -4.341e-18
3571.268 5.21e-17
3572.335 4.276e-17
3573.403 -5.642e-18
3574.47 4.093e-17
3575.538 -2.271e-17
3576.606 2.726e-17
3577.673 -1.073e-17
3578.741 2.357e-17
3579.809 -2.112e-17
3580.877 -2.395e-18
3581.945 -2.101e-17
3583.012 -3.629e-18
3584.08 9.53e-18
3585.148 -7.729e-18
3586.216 2.965e-17
3587.285 2.518e-17
3588.353 1.178e-17
3589.421 2.047e-17
3590.489 2.448e-17
3591.557 8.277e-18
3592.626 -1.298e-18
3593.694 -9.826e-19
3594.762 2.533e-18
3595.831 1.629e-18
3596.899 1.867e-17
3597.968 3.017e-17
3599.037 2.592e-17
3600.105 -3.637e-18
3601.174 -3.865e-18
3602.243 1.964e-17
3603.311 2.445e-17
3604.38 9.061e-18
3605.449 1.916e-18
3606.518 1.179e-17
3607.587 1.123e-17
3608.656 2.627e-17
3609.725 2.478e-17
3610.794 1.121e-17
3611.863 1.746e-17
3612.932 4.02e-17
3614.001 4.332e-17
3615.071 4.817e-17
3616.14 1.957e-17
3617.209 1.054e-17
3618.278 2.618e-17
3619.348 5.718e-17
3620.417 1.209e-17
3621.487 3.699e-17
3622.556 3.273e-17
3623.626 -2.355e-18
3624.696 1.789e-17
3625.765 4.197e-17
3626.835 2.404e-17
3627.905 4.391e-18
3628.974 2.347e-17
3630.044 3.576e-17
3631.114 -7.04e-18
3632.184 1.219e-17
3633.254 4.789e-17
3634.324 1.199e-17
3635.394 2.825e-17
3636.464 3.229e-17
3637.534 2.545e-17
3638.604 2.723e-17
3639.675 2.658e-17
3640.745 2.123e-17
3641.815 7.556e-18
3642.886 3.35e-17
3643.956 8.877e-17
3645.026 -2.138e-17
3646.097 4.501e-17
3647.167 4.937e-17
3648.238 4.061e-17
3649.308 4.87e-17
3650.379 5.329e-17
3651.45 5.198e-17
3652.52 3.143e-17
3653.591 6.027e-17
3654.662 4.503e-17
3655.733 3.178e-17
3656.804 5.565e-17
3657.875 3.565e-17
3658.946 3.935e-17
3660.017 2.576e-17
3661.088 3.18e-17
3662.159 3.358e-17
3663.23 5.109e-18
3664.301 6.852e-17
3665.372 3.368e-17
3666.444 2.756e-17
3667.515 3.022e-17
3668.586 2.153e-17
3669.658 4.16e-17
3670.729 1.63e-17
3671.8 5.249e-17
3672.872 3.243e-17
3673.943 1.294e-17
3675.015 3.02e-17
3676.087 1.82e-17
3677.158 3.556e-17
3678.23 3.877e-17
3679.302 6.074e-17
3680.373 5.903e-17
3681.445 2.956e-17
3682.517 5.671e-17
3683.589 2.325e-17
3684.661 3.617e-17
3685.733 4.523e-17
3686.805 5.581e-17
3687.877 3.518e-17
3688.949 4.558e-17
3690.021 -2.67e-19
3691.093 4.812e-18
3692.166 1.258e-17
3693.238 2.806e-17
3694.31 4.25e-17
3695.383 3.517e-17
3696.455 1.56e-17
3697.527 3.177e-17
3698.6 2.477e-17
3699.672 2.303e-17
3700.745 5.15e-17
3701.817 3.703e-17
3702.89 6.575e-17
3703.963 2.732e-17
3705.035 1.029e-17
3706.108 2.821e-17
3707.181 5.332e-17
3708.254 5.441e-17
3709.327 3.464e-17
3710.399 3.476e-17
3711.472 4.115e-17
3712.545 5.585e-17
3713.618 7.112e-17
3714.691 5.525e-17
3715.765 6.764e-17
3716.838 3.483e-17
3717.911 5.085e-17
3718.984 4.464e-17
3720.057 3.698e-17
3721.131 4.785e-17
3722.204 2.09e-17
3723.277 4.531e-17
3724.351 2.264e-17
3725.424 5.863e-17
3726.497 3.379e-17
3727.571 4.494e-17
3728.645 5.846e-17
3729.718 4.779e-17
3730.792 6.153e-17
3731.865 2.814e-17
3732.939 3.856e-17
3734.013 3.297e-17
3735.087 5.07e-17
3736.16 2.876e-17
3737.234 3.032e-17
3738.308 3.433e-17
3739.382 3.383e-17
3740.456 3.383e-17
3741.53 1.76e-17
3742.604 5.955e-17
3743.678 1.868e-17
3744.752 4.487e-17
3745.826 4.818e-17
3746.901 1.97e-17
3747.975 2.437e-17
3749.049 2.301e-17
3750.123 2.609e-17
3751.198 3.734e-17
3752.272 1.177e-17
3753.347 1.134e-18
3754.421 1.344e-17
3755.496 2.678e-17
3756.57 1.097e-17
3757.645 1.423e-17
3758.719 2.908e-17
3759.794 4.657e-17
3760.869 1.657e-17
3761.943 1.859e-17
3763.018 2.796e-17
3764.093 5.515e-17
3765.168 2.828e-17
3766.243 2.418e-17
3767.317 2.605e-17
3768.392 2.31e-17
3769.467 3.395e-17
3770.542 2.097e-17
3771.617 2.275e-17
3772.692 1.046e-17
3773.768 3.225e-17
3774.843 4.926e-17
3775.918 1.399e-17
3776.993 2.266e-17
3778.068 1.376e-17
3779.144 2.506e-17
3780.219 4.324e-17
3781.294 6.185e-18
3782.37 1.562e-17
3783.445 4.779e-18
3784.521 1.087e-17
3785.596 3.434e-17
3786.672 3.485e-17
3787.747 -8.355e-18
3788.823 4.076e-17
3789.899 2.965e-17
3790.974 3.542e-17
3792.05 1.644e-17
3793.126 2.732e-17
3794.202 -3.194e-18
3795.277 5.459e-17
3796.353 4.079e-17
3797.429 3.729e-17
3798.505 9.742e-18
3799.581 2.035e-17
3800.657 1.838e-17
3801.733 4.86e-17
3802.809 4.276e-17
3803.885 1.317e-17
3804.962 3.127e-17
3806.038 2.297e-17
3807.114 3.546e-17
3808.19 2.456e-17
3809.267 3.374e-17
3810.343 5.277e-17
3811.419 4.05e-17
3812.496 3.051e-17
3813.572 5.633e-17
3814.649 3.306e-17
3815.725 3.839e-17
3816.802 2.921e-17
3817.878 3.846e-17
3818.955 2.544e-17
3820.031 2.968e-17
3821.108 3.94e-17
3822.185 1.969e-17
3823.262 3.694e-17
3824.338 3.347e-17
3825.415 3.75e-17
3826.492 5.067e-17
3827.569 7.348e-17
3828.646 3.61e-17
3829.723 4.535e-17
3830.8 5.329e-17
3831.877 3.064e-17
3832.954 6.517e-17
3834.031 4.157e-17
3835.108 7.253e-17
3836.185 4.311e-17
3837.262 3.164e-17
3838.34 4.222e-17
3839.417 5.083e-17
3840.494 2.048e-17
3841.571 7.567e-17
3842.649 6.389e-17
3843.726 5.803e-17
3844.804 5.833e-17
3845.881 7.871e-17
3846.959 2.941e-17
3848.036 4.582e-17
3849.114 3.96e-17
3850.191 5.437e-17
3851.269 5.851e-17
3852.347 6.359e-17
3853.424 2.374e-17
3854.502 3.832e-17
3855.58 7.667e-17
3856.657 4.739e-17
3857.735 3.497e-17
3858.813 3.022e-17
3859.891 5.883e-17
3860.969 4.88e-17
3862.047 3.73e-17
3863.125 6.141e-17
3864.203 6.236e-17
3865.281 4.977e-17
3866.359 3.566e-17
3867.437 3.524e-17
3868.515 3.63e-17
3869.593 5.54e-17
3870.672 5.629e-17
3871.75 4.893e-17
3872.828 5.657e-17
3873.907 2.469e-17
3874.985 4.257e-17
3876.063 5.694e-17
3877.142 4.83e-17
3878.22 4.596e-17
3879.299 3.439e-17
3880.377 8.212e-17
3881.456 5.401e-17
3882.534 3.675e-17
3883.613 4.443e-17
3884.691 3.868e-17
3885.77 4.498e-17
3886.849 6.242e-17
3887.927 5.446e-17
3889.006 3.652e-17
3890.085 3.48e-17
3891.164 4.803e-17
3892.243 5.715e-17
3893.322 6.043e-17
3894.4 5.473e-17
3895.479 5.817e-17
3896.558 7.689e-17
3897.637 5.002e-17
3898.716 4.091e-17
3899.796 5.328e-17
3900.875 5.847e-17
3901.954 6.885e-17
3903.033 4.334e-17
3904.112 2.915e-17
3905.191 3.816e-17
3906.271 5.691e-17
3907.35 6.839e-17
3908.429 5.852e-17
3909.509 3.576e-17
3910.588 3.743e-17
3911.667 4.875e-17
3912.747 5.412e-17
3913.826 6.415e-17
3914.906 5.738e-17
3915.985 5.76e-17
3917.065 5.121e-17
3918.144 5.792e-17
3919.224 3.167e-17
3920.304 5.24e-17
3921.383 9.306e-17
3922.463 3.483e-17
3923.543 6.317e-17
3924.623 5.17e-17
3925.702 5.555e-17
3926.782 5.649e-17
3927.862 5.069e-17
3928.942 4.149e-17
3930.022 7.562e-17
3931.102 5.418e-17
3932.182 6.507e-17
3933.262 3.439e-17
3934.342 3.837e-17
3935.422 3.364e-17
3936.502 5.659e-17
3937.582 5.181e-17
3938.662 6.465e-17
3939.743 4.276e-17
3940.823 6.157e-17
3941.903 7.186e-17
3942.983 3.562e-17
3944.064 3.908e-17
3945.144 3.796e-17
3946.224 6.086e-17
3947.305 4.344e-17
3948.385 4.694e-17
3949.466 4.598e-17
3950.546 4.681e-17
3951.627 7.012e-17
3952.707 5.591e-17
3953.788 6.651e-17
3954.868 5.479e-17
3955.949 3.746e-17
3957.03 6.216e-17
3958.11 3.094e-17
3959.191 2.389e-17
3960.272 7.369e-17
3961.353 4.705e-17
3962.433 4.219e-17
3963.514 5.07e-17
3964.595 5.256e-17
3965.676 4.758e-17
3966.757 2.976e-17
3967.838 4.996e-17
3968.919 3.344e-17
3970.0 4.795e-17
3971.081 4.931e-17
3972.162 4.412e-17
3973.243 5.759e-17
3974.324 2.51e-17
3975.405 2.583e-17
3976.486 5.089e-17
3977.568 2.81e-17
3978.649 5.158e-17
3979.73 3.305e-17
3980.811 4.54e-17
3981.893 3.367e-17
3982.974 5.136e-17
3984.055 3.044e-17
3985.137 4.311e-17
3986.218 5.607e-17
3987.3 4.376e-17
3988.381 3.79e-17
3989.463 3.067e-17
3990.544 1.763e-17
3991.626 5.247e-17
3992.707 4.025e-17
3993.789 4.9e-17
3994.87 5.505e-17
3995.952 2.472e-17
3997.034 3.083e-17
3998.116 5.269e-17
3999.197 4.291e-17
4000.279 4.504e-17
4001.361 5.157e-17
4002.443 1.933e-17
4003.525 3.926e-17
4004.606 2.477e-17
4005.688 1.41e-17
4006.77 4.472e-17
4007.852 2.834e-17
4008.934 4.016e-17
4010.016 2.559e-17
4011.098 3.586e-17
4012.18 4.642e-17
4013.262 4.397e-17
4014.345 3.941e-17
4015.427 4.508e-17
4016.509 4.703e-17
4017.591 3.488e-17
4018.673 4.246e-17
4019.756 4.288e-17
4020.838 5.467e-17
4021.92 2.447e-17
4023.002 4.5e-17
4024.085 2.29e-17
4025.167 4.048e-17
4026.25 2.732e-17
4027.332 3.824e-17
4028.415 5.46e-17
4029.497 8.441e-18
4030.58 3.545e-17
4031.662 4.916e-17
4032.745 2.733e-17
4033.827 1.097e-17
4034.91 4.5e-17
4035.992 3.413e-17
4037.075 3.631e-17
4038.158 4.059e-17
4039.241 3.917e-17
4040.323 4.189e-17
4041.406 5.108e-17
4042.489 1.71e-17
4043.572 8.46e-18
4044.654 2.153e-17
4045.737 3.852e-17
4046.82 3.607e-17
4047.903 4.041e-17
4048.986 4.707e-17
4050.069 1.898e-17
4051.152 2.345e-17
4052.235 3.852e-17
4053.318 2.456e-17
4054.401 4.722e-17
4055.484 4.134e-17
4056.567 2.77e-17
4057.651 4.859e-17
4058.734 3.291e-17
4059.817 3.138e-17
4060.9 3.475e-17
4061.983 2.636e-17
4063.067 4.167e-17
4064.15 1.738e-17
4065.233 4.168e-17
4066.317 4.78e-17
4067.4 4.788e-17
4068.483 5.754e-17
4069.567 3.397e-17
4070.65 4.388e-17
4071.734 5.444e-17
4072.817 2.726e-17
4073.901 4.291e-17
4074.984 3.271e-17
4076.068 3.833e-17
4077.151 4.821e-17
4078.235 4.596e-17
4079.318 4.345e-17
4080.402 4.788e-17
4081.486 3.28e-17
4082.569 4.839e-17
4083.653 3.475e-17
4084.737 3.74e-17
4085.821 2.726e-17
4086.904 4.153e-17
4087.988 5.002e-17
4089.072 4.288e-17
4090.156 1.708e-17
4091.24 4.279e-17
4092.324 2.53e-17
4093.408 4.48e-17
4094.492 4.545e-17
4095.576 3.561e-17
4096.66 5.622e-17
4097.744 5.434e-17
4098.828 4.654e-17
4099.912 3.599e-17
4100.996 1.933e-17
4102.08 2.968e-17
4103.164 2.592e-17
4104.248 1.869e-17
4105.332 3.439e-17
4106.417 2.86e-17
4107.501 3.962e-17
4108.585 3.636e-17
4109.669 5.644e-17
4110.754 5.398e-17
4111.838 2.259e-17
4112.922 3.087e-17
4114.007 4.49e-17
4115.091 3.311e-17
4116.175 2.689e-17
4117.26 4.057e-17
4118.344 3.163e-17
4119.429 4.655e-17
4120.513 4.386e-17
4121.598 4.925e-17
4122.682 3.66e-17
4123.767 3.497e-17
4124.851 4.371e-17
4125.936 3.542e-17
4127.021 5.228e-17
4128.105 4.071e-17
4129.19 4.424e-17
4130.275 2.596e-17
4131.359 3.745e-17
4132.444 3.031e-17
4133.529 3.441e-17
4134.613 3.167e-17
4135.698 4.374e-17
4136.783 4.442e-17
4137.868 5.258e-17
4138.953 4.879e-17
4140.038 4.559e-17
4141.123 3.452e-17
4142.207 4.061e-17
4143.292 4.583e-17
4144.377 3.759e-17
4145.462 2.133e-17
4146.547 3.983e-17
4147.632 4.295e-17
4148.717 2.467e-17
4149.803 3.957e-17
4150.888 4.429e-17
4151.973 4.442e-17
4153.058 5.06e-17
4154.143 6.089e-17
4155.228 3.153e-17
4156.313 4.862e-17
4157.399 5.536e-17
4158.484 3.241e-17
4159.569 3.735e-17
4160.654 3.787e-17
4161.74 4.139e-17
4162.825 3.764e-17
4163.91 3.061e-17
4164.996 3.507e-17
4166.081 2.041e-17
4167.166 5.289e-17
4168.252 1.413e-17
4169.337 3.457e-17
4170.423 4.881e-17
4171.508 3.566e-17
4172.594 3.101e-17
4173.679 4.456e-17
4174.765 3.384e-17
4175.85 2.645e-17
4176.936 4.292e-17
4178.021 3.742e-17
4179.107 4.043e-17
4180.193 5.53e-17
4181.278 4.844e-17
4182.364 3.22e-17
4183.45 5.444e-17
4184.535 3.28e-17
4185.621 3.508e-17
4186.707 4.534e-17
4187.793 3.258e-17
4188.878 4.242e-17
4189.964 3.955e-17
4191.05 4.287e-17
4192.136 5.278e-17
4193.222 4.114e-17
4194.308 6.575e-17
4195.393 3.185e-17
4196.479 4.577e-17
4197.565 2.719e-17
4198.651 3.837e-17
4199.737 5.443e-17
4200.823 2.699e-17
4201.909 4.482e-17
4202.995 2.474e-17
4204.081 5.064e-17
4205.167 3.754e-17
4206.253 4.066e-17
4207.34 4.702e-17
4208.426 3.652e-17
4209.512 4.523e-17
4210.598 3.59e-17
4211.684 3.55e-17
4212.77 5.915e-17
4213.857 3.081e-17
4214.943 2.6e-17
4216.029 3.613e-17
4217.115 3.34e-17
4218.202 5.541e-17
4219.288 3.366e-17
4220.374 4.568e-17
4221.461 4.881e-17
4222.547 5.754e-17
4223.633 2.795e-17
4224.72 4.498e-17
4225.806 4.273e-17
4226.893 5.398e-17
4227.979 3.875e-17
4229.065 4.415e-17
4230.152 2.071e-17
4231.238 4.256e-17
4232.325 3.475e-17
4233.411 6.024e-17
4234.498 2.584e-17
4235.585 3.663e-17
4236.671 5.619e-17
4237.758 4.994e-17
4238.844 4.92e-17
4239.931 4.792e-17
4241.018 5.034e-17
4242.104 3.49e-17
4243.191 3.898e-17
4244.278 6.888e-17
4245.364 3.185e-17
4246.451 4.86e-17
4247.538 4.957e-17
4248.625 7.713e-17
4249.711 5.002e-17
4250.798 5.475e-17
4251.885 3.789e-17
4252.972 4.063e-17
4254.059 3.372e-17
4255.146 4.262e-17
4256.233 3.776e-17
4257.319 4.373e-17
4258.406 4.788e-17
4259.493 5.204e-17
4260.58 5.749e-17
4261.667 5.024e-17
4262.754 4.278e-17
4263.841 5.448e-17
4264.928 3.604e-17
4266.015 4.515e-17
4267.102 2.861e-17
4268.189 2.63e-17
4269.276 4.168e-17
4270.363 3.407e-17
4271.451 5.305e-17
4272.538 2.547e-17
4273.625 4.657e-17
4274.712 4.406e-17
4275.799 3.3e-17
4276.886 4.701e-17
4277.974 5.629e-17
4279.061 4.509e-17
4280.148 4.893e-17
4281.235 5.585e-17
4282.323 4.838e-17
4283.41 2.889e-17
4284.497 2.651e-17
4285.584 4.402e-17
4286.672 4.077e-17
4287.759 2.609e-17
4288.846 4.743e-17
4289.934 2.865e-17
4291.021 3.104e-17
4292.109 3.441e-17
4293.196 5.139e-17
4294.283 3.727e-17
4295.371 1.732e-17
4296.458 5.183e-17
4297.546 4.895e-17
4298.633 2.931e-17
4299.721 6.131e-17
4300.808 4.087e-17
4301.896 5.199e-17
4302.983 2.349e-17
4304.071 4.813e-17
4305.159 3.455e-17
4306.246 5.155e-17
4307.334 5.055e-17
4308.421 3.65e-17
4309.509 5.836e-17
4310.597 3.282e-17
4311.684 3.833e-17
4312.772 5.252e-17
4313.86 2.747e-17
4314.947 5.85e-17
4316.035 4.168e-17
4317.123 4.777e-17
4318.211 3.581e-17
4319.298 3.858e-17
4320.386 3.475e-17
4321.474 3.23e-17
4322.562 2.921e-17
4323.649 4.177e-17
4324.737 4.08e-17
4325.825 4.611e-17
4326.913 4.281e-17
4328.001 4.239e-17
4329.089 2.219e-17
4330.177 3.492e-17
4331.264 4.074e-17
4332.352 6.29e-17
4333.44 4.743e-17
4334.528 3.261e-17
4335.616 2.886e-17
4336.704 5.01e-17
4337.792 2.339e-17
4338.88 5.33e-17
4339.968 2.88e-17
4341.056 3.114e-17
4342.144 4.06e-17
4343.232 3.484e-17
4344.32 5.006e-17
4345.408 5.788e-17
4346.497 3.734e-17
4347.585 6.168e-17
4348.673 2.233e-17
4349.761 3.782e-17
4350.849 5.252e-17
4351.937 4.207e-17
4353.025 3.631e-17
4354.113 5.95e-17
4355.202 5.356e-17
4356.29 4.721e-17
4357.378 2.905e-17
4358.466 4.149e-17
4359.555 6.124e-17
4360.643 4.816e-17
4361.731 1.999e-17
4362.819 5.057e-17
4363.908 5.366e-17
4364.996 4.606e-17
4366.084 1.254e-17
4367.173 4.444e-17
4368.261 4.35e-17
4369.349 3.566e-17
4370.438 3.181e-17
4371.526 2.704e-17
4372.614 2.102e-17
4373.703 4.744e-17
4374.791 3.772e-17
4375.879 5.199e-17
4376.968 4.732e-17
4378.056 4.911e-17
4379.145 4.302e-17
4380.233 2.618e-17
4381.322 4.525e-17
4382.41 3.99e-17
4383.499 4.112e-17
4384.587 4.968e-17
4385.676 3.03e-17
4386.764 3.495e-17
4387.853 3.867e-17
4388.941 2.745e-17
4390.03 1.654e-17
4391.118 4.445e-17
4392.207 2.303e-17
4393.296 2.491e-17
4394.384 4.087e-17
4395.473 4.314e-17
4396.561 3.985e-17
4397.65 3.409e-17
4398.739 3.815e-17
4399.827 4.398e-17
4400.916 3.394e-17
4402.005 3.739e-17
4403.093 3.701e-17
4404.182 3.621e-17
4405.271 5.316e-17
4406.359 4.078e-17
4407.448 4.036e-17
4408.537 4.815e-17
4409.626 4.321e-17
4410.714 4.591e-17
4411.803 3.753e-17
4412.892 2.067e-17
4413.981 4.598e-17
4415.069 3.858e-17
4416.158 4.817e-17
4417.247 5.081e-17
4418.336 1.445e-18
4419.425 4.317e-17
4420.514 3.729e-17
4421.602 4.522e-17
4422.691 3.832e-17
4423.78 3.954e-17
4424.869 3.09e-17
4425.958 3.685e-17
4427.047 4.695e-17
4428.136 3.714e-17
4429.225 2.134e-17
4430.314 2.065e-17
4431.402 3.273e-17
4432.491 4.988e-17
4433.58 4.206e-17
4434.669 3.699e-17
4435.758 2.702e-17
4436.847 2.656e-17
4437.936 3.682e-17
4439.025 2e-17
4440.114 5.045e-17
4441.203 3.476e-17
4442.292 5.379e-17
4443.381 4.06e-17
4444.47 3.74e-17
4445.559 4.497e-17
4446.648 1.898e-17
4447.738 3.434e-17
4448.827 5.697e-17
4449.916 3.333e-17
4451.005 3.842e-17
4452.094 4.078e-17
4453.183 3.839e-17
4454.272 2.56e-17
4455.361 2.944e-17
4456.45 4.372e-17
4457.539 3.568e-17
4458.629 4.624e-17
4459.718 3.84e-17
4460.807 3.639e-17
4461.896 2.646e-17
4462.985 3.188e-17
4464.074 3.743e-17
4465.164 3.237e-17
4466.253 2.475e-17
4467.342 5.27e-17
4468.431 3.352e-17
4469.521 5.086e-17
4470.61 3.487e-17
4471.699 2.611e-17
4472.788 3.692e-17
4473.877 2.931e-17
4474.967 6.383e-17
4476.056 3.583e-17
4477.145 3.091e-17
4478.235 4.249e-17
4479.324 2.299e-17
4480.413 2.507e-17
4481.502 4.937e-17
4482.592 5.358e-17
4483.681 3.259e-17
4484.77 4.325e-17
4485.86 3.23e-17
4486.949 3.734e-17
4488.038 2.473e-17
4489.128 4.55e-17
4490.217 4.862e-17
4491.306 3.852e-17
4492.396 4.039e-17
4493.485 5.091e-17
4494.575 5.222e-17
4495.664 3.644e-17
4496.753 4.375e-17
4497.843 3.411e-17
4498.932 2.853e-17
4500.022 2.622e-17
4501.111 1.997e-17
4502.2 4.166e-17
4503.29 4.104e-17
4504.379 2.329e-17
4505.469 5.434e-17
4506.558 4.604e-17
4507.648 3.596e-17
4508.737 4.169e-17
4509.827 3.59e-17
4510.916 2.04e-17
4512.006 4.834e-17
4513.095 4.61e-17
4514.185 4.678e-17
4515.274 2.824e-17
4516.364 3.348e-17
4517.453 5.269e-17
4518.543 3.818e-17
4519.632 4.219e-17
4520.722 6.003e-17
4521.811 4.618e-17
4522.901 3.985e-17
4523.99 3.638e-17
4525.08 2.463e-17
4526.169 6.066e-17
4527.259 1.833e-17
4528.349 3.19e-17
4529.438 4.685e-17
4530.528 3.269e-17
4531.617 6.384e-17
4532.707 3.302e-17
4533.796 3.481e-17
4534.886 4.483e-17
4535.976 4.649e-17
4537.065 2.706e-17
4538.155 5.085e-17
4539.244 3.485e-17
4540.334 3.654e-17
4541.424 6.536e-17
4542.513 4.649e-17
4543.603 1.668e-17
4544.693 4.51e-17
4545.782 2.913e-17
4546.872 2.966e-17
4547.962 3.588e-17
4549.051 4.632e-17
4550.141 2.967e-17
4551.23 6.008e-17
4552.32 2.085e-17
4553.41 1.616e-17
4554.499 2.663e-17
4555.589 2.995e-17
4556.679 2.135e-17
4557.769 3.821e-17
4558.858 2.553e-17
4559.948 5.036e-17
4561.038 3.805e-17
4562.127 4.962e-17
4563.217 3.199e-17
4564.307 3.59e-17
4565.396 2.529e-17
4566.486 3.014e-17
4567.576 4.541e-17
4568.666 3.852e-17
4569.755 3.266e-17
4570.845 3.122e-17
4571.935 4.872e-17
4573.025 3.929e-17
4574.114 3.891e-17
4575.204 3.786e-17
4576.294 4.084e-17
4577.383 5.117e-17
4578.473 3.179e-17
4579.563 3.789e-17
4580.653 2.926e-17
4581.742 4.24e-17
4582.832 2.868e-17
4583.922 3.591e-17
4585.012 3.628e-17
4586.102 4.043e-17
4587.191 5.107e-17
4588.281 3.566e-17
4589.371 3.865e-17
4590.461 2.655e-17
4591.55 5.181e-17
4592.64 3.572e-17
4593.73 4.188e-17
4594.82 4.107e-17
4595.91 3.818e-17
4596.999 3.341e-17
4598.089 4.334e-17
4599.179 4.321e-17
4600.269 4.806e-17
4601.359 4.34e-17
4602.448 3.487e-17
4603.538 2.915e-17
4604.628 3.731e-17
4605.718 3.739e-17
4606.808 3.055e-17
4607.897 3.869e-17
4608.987 3.45e-17
4610.077 2.808e-17
4611.167 3.066e-17
4612.257 2.41e-17
4613.347 3.648e-17
4614.436 2.715e-17
4615.526 4.659e-17
4616.616 4.44e-17
4617.706 3.851e-17
4618.796 4.306e-17
4619.886 5.345e-17
4620.975 4.279e-17
4622.065 2.299e-17
4623.155 3.932e-17
4624.245 3.134e-17
4625.335 4.02e-17
4626.425 4.252e-17
4627.514 5.427e-17
4628.604 3.593e-17
4629.694 3.542e-17
4630.784 1.589e-17
4631.874 4.055e-17
4632.964 2.194e-17
4634.053 3.582e-17
4635.143 5.494e-17
4636.233 5.117e-17
4637.323 2.887e-17
4638.413 5.274e-17
4639.503 5.125e-17
4640.593 4.241e-17
4641.682 3.497e-17
4642.772 4.895e-17
4643.862 3.989e-17
4644.952 6.411e-17
4646.042 5.368e-17
4647.132 3.973e-17
4648.222 3.231e-17
4649.311 4.457e-17
4650.401 4.098e-17
4651.491 4.781e-17
4652.581 3.764e-17
4653.671 2.91e-17
4654.761 3.757e-17
4655.851 3.903e-17
4656.94 4.311e-17
4658.03 4.365e-17
4659.12 4.018e-17
4660.21 3.994e-17
4661.3 3.141e-17
4662.39 3.856e-17
4663.479 4.015e-17
4664.569 4.855e-17
4665.659 4.417e-17
4666.749 3.544e-17
4667.839 5.455e-17
4668.929 5.404e-17
4670.019 4.728e-17
4671.108 2.443e-17
4672.198 4.425e-17
4673.288 4.37e-17
4674.378 4.59e-17
4675.468 4.227e-17
4676.558 4.352e-17
4677.647 3.726e-17
4678.737 5.451e-17
4679.827 5.057e-17
4680.917 4.396e-17
4682.007 3.747e-17
4683.097 4.197e-17
4684.186 4.035e-17
4685.276 3.909e-17
4686.366 2.777e-17
4687.456 3.945e-17
4688.546 5.187e-17
4689.636 4.617e-17
4690.725 2.925e-17
4691.815 4.545e-17
4692.905 3.204e-17
4693.995 3.998e-17
4695.085 4.291e-17
4696.175 4.597e-17
4697.264 5.384e-17
4698.354 3.966e-17
4699.444 3.218e-17
4700.534 4.846e-17
4701.624 3.585e-17
4702.713 3.676e-17
4703.803 4.567e-17
4704.893 5.94e-17
4705.983 3.792e-17
4707.073 3.339e-17
4708.162 4.117e-17
4709.252 6.29e-17
4710.342 3.993e-17
4711.432 2.691e-17
4712.521 4.359e-17
4713.611 5.835e-17
4714.701 5.333e-17
4715.791 4.303e-17
4716.881 5.172e-17
4717.97 4.052e-17
4719.06 2.305e-17
4720.15 7.126e-17
4721.24 4.3e-17
4722.329 4.794e-17
4723.419 3.606e-17
4724.509 5.444e-17
4725.599 4.704e-17
4726.688 3.355e-17
4727.778 3.224e-17
4728.868 2.972e-17
4729.958 5.209e-17
4731.047 4.649e-17
4732.137 4.431e-17
4733.227 4.702e-17
4734.317 3.749e-17
4735.406 4.919e-17
4736.496 4.094e-17
4737.586 3.532e-17
4738.675 4.926e-17
4739.765 5.71e-17
4740.855 2.416e-17
4741.944 2.633e-17
4743.034 4.996e-17
4744.124 2.729e-17
4745.214 5.593e-17
4746.303 4.171e-17
4747.393 2.616e-17
4748.483 4.005e-17
4749.572 6.377e-17
4750.662 2.957e-17
4751.752 4.531e-17
4752.841 2.468e-17
4753.931 4.077e-17
4755.021 5.436e-17
4756.11 3.8e-17
4757.2 4.149e-17
4758.289 5.543e-17
4759.379 3.291e-17
4760.469 5.115e-17
4761.558 3.297e-17
4762.648 4.299e-17
4763.738 4.291e-17
4764.827 3.702e-17
4765.917 4.392e-17
4767.006 3.844e-17
4768.096 3.531e-17
4769.186 4.496e-17
4770.275 3.598e-17
4771.365 4.894e-17
4772.454 5.115e-17
4773.544 4.449e-17
4774.633 6.429e-17
4775.723 4.481e-17
4776.813 4.319e-17
4777.902 4.651e-17
4778.992 4.646e-17
4780.081 5.642e-17
4781.171 3.84e-17
4782.26 3.52e-17
4783.35 4.715e-17
4784.439 4.227e-17
4785.529 3.168e-17
4786.618 4.43e-17
4787.708 4.055e-17
4788.797 4.529e-17
4789.887 2.514e-17
4790.976 4.035e-17
4792.066 3.123e-17
4793.155 5.687e-17
4794.245 4.455e-17
4795.334 4.685e-17
4796.424 3.336e-17
4797.513 6.035e-17
4798.603 3.713e-17
4799.692 3.657e-17
4800.781 3.844e-17
4801.871 3.48e-17
4802.96 3.097e-17
4804.05 4.283e-17
4805.139 2.956e-17
4806.228 3.785e-17
4807.318 3.494e-17
4808.407 4.894e-17
4809.497 2.177e-17
4810.586 4.751e-17
4811.675 4.044e-17
4812.765 2.767e-17
4813.854 3.494e-17
4814.943 3.327e-17
4816.033 3.27e-17
4817.122 3.977e-17
4818.211 3.641e-17
4819.301 3.589e-17
4820.39 5.798e-17
4821.479 2.751e-17
4822.569 3.889e-17
4823.658 6.571e-17
4824.747 3.965e-17
4825.837 2.456e-17
4826.926 4.911e-17
4828.015 2.51e-17
4829.104 4.641e-17
4830.194 4.767e-17
4831.283 3.086e-17
4832.372 3.239e-17
4833.461 3.662e-17
4834.55 4.914e-17
4835.64 5.125e-17
4836.729 4.734e-17
4837.818 3.947e-17
4838.907 4.108e-17
4839.996 5.458e-17
4841.086 3.882e-17
4842.175 5.76e-17
4843.264 5.325e-17
4844.353 3.51e-17
4845.442 1.754e-17
4846.531 2.982e-17
4847.62 5.352e-17
4848.71 4.138e-17
4849.799 3.777e-17
4850.888 2.883e-17
4851.977 4.53e-17
4853.066 4.274e-17
4854.155 3.108e-17
4855.244 4.723e-17
4856.333 3.956e-17
4857.422 4.04e-17
4858.511 3.733e-17
4859.6 4.498e-17
4860.689 5.087e-17
4861.778 4.463e-17
4862.867 4.618e-17
4863.956 6.36e-17
4865.045 3.033e-17
4866.134 2.738e-17
4867.223 4.447e-17
4868.312 5.327e-17
4869.401 5.007e-17
4870.49 2.284e-17
4871.579 4.096e-17
4872.668 4.204e-17
4873.757 3.111e-17
4874.846 3.003e-17
4875.935 5.541e-17
4877.024 4.844e-17
4878.112 4.426e-17
4879.201 2.627e-17
4880.29 5.78e-17
4881.379 4.432e-17
4882.468 2.964e-17
4883.557 4.413e-17
4884.646 5.302e-17
4885.734 6.931e-17
4886.823 4.248e-17
4887.912 4.796e-17
4889.001 3.906e-17
4890.09 4.914e-17
4891.178 3.758e-17
4892.267 3.339e-17
4893.356 4.994e-17
4894.445 4.288e-17
4895.533 4.318e-17
4896.622 4.061e-17
4897.711 4.088e-17
4898.799 4.202e-17
4899.888 5.202e-17
4900.977 5.519e-17
4902.065 4.091e-17
4903.154 3.116e-17
4904.243 4.62e-17
4905.331 3.903e-17
4906.42 3.742e-17
4907.509 4.782e-17
4908.597 4.87e-17
4909.686 3.556e-17
4910.774 4.791e-17
4911.863 3.07e-17
4912.951 4.602e-17
4914.04 5.368e-17
4915.129 3.285e-17
4916.217 5.08e-17
4917.306 5.834e-17
4918.394 5.22e-17
4919.483 4.782e-17
4920.571 3.739e-17
4921.66 4.645e-17
4922.748 4.488e-17
4923.836 4.639e-17
4924.925 3.113e-17
4926.013 4.721e-17
4927.102 5.608e-17
4928.19 3.902e-17
4929.278 2.84e-17
4930.367 2.229e-17
4931.455 5.206e-17
4932.544 4.191e-17
4933.632 5.97e-17
4934.72 3.897e-17
4935.809 4.941e-17
4936.897 2.918e-17
4937.985 3.088e-17
4939.073 5.278e-17
4940.162 3.057e-17
4941.25 4.164e-17
4942.338 3.914e-17
4943.426 5.122e-17
4944.515 4.83e-17
4945.603 4.487e-17
4946.691 4.78e-17
4947.779 3.193e-17
4948.867 6.756e-17
4949.956 4.546e-17
4951.044 4.882e-17
4952.132 4.248e-17
4953.22 3.212e-17
4954.308 2.795e-17
4955.396 2.709e-17
4956.484 4.55e-17
4957.572 4.35e-17
4958.661 3.99e-17
4959.749 3.932e-17
4960.837 3.276e-17
4961.925 3.236e-17
4963.013 3.558e-17
4964.101 3.429e-17
4965.189 5.064e-17
4966.277 1.536e-17
4967.365 4.847e-17
4968.453 3.144e-17
4969.54 1.801e-17
4970.628 3.959e-17
4971.716 4.463e-17
4972.804 3.745e-17
4973.892 5.652e-17
4974.98 2.032e-17
4976.068 5.739e-17
4977.156 5.103e-17
4978.243 2.769e-17
4979.331 3.344e-17
4980.419 4.042e-17
4981.507 2.944e-17
4982.595 6.178e-17
4983.682 2.583e-17
4984.77 1.795e-17
4985.858 3.733e-17
4986.946 1.717e-17
4988.033 4.375e-17
4989.121 2.791e-17
4990.209 5.031e-17
4991.296 5.036e-17
4992.384 3.071e-17
4993.472 3.032e-17
4994.559 4.828e-17
4995.647 4.389e-17
4996.734 2.952e-17
4997.822 3.751e-17
4998.91 3.806e-17
4999.997 5.257e-17
5001.085 5.753e-17
5002.172 4.008e-17
5003.26 3.091e-17
5004.347 4.966e-17
5005.435 4.835e-17
5006.522 4.474e-17
5007.61 3.873e-17
5008.697 4.2e-17
5009.784 4.809e-17
5010.872 3.183e-17
5011.959 4.199e-17
5013.047 4.505e-17
5014.134 3.463e-17
5015.221 4.817e-17
5016.309 3.845e-17
5017.396 4.497e-17
5018.483 2.45e-17
5019.571 3.178e-17
5020.658 4.553e-17
5021.745 4.492e-17
5022.832 3.903e-17
5023.919 3.71e-17
5025.007 2.884e-17
5026.094 3.929e-17
5027.181 2.951e-17
5028.268 4.315e-17
5029.355 3.932e-17
5030.442 4.715e-17
5031.53 4.235e-17
5032.617 3.125e-17
5033.704 4.559e-17
5034.791 4.653e-17
5035.878 4.219e-17
5036.965 4.247e-17
5038.052 5.156e-17
5039.139 2.571e-17
5040.226 2.683e-17
5041.313 3.626e-17
5042.4 3.634e-17
5043.487 4.552e-17
5044.574 2.976e-17
5045.661 4.436e-17
5046.748 4.989e-17
5047.834 2.285e-17
5048.921 4.309e-17
5050.008 4.457e-17
5051.095 4.48e-17
5052.182 4.648e-17
5053.268 4.266e-17
5054.355 4.127e-17
5055.442 3.522e-17
5056.529 4.146e-17
5057.615 2.436e-17
5058.702 1.961e-17
5059.789 3.612e-17
5060.876 1.966e-17
5061.962 1.69e-17
5063.049 3.78e-17
5064.135 4.18e-17
5065.222 1.898e-17
5066.309 5.802e-17
5067.395 3.736e-17
5068.482 4.002e-17
5069.568 3.516e-17
5070.655 8.132e-17
5071.741 2.95e-17
5072.828 3.781e-17
5073.914 2.97e-17
5075.001 4.116e-17
5076.087 3.632e-17
5077.174 2.685e-17
5078.26 5.345e-17
5079.346 3.14e-17
5080.433 4.735e-17
5081.519 2.096e-17
5082.605 3.933e-17
5083.692 2.736e-17
5084.778 4.258e-17
5085.864 5.618e-17
5086.951 3.113e-17
5088.037 3.201e-17
5089.123 4.225e-17
5090.209 5.602e-17
5091.295 3.096e-17
5092.382 5.293e-17
5093.468 4.191e-17
5094.554 5.094e-17
5095.64 3.832e-17
5096.726 3.977e-17
5097.812 4.252e-17
5098.898 4.97e-17
5099.984 4.821e-17
5101.07 5.006e-17
5102.156 2.54e-17
5103.242 4.364e-17
5104.328 1.463e-17
5105.414 2.878e-17
5106.5 3.451e-17
5107.586 3.889e-17
5108.672 4.64e-17
5109.758 5.175e-17
5110.843 3.066e-17
5111.929 3.494e-17
5113.015 1.662e-17
5114.101 4.751e-17
5115.187 3.819e-17
5116.272 4.335e-17
5117.358 4.563e-17
5118.444 3.484e-17
5119.53 3.556e-17
5120.615 3.446e-17
5121.701 4.302e-17
5122.787 5.607e-17
5123.872 2.906e-17
5124.958 4.176e-17
5126.043 2.611e-17
5127.129 2.691e-17
5128.214 3.846e-17
5129.3 2.96e-17
5130.385 3.555e-17
5131.471 4.869e-17
5132.556 5.624e-17
5133.642 3.585e-17
5134.727 4.923e-17
5135.813 4.006e-17
5136.898 4.666e-17
5137.983 3.745e-17
5139.069 4.969e-17
5140.154 2.808e-17
5141.239 4.431e-17
5142.325 3.53e-17
5143.41 4.784e-17
5144.495 4.106e-17
5145.58 4.399e-17
5146.665 4.791e-17
5147.751 4.325e-17
5148.836 4.476e-17
5149.921 3.751e-17
5151.006 4.006e-17
5152.091 4.998e-17
5153.176 4.462e-17
5154.261 1.85e-17
5155.346 3.996e-17
5156.431 3.811e-17
5157.516 4.462e-17
5158.601 5.728e-17
5159.686 3.897e-17
5160.771 3.658e-17
5161.856 4.407e-17
5162.941 5.041e-17
5164.026 3.014e-17
5165.111 3.774e-17
5166.195 5.275e-17
5167.28 4.989e-17
5168.365 3.732e-17
5169.45 6.03e-17
5170.534 4.888e-17
5171.619 4.472e-17
5172.704 3.724e-17
5173.789 4.628e-17
5174.873 4.063e-17
5175.958 3.724e-17
5177.042 3.93e-17
5178.127 4.031e-17
5179.212 5.951e-17
5180.296 3.041e-17
5181.381 2.744e-17
5182.465 3.371e-17
5183.55 4.142e-17
5184.634 5.766e-17
5185.718 5.132e-17
5186.803 4.324e-17
5187.887 3.964e-17
5188.972 3.851e-17
5190.056 2.569e-17
5191.14 6.055e-17
5192.225 2.84e-17
5193.309 3.152e-17
5194.393 5.101e-17
5195.477 4.936e-17
5196.562 4.073e-17
5197.646 4.331e-17
5198.73 5.282e-17
5199.814 3.964e-17
5200.898 4.81e-17
5201.982 3.539e-17
5203.066 5.344e-17
5204.15 6.399e-17
5205.234 2.666e-17
5206.318 3.512e-17
5207.402 4.127e-17
5208.486 5.116e-17
5209.57 5.758e-17
5210.654 5.291e-17
5211.738 5.291e-17
5212.822 4.062e-17
5213.906 5.358e-17
5214.99 3.835e-17
5216.073 3.408e-17
5217.157 4.771e-17
5218.241 3.643e-17
5219.325 3.68e-17
5220.408 3.39e-17
5221.492 4.159e-17
5222.576 4.51e-17
5223.659 2.896e-17
5224.743 4.869e-17
5225.826 4.363e-17
5226.91 3.153e-17
5227.994 4.636e-17
5229.077 4.217e-17
5230.161 4.008e-17
5231.244 5.055e-17
5232.327 4.307e-17
5233.411 2.091e-17
5234.494 4.097e-17
5235.578 3.174e-17
5236.661 3.546e-17
5237.744 3.662e-17
5238.828 3.641e-17
5239.911 3.875e-17
5240.994 3.536e-17
5242.077 5.001e-17
5243.16 3.359e-17
5244.244 4.154e-17
5245.327 2.791e-17
5246.41 4.796e-17
5247.493 4.961e-17
5248.576 4.003e-17
5249.659 6.463e-17
5250.742 3.936e-17
5251.825 4.744e-17
5252.908 3.382e-17
5253.991 3.964e-17
5255.074 3.796e-17
5256.157 5.643e-17
5257.24 3.394e-17
5258.323 4.801e-17
5259.405 4.597e-17
5260.488 4.393e-17
5261.571 7.228e-17
5262.654 2.949e-17
5263.736 5.462e-17
5264.819 3.675e-17
5265.902 3.741e-17
5266.984 5.596e-17
5268.067 3.272e-17
5269.15 5.994e-17
5270.232 4.453e-17
5271.315 4.308e-17
5272.397 5.498e-17
5273.48 3.998e-17
5274.562 4.088e-17
5275.645 4.496e-17
5276.727 3.589e-17
5277.81 5.781e-17
5278.892 3.059e-17
5279.974 5.588e-17
5281.057 4.287e-17
5282.139 4.717e-17
5283.221 4.498e-17
5284.303 3.663e-17
5285.386 5.446e-17
5286.468 2.549e-17
5287.55 5.689e-17
5288.632 3.768e-17
5289.714 4.791e-17
5290.796 2.007e-17
5291.878 3.461e-17
5292.96 5.726e-17
5294.042 2.838e-17
5295.124 3.496e-17
5296.206 3.079e-17
5297.288 3.653e-17
5298.37 4.602e-17
5299.452 4.392e-17
5300.534 4.633e-17
5301.615 4.672e-17
5302.697 3.382e-17
5303.779 4.354e-17
5304.861 3.92e-17
5305.942 5.153e-17
5307.024 3.021e-17
5308.106 4.535e-17
5309.187 2.556e-17
5310.269 2.354e-17
5311.35 2.027e-17
5312.432 2.214e-17
5313.514 4.567e-17
5314.595 3.451e-17
5315.676 4.658e-17
5316.758 2.922e-17
5317.839 2.635e-17
5318.921 2.631e-17
5320.002 3.198e-17
5321.083 3.458e-17
5322.165 2.227e-17
5323.246 5.84e-17
5324.327 3.773e-17
5325.408 3.353e-17
5326.489 3.596e-17
5327.571 2.003e-17
5328.652 2.937e-17
5329.733 2.287e-17
5330.814 5.142e-17
5331.895 4.502e-17
5332.976 2.646e-17
5334.057 4.606e-17
5335.138 3.734e-17
5336.219 4.282e-17
5337.3 4.477e-17
5338.381 5.534e-17
5339.461 4.036e-17
5340.542 5.279e-17
5341.623 4.901e-17
5342.704 4.145e-17
5343.784 3.375e-17
5344.865 3.608e-17
5345.946 4.793e-17
5347.026 2.668e-17
5348.107 3.622e-17
5349.188 4.381e-17
5350.268 4.761e-17
5351.349 3.353e-17
5352.429 7.175e-17
5353.51 5.426e-17
5354.59 3.858e-17
5355.671 4.831e-17
5356.751 4.734e-17
5357.831 4.174e-17
5358.912 2.802e-17
5359.992 1.777e-17
5361.072 4.768e-17
5362.152 3.399e-17
5363.233 4.694e-17
5364.313 3.352e-17
5365.393 4.477e-17
5366.473 3.395e-17
5367.553 6.606e-17
5368.633 3.244e-17
5369.713 5.289e-17
5370.793 5.321e-17
5371.873 3.103e-17
5372.953 4.027e-17
5374.033 4.856e-17
5375.113 4.603e-17
5376.193 4.715e-17
5377.272 5.296e-17
5378.352 4.795e-17
5379.432 4.626e-17
5380.512 4.168e-17
5381.591 2.105e-17
5382.671 4.851e-17
5383.751 4.468e-17
5384.83 2.663e-17
5385.91 4.364e-17
5386.989 5.237e-17
5388.069 2.614e-17
5389.148 2.83e-17
5390.228 2.973e-17
5391.307 2.935e-17
5392.387 4.144e-17
5393.466 3.836e-17
5394.545 3.996e-17
5395.625 2.804e-17
5396.704 5.748e-17
5397.783 2.448e-17
5398.862 1.653e-17
5399.941 2.051e-17
5401.021 4.602e-17
5402.1 3.835e-17
5403.179 3.138e-17
5404.258 3.814e-17
5405.337 2.134e-17
5406.416 4.422e-17
5407.495 4.321e-17
5408.574 2.09e-17
5409.653 3.866e-18
5410.731 3.525e-17
5411.81 5.936e-17
5412.889 4.031e-17
5413.968 6.612e-17
5415.047 3.006e-17
5416.125 5.369e-18
5417.204 5.792e-17
5418.283 2.148e-17
5419.361 2.202e-17
5420.44 3.527e-17
5421.518 4.548e-17
5422.597 5.742e-17
5423.675 3.372e-17
5424.754 3.843e-17
5425.832 7.02e-17
5426.911 4.356e-17
5427.989 3.835e-17
5429.067 3.138e-17
5430.146 5.532e-17
5431.224 4.957e-17
5432.302 4.866e-17
5433.38 2.733e-17
5434.458 5.221e-17
5435.536 3.729e-17
5436.615 4.697e-17
5437.693 4.072e-17
5438.771 6.573e-17
5439.849 2.978e-17
5440.927 3.811e-17
5442.005 6.015e-17
5443.082 4.397e-17
5444.16 4.784e-17
5445.238 4.75e-17
5446.316 5.831e-17
5447.394 3.815e-17
5448.471 4.733e-17
5449.549 7.143e-17
5450.627 5.19e-17
5451.704 4.914e-17
5452.782 2.719e-17
5453.86 5.142e-17
5454.937 3.085e-17
5456.015 4.391e-17
5457.092 2.649e-17
5458.169 3.781e-17
5459.247 3.229e-17
5460.324 1.834e-17
5461.402 6.14e-17
5462.479 6.06e-17
5463.556 5.321e-17
5464.633 2.407e-17
5465.711 4.11e-17
5466.788 4.337e-17
5467.865 4.138e-17
5468.942 7.091e-17
5470.019 6.222e-17
5471.096 5.469e-17
5472.173 4.912e-17
5473.25 3.915e-17
5474.327 2.407e-17
5475.404 4.573e-17
5476.481 6.551e-17
5477.558 5.736e-17
5478.634 4.969e-17
5479.711 1.053e-17
5480.788 4.64e-17
5481.864 4.459e-17
5482.941 3.857e-17
5484.018 9.11e-17
5485.094 4.384e-17
5486.171 1.721e-17
5487.247 4.201e-17
5488.324 2.369e-17
5489.4 5.558e-17
5490.477 5.363e-17
5491.553 4.231e-17
5492.629 3.184e-17
5493.706 5.776e-17
5494.782 6.585e-17
5495.858 4.807e-17
5496.934 2.617e-17
5498.011 2.643e-17
5499.087 1.816e-18
5500.846 4.788e-17
5502.362 6.085e-17
5503.878 4.412e-17
5505.394 3.505e-17
5506.91 1.559e-17
5508.426 5.173e-17
5509.942 3.76e-17
5511.458 4.771e-17
5512.974 4.432e-17
5514.49 3.367e-17
5516.006 2.35e-17
5517.522 5.058e-17
5519.038 5.446e-17
5520.554 4.487e-17
5522.07 4.738e-17
5523.586 3.916e-17
5525.102 4.456e-17
5526.618 3.86e-17
5528.134 4.007e-17
5529.65 3.246e-17
5531.166 5.905e-17
5532.682 6.023e-17
5534.198 6.081e-17
5535.714 4.575e-17
5537.23 3.169e-17
5538.746 4.668e-17
5540.262 4.255e-17
5541.778 5.038e-17
5543.294 4.398e-17
5544.81 4.839e-17
5546.326 2.031e-17
5547.842 4.121e-17
5549.358 4.942e-17
5550.874 4.447e-17
5552.39 4.04e-17
5553.906 7.993e-17
5555.422 6.088e-17
5556.938 4.911e-17
5558.454 2.794e-17
5559.97 4.737e-17
5561.486 4.546e-17
5563.002 4.495e-17
5564.518 5.639e-17
5566.034 2.452e-17
5567.55 5.776e-17
5569.066 4.042e-17
5570.582 4.563e-17
5572.098 1.071e-17
5573.614 7.575e-17
5575.13 8.119e-17
5576.646 3.288e-17
5578.162 6.16e-17
5579.678 5.014e-17
5581.194 3.919e-17
5582.71 3.184e-17
5584.226 4.904e-17
5585.742 5.842e-17
5587.258 3.489e-17
5588.774 3.627e-17
5590.29 4.08e-17
5591.806 3.9e-17
5593.322 5.055e-17
5594.838 6.334e-17
5596.354 4.642e-17
5597.87 4.143e-17
5599.386 4.974e-17
5600.902 5.439e-17
5602.418 5.335e-17
5603.934 5.756e-17
5605.45 3.702e-17
5606.966 5.438e-17
5608.482 4.216e-17
5609.998 5.424e-17
5611.514 4.085e-17
5613.03 5.776e-17
5614.546 4.083e-17
5616.062 2.982e-17
5617.578 2.425e-17
5619.094 5.896e-17
5620.61 2.725e-17
5622.126 1.362e-17
5623.642 3.949e-17
5625.158 6.291e-17
5626.674 5.49e-17
5628.19 1.6e-17
5629.706 1.776e-17
5631.222 4.934e-17
5632.738 1.632e-17
5634.254 6.611e-17
5635.77 2.774e-17
5637.286 3.98e-17
5638.802 4.246e-17
5640.318 4.098e-17
5641.834 4.777e-17
5643.35 3.373e-17
5644.866 5.536e-17
5646.382 3.129e-17
5647.898 2.378e-17
5649.414 6.065e-17
5650.93 4.793e-17
5652.446 6.316e-17
5653.962 4.526e-17
5655.478 2.082e-17
5656.994 4.444e-17
5658.51 4.232e-17
5660.026 5.947e-17
5661.542 4.552e-17
5663.058 4.102e-17
5664.574 3.744e-17
5666.09 3.022e-17
5667.606 3.882e-17
5669.122 2.989e-17
5670.638 3.012e-17
5672.154 4.657e-17
5673.67 4.226e-17
5675.186 4.162e-17
5676.702 4.662e-17
5678.218 4.139e-17
5679.734 4.273e-17
5681.25 4.741e-17
5682.766 3.323e-17
5684.282 3.949e-17
5685.798 5.845e-17
5687.314 7.155e-17
5688.83 4.169e-17
5690.346 3.079e-17
5691.862 3.99e-17
5693.378 3.631e-17
5694.894 6.238e-17
5696.41 5.327e-17
5697.926 4.703e-17
5699.442 5.147e-17
5701.097 4.527e-17
5702.616 4.575e-17
5704.135 3.822e-17
5705.654 3.233e-17
5707.173 3.822e-17
5708.692 3.982e-17
5710.211 4.638e-17
5711.73 2.077e-17
5713.249 5.934e-17
5714.768 4.247e-17
5716.287 4.204e-17
5717.806 3.309e-17
5719.325 3.502e-17
5720.844 4.214e-17
5722.364 4.362e-17
5723.883 4.702e-17
5725.402 4.117e-17
5726.921 5.77e-17
5728.441 3.591e-17
5729.96 2.814e-17
5731.479 3.279e-17
5732.999 3.873e-17
5734.518 4.992e-17
5736.038 3.391e-17
5737.557 4.667e-17
5739.077 4.438e-17
5740.596 3.294e-17
5742.116 5.025e-17
5743.635 3.481e-17
5745.155 2.879e-17
5746.675 3.078e-17
5748.194 3.79e-17
5749.714 2.917e-17
5751.234 3.747e-17
5752.753 2.297e-17
5754.273 2.518e-17
5755.793 4.542e-17
5757.313 3.194e-17
5758.833 2.55e-17
5760.353 3.103e-17
5761.873 1.982e-17
5763.392 4.275e-17
5764.912 2.431e-17
5766.432 2.729e-17
5767.952 2.856e-17
5769.472 3.6e-17
5770.992 1.245e-17
5772.513 4.098e-17
5774.033 5.376e-17
5775.553 3.815e-17
5777.073 4.913e-17
5778.593 3.203e-17
5780.113 3.743e-17
5781.634 2.627e-17
5783.154 3.009e-17
5784.674 3.6e-17
5786.195 2.666e-17
5787.715 3.289e-17
5789.235 2.223e-17
5790.756 2.08e-17
5792.276 4.611e-17
5793.797 2.364e-17
5795.317 3.759e-17
5796.838 1.314e-17
5798.358 4.018e-17
5799.879 3.025e-17
5801.399 1.982e-17
5802.92 1.415e-17
5804.44 3.172e-17
5805.961 5.176e-17
5807.482 3.3e-17
5809.003 2.264e-17
5810.523 2.746e-17
5812.044 3.34e-17
5813.565 2.299e-17
5815.086 1.769e-17
5816.607 3.814e-17
5818.127 2.243e-17
5819.648 5.916e-17
5821.169 2.944e-17
5822.69 3.953e-17
5824.211 2.511e-17
5825.732 2.741e-17
5827.253 3.584e-17
5828.774 3.783e-17
5830.295 3.362e-17
5831.816 3.936e-17
5833.338 4.236e-17
5834.859 4.228e-17
5836.38 9.752e-18
5837.901 3.52e-17
5839.422 4.008e-17
5840.944 4.014e-17
5842.465 3.63e-17
5843.986 3.743e-17
5845.507 3.31e-17
5847.029 3.141e-17
5848.55 1.819e-17
5850.072 2.38e-17
5851.593 4.42e-17
5853.115 1.69e-17
5854.636 3.603e-17
5856.158 3.71e-17
5857.679 5.976e-17
5859.201 1.766e-17
5860.722 4.197e-17
5862.244 3.013e-17
5863.765 3.046e-17
5865.287 1.914e-17
5866.809 5.393e-17
5868.331 5.512e-17
5869.852 6.015e-17
5871.374 1.222e-17
5872.896 4.498e-17
5874.418 5.584e-17
5875.94 4.836e-17
5877.461 2.937e-17
5878.983 4.985e-17
5880.505 3.667e-17
5882.027 5.388e-17
5883.549 1.259e-17
5885.071 2.977e-17
5886.593 5.896e-17
5888.115 4.538e-17
5889.637 4.319e-17
5891.159 8.216e-17
5892.681 4.82e-17
5894.204 6.283e-17
5895.726 5.89e-17
5897.248 3.914e-17
5898.77 2.162e-17
5900.292 4.385e-17
5901.815 3.396e-17
5903.337 5.222e-17
5904.859 3.672e-17
5906.382 6.189e-17
5907.904 6.521e-17
5909.426 5.548e-17
5910.949 4.107e-17
5912.471 5.407e-17
5913.994 4.269e-17
5915.516 4.406e-17
5917.039 5.896e-17
5918.561 5.122e-17
5920.084 2.696e-17
5921.607 4.784e-17
5923.129 3.824e-17
5924.652 7.121e-17
5926.175 3.945e-17
5927.697 3.553e-17
5929.22 5.954e-17
5930.743 4.793e-17
5932.265 1.967e-17
5933.788 5.473e-17
5935.311 4.381e-17
5936.834 5.522e-17
5938.357 3.962e-17
5939.88 4.6e-17
5941.403 2.738e-17
5942.926 3.88e-17
5944.449 4.263e-17
5945.972 5.194e-17
5947.495 3.253e-17
5949.018 6.442e-17
5950.541 6.231e-17
5952.064 3.736e-17
5953.587 4.134e-17
5955.11 5.657e-17
5956.633 4.559e-17
5958.156 4.688e-17
5959.68 3.114e-17
5961.203 5.641e-17
5962.726 5.604e-17
5964.25 4.846e-17
5965.773 5.423e-17
5967.296 4.188e-17
5968.82 6.385e-17
5970.343 4.305e-17
5971.866 5.648e-17
5973.39 6.136e-17
5974.913 5.7e-17
5976.437 3.703e-17
5977.96 5.4e-17
5979.484 7.111e-17
5981.007 1.853e-17
5982.531 5.453e-17
5984.055 3.815e-17
5985.578 5.783e-17
5987.102 4.778e-17
5988.626 3.688e-17
5990.149 6.423e-17
5991.673 5.774e-17
5993.197 6.747e-17
5994.721 4.995e-17
5996.244 4.084e-17
5997.768 6.243e-17
5999.292 5.786e-17
6000.816 3.864e-17
6002.34 3.347e-17
6003.864 4.638e-17
6005.388 4.697e-17
6006.912 5.645e-17
6008.436 4.88e-17
6009.96 5.636e-17
6011.484 2.873e-17
6013.008 4.951e-17
6014.532 5.151e-17
6016.056 6.084e-17
6017.58 5.075e-17
6019.104 3.992e-17
6020.629 5.238e-17
6022.153 7.066e-17
6023.677 7.914e-17
6025.201 5.573e-17
6026.726 5.363e-17
6028.25 7.131e-17
6029.774 5.949e-17
6031.299 4.71e-17
6032.823 4.935e-17
6034.348 3.864e-17
6035.872 5.204e-17
6037.396 5.031e-17
6038.921 3.374e-17
6040.445 6.395e-17
6041.97 5.779e-17
6043.495 4.988e-17
6045.019 6.173e-17
6046.544 6.535e-17
6048.068 6.848e-17
6049.593 4.248e-17
6051.118 6.197e-17
6052.642 4.692e-17
6054.167 5.011e-17
6055.692 7.107e-17
6057.217 4.781e-17
6058.742 4.766e-17
6060.266 4.993e-17
6061.791 4.634e-17
6063.316 3.419e-17
6064.841 5.839e-17
6066.366 3.083e-17
6067.891 4.969e-17
6069.416 5.838e-17
6070.941 4.762e-17
6072.466 5.245e-17
6073.991 5.866e-17
6075.516 5.994e-17
6077.041 5.065e-17
6078.566 4.996e-17
6080.091 3.367e-17
6081.616 5.741e-17
6083.142 3.456e-17
6084.667 6.26e-17
6086.192 2.389e-17
6087.717 5.623e-17
6089.243 4.352e-17
6090.768 4.408e-17
6092.293 6.112e-17
6093.819 5.814e-17
6095.344 4.471e-17
6096.869 5.478e-17
6098.395 3.591e-17
6099.92 3.949e-17
6101.446 5.13e-17
6102.971 5.514e-17
6104.497 4.176e-17
6106.022 5.321e-17
6107.548 5.942e-17
6109.073 5.981e-17
6110.599 4.083e-17
6112.125 5.464e-17
6113.65 4.4e-17
6115.176 4.253e-17
6116.702 5.674e-17
6118.227 3.628e-17
6119.753 5.367e-17
6121.279 5.924e-17
6122.805 5.22e-17
6124.33 4.961e-17
6125.856 4.286e-17
6127.382 4.925e-17
6128.908 4.668e-17
6130.434 3.862e-17
6131.96 4.073e-17
6133.486 4.582e-17
6135.012 3.636e-17
6136.538 5.902e-17
6138.064 2.462e-17
6139.59 4.097e-17
6141.116 4.883e-17
6142.642 5.137e-17
6144.168 4.395e-17
6145.694 5.057e-17
6147.22 3.332e-17
6148.747 6.642e-17
6150.273 3.349e-17
6151.799 4.383e-17
6153.325 3.364e-17
6154.852 5.503e-17
6156.378 5.291e-17
6157.904 2.983e-17
6159.431 5.213e-17
6160.957 2.321e-17
6162.483 4.505e-17
6164.01 2.361e-17
6165.536 4.389e-17
6167.063 3.387e-17
6168.589 5.569e-17
6170.116 3.68e-17
6171.642 4.623e-17
6173.169 4.345e-17
6174.695 4.562e-17
6176.222 5.437e-17
6177.749 4.553e-17
6179.275 2.661e-17
6180.802 4.27e-17
6182.329 3.358e-17
6183.855 4.173e-17
6185.382 4.841e-17
6186.909 2.598e-17
6188.436 3.026e-17
6189.962 3.185e-17
6191.489 4.245e-17
6193.016 2.851e-17
6194.543 4.212e-17
6196.07 4.513e-17
6197.597 3.316e-17
6199.124 4.463e-17
6200.651 2.627e-17
6202.178 4.767e-17
6203.705 3.963e-17
6205.232 3.36e-17
6206.759 4.083e-17
6208.286 3.296e-17
6209.813 2.909e-17
6211.34 2.925e-17
6212.867 4.487e-17
6214.395 2.869e-17
6215.922 1.884e-17
6217.449 2.728e-17
6218.976 4.693e-17
6220.503 3.806e-17
6222.031 3.293e-17
6223.558 4.514e-17
6225.085 4.59e-17
6226.613 3.099e-17
6228.14 4.454e-17
6229.667 2.979e-17
6231.195 2.799e-17
6232.722 3.172e-17
6234.25 4.328e-17
6235.777 3.93e-17
6237.305 1.829e-17
6238.832 4.492e-17
6240.36 4.377e-17
6241.887 2.178e-17
6243.415 5.123e-17
6244.943 2.783e-17
6246.47 2.886e-17
6247.998 2.999e-17
6249.526 3.158e-17
6251.053 3.937e-17
6252.581 2.344e-17
6254.109 1.952e-17
6255.637 2.866e-17
6257.164 2.778e-17
6258.692 2.202e-17
6260.22 4.429e-17
6261.748 3.521e-17
6263.276 3.946e-17
6264.804 3.191e-17
6266.332 4.123e-17
6267.86 2.652e-17
6269.388 3.255e-17
6270.916 3.692e-17
6272.444 3.806e-17
6273.972 2.947e-17
6275.5 3.029e-17
6277.028 4.879e-17
6278.556 2.673e-17
6280.084 4.247e-17
6281.612 2.425e-17
6283.141 4.385e-17
6284.669 4.128e-17
6286.197 2.68e-17
6287.725 3.478e-17
6289.253 4.445e-17
6290.782 3.864e-17
6292.31 3.821e-17
6293.838 4.11e-17
6295.367 3.741e-17
6296.895 4.92e-17
6298.424 3.497e-17
6299.952 3.196e-17
6301.48 7.062e-17
6303.009 1.984e-17
6304.537 1.816e-17
6306.066 1.899e-17
6307.594 3.148e-17
6309.123 4.582e-17
6310.652 3.08e-17
6312.18 5.519e-18
6313.709 3.848e-17
6315.237 4.62e-17
6316.766 4.33e-17
6318.295 4.586e-17
6319.823 3.784e-17
6321.352 2.949e-17
6322.881 3.648e-17
6324.41 3.696e-17
6325.938 4.327e-17
6327.467 3.621e-17
6328.996 3.058e-17
6330.525 3.128e-17
6332.054 1.912e-17
6333.583 2.572e-17
6335.112 3.039e-17
6336.641 3.631e-17
6338.17 3.226e-17
6339.699 2.458e-17
6341.228 3.036e-17
6342.757 3.101e-17
6344.286 1.378e-17
6345.815 2.994e-17
6347.344 2.94e-17
6348.873 3.58e-17
6350.402 3.505e-17
6351.931 2.863e-17
6353.46 3.771e-17
6354.99 3.625e-17
6356.519 2.086e-17
6358.048 3.742e-17
6359.577 3.88e-17
6361.107 3.1e-17
6362.636 4.254e-17
6364.165 5.017e-17
6365.695 3.491e-17
6367.224 3.572e-17
6368.753 1.599e-17
6370.283 2.299e-17
6371.812 3.785e-17
6373.342 3.483e-17
6374.871 3.491e-17
6376.401 3.609e-17
6377.93 3.923e-17
6379.46 3.121e-17
6380.989 5.102e-17
6382.519 2.727e-17
6384.048 3.637e-17
6385.578 2.217e-17
6387.108 3.764e-17
6388.637 3.503e-17
6390.167 4.816e-17
6391.697 4.062e-17
6393.227 5.243e-17
6394.756 3.607e-17
6396.286 6.379e-17
6397.816 3.237e-17
6399.346 3.532e-17
6400.876 2.673e-17
6402.405 5.072e-17
6403.935 4.229e-17
6405.465 2.827e-17
6406.995 3.627e-17
6408.525 2.425e-17
6410.055 3.422e-17
6411.585 4.095e-17
6413.115 3.458e-17
6414.645 3.27e-17
6416.175 3.814e-17
6417.705 2.022e-17
6419.235 3.499e-17
6420.765 3.728e-17
6422.296 3.711e-17
6423.826 2.693e-17
6425.356 4.728e-17
6426.886 3.5e-17
6428.416 2.771e-17
6429.947 2.693e-17
6431.477 1.723e-17
6433.007 2.043e-17
6434.537 3.897e-17
6436.068 3.391e-17
6437.598 3.941e-17
6439.128 3.35e-17
6440.659 3.902e-17
6442.189 2.837e-17
6443.72 4.585e-17
6445.25 2.891e-17
6446.781 4.099e-17
6448.311 2.586e-17
6449.842 4.066e-17
6451.372 3.411e-17
6452.903 2.956e-17
6454.433 4.294e-17
6455.964 2.853e-17
6457.494 3.797e-17
6459.025 3.318e-17
6460.556 2.394e-17
6462.086 3.909e-17
6463.617 3.247e-17
6465.148 2.723e-17
6466.679 2.585e-17
6468.209 2.562e-17
6469.74 3.886e-17
6471.271 3.149e-17
6472.802 4.908e-17
6474.333 3.486e-17
6475.863 5.131e-17
6477.394 3.104e-17
6478.925 4.162e-17
6480.456 2.97e-17
6481.987 3.394e-17
6483.518 3.177e-17
6485.049 3.536e-17
6486.58 3.535e-17
6488.111 3.555e-17
6489.642 4.247e-17
6491.173 3.527e-17
6492.704 3.269e-17
6494.235 2.879e-17
6495.766 4.618e-17
6497.298 1.872e-17
6498.829 2.924e-17
6500.36 3.543e-17
6501.891 3.774e-17
6503.422 3.404e-17
6504.954 3.61e-17
6506.485 4.581e-17
6508.016 2.034e-17
6509.547 2.67e-17
6511.079 3.013e-17
6512.61 3.31e-17
6514.141 3.066e-17
6515.673 3.896e-17
6517.204 3.266e-17
6518.736 2.582e-17
6520.267 2.885e-17
6521.799 3.722e-17
6523.33 4.417e-17
6524.862 3.955e-17
6526.393 2.014e-17
6527.925 3.556e-17
6529.456 1.676e-17
6530.988 3.414e-17
6532.519 3.513e-17
6534.051 2.972e-17
6535.583 5.803e-17
6537.114 4.564e-17
6538.646 2.695e-17
6540.178 2.998e-17
6541.71 4.196e-17
6543.241 2.254e-17
6544.773 3.621e-17
6546.305 4.203e-17
6547.837 2.374e-17
6549.368 2.908e-17
6550.9 4.724e-17
6552.432 3.76e-17
6553.964 3.958e-17
6555.496 3.923e-17
6557.028 3.019e-17
6558.56 2.941e-17
6560.092 3.272e-17
6561.624 3.449e-17
6563.156 3.703e-17
6564.688 2.476e-17
6566.22 3.218e-17
6567.752 2.754e-17
6569.284 2.397e-17
6570.816 4.369e-17
6572.348 3.118e-17
6573.88 3.191e-17
6575.413 3.294e-17
6576.945 2.748e-17
6578.477 2.913e-17
6580.009 2.526e-17
6581.541 2.606e-17
6583.074 2.923e-17
6584.606 3.156e-17
6586.138 2.464e-17
6587.671 3.558e-17
6589.203 3.942e-17
6590.735 3.483e-17
6592.268 3.241e-17
6593.8 3.66e-17
6595.333 2.155e-17
6596.865 2.799e-17
6598.397 3.502e-17
6599.93 3.067e-17
6601.462 4.881e-17
6602.995 2.399e-17
6604.527 3.975e-17
6606.06 4.933e-17
6607.593 3.459e-17
6609.125 2.684e-17
6610.658 2.243e-17
6612.19 4.04e-17
6613.723 3.116e-17
6615.256 2.531e-17
6616.788 1.535e-17
6618.321 2.935e-17
6619.854 2.869e-17
6621.387 3.272e-17
6622.919 2.333e-17
6624.452 2.283e-17
6625.985 2.508e-17
6627.518 2.476e-17
6629.051 2.762e-17
6630.584 3.47e-17
6632.116 1.544e-17
6633.649 2.136e-17
6635.182 5.138e-17
6636.715 1.68e-17
6638.248 3.256e-17
6639.781 3.408e-17
6641.314 3.433e-17
6642.847 3.07e-17
6644.38 2.302e-17
6645.913 3.86e-17
6647.446 2.527e-17
6648.979 4.169e-17
6650.513 3.368e-17
6652.046 2.449e-17
6653.579 2.659e-17
6655.112 2.588e-17
6656.645 2.372e-17
6658.178 2.997e-17
6659.712 3.356e-17
6661.245 4.003e-17
6662.778 3.667e-17
6664.311 4.185e-17
6665.845 1.978e-17
6667.378 3.33e-17
6668.911 1.573e-17
6670.445 2.884e-17
6671.978 2.081e-17
6673.512 3.092e-17
6675.045 1.863e-17
6676.578 1.788e-17
6678.112 2.33e-17
6679.645 2.111e-17
6681.179 3.941e-17
6682.712 2.64e-17
6684.246 2.729e-17
6685.779 2.86e-17
6687.313 1.975e-17
6688.847 3.758e-17
6690.38 3.656e-17
6691.914 2.687e-17
6693.447 4.185e-17
6694.981 3.684e-17
6696.515 3.61e-17
6698.049 2.797e-17
6699.582 2.22e-17
6701.116 3.202e-17
6702.65 2.152e-17
6704.184 3.689e-17
6705.717 1.868e-17
6707.251 3.849e-17
6708.785 2.084e-17
6710.319 4.392e-17
6711.853 2.34e-17
6713.387 3.967e-17
6714.92 2.632e-17
6716.454 2.214e-17
6717.988 3.372e-17
6719.522 2.831e-17
6721.056 3.024e-17
6722.59 3.379e-17
6724.124 3.433e-17
6725.658 2.827e-17
6727.192 1.679e-17
6728.726 3.379e-17
6730.261 2.979e-17
6731.795 2.472e-17
6733.329 3.827e-17
6734.863 2.835e-17
6736.397 2.63e-17
6737.931 3.209e-17
6739.465 3.51e-17
6741.0 2.457e-17
6742.534 3.15e-17
6744.068 3.872e-17
6745.602 2.85e-17
6747.137 3.372e-17
6748.671 3.223e-17
6750.205 3.024e-17
6751.74 2.937e-17
6753.274 3.14e-17
6754.808 3.126e-17
6756.343 3.695e-17
6757.877 3.546e-17
6759.412 3.101e-17
6760.946 3.686e-17
6762.481 1.258e-17
6764.015 4.511e-17
6765.55 1.812e-17
6767.084 3.349e-17
6768.619 3.777e-17
6770.153 2.727e-17
6771.688 2.823e-17
6773.222 2.618e-17
6774.757 2.88e-17
6776.292 3.368e-17
6777.826 3.29e-17
6779.361 3.543e-17
6780.896 2.928e-17
6782.43 3.483e-17
6783.965 2.786e-17
6785.5 3.826e-17
6787.035 3.56e-17
6788.569 3.146e-17
6790.104 3.822e-17
6791.639 3.838e-17
6793.174 3.423e-17
6794.709 2.781e-17
6796.244 4.065e-17
6797.779 2.397e-17
6799.313 3.63e-17
6800.848 2.202e-17
6802.383 3.727e-17
6803.918 3.668e-17
6805.453 3.721e-17
6806.988 3.279e-17
6808.523 3.494e-17
6810.058 3.276e-17
6811.593 3.404e-17
6813.128 4.016e-17
6814.663 3.29e-17
6816.199 2.166e-17
6817.734 3.939e-17
6819.269 2.654e-17
6820.804 3.32e-17
6822.339 3.004e-17
6823.874 3.827e-17
6825.41 4.844e-17
6826.945 3.743e-17
6828.48 3.907e-17
6830.015 3.141e-17
6831.551 2.602e-17
6833.086 2.325e-17
6834.621 4.87e-17
6836.156 2.705e-17
6837.692 3.822e-17
6839.227 3.513e-17
6840.763 4.256e-17
6842.298 2.699e-17
6843.833 3.288e-17
6845.369 3.383e-17
6846.904 3.547e-17
6848.44 2.941e-17
6849.975 3.97e-17
6851.511 1.783e-17
6853.046 2.945e-17
6854.582 2.71e-17
6856.117 2.162e-17
6857.653 2.875e-17
6859.189 2.151e-17
6860.724 2.783e-17
6862.26 3.313e-17
6863.795 2.511e-17
6865.331 4.664e-17
6866.867 2.581e-17
6868.402 1.245e-17
6869.938 3.324e-17
6871.474 3.485e-17
6873.01 4.597e-17
6874.545 3.048e-17
6876.081 3.848e-17
6877.617 2.701e-17
6879.153 3.451e-17
6880.689 4.261e-17
6882.225 3.917e-17
6883.76 2.264e-17
6885.296 4.196e-17
6886.832 3.128e-17
6888.368 3.773e-17
6889.904 2.942e-17
6891.44 4.137e-17
6892.976 2.995e-17
6894.512 3.805e-17
6896.048 3.513e-17
6897.584 4.022e-17
6899.12 1.929e-17
6900.656 3.013e-17
6902.192 3.905e-17
6903.728 4.024e-17
6905.264 3.185e-17
6906.8 3.185e-17
6908.337 3.114e-17
6909.873 3.318e-17
6911.409 4.409e-17
6912.945 3.529e-17
6914.481 3.687e-17
6916.018 2.879e-17
6917.554 3.239e-17
6919.09 2.611e-17
6920.626 2.234e-17
6922.163 4.279e-17
6923.699 3.557e-17
6925.235 2.776e-17
6926.772 3.885e-17
6928.308 2.083e-17
6929.844 3.894e-17
6931.381 2.731e-17
6932.917 3.375e-17
6934.454 4.034e-17
6935.99 5.051e-17
6937.527 5.829e-17
6939.063 5.347e-17
6940.6 4.418e-17
6942.136 2.74e-17
6943.673 3.04e-17
6945.209 3.054e-17
6946.746 4.043e-17
6948.282 3.612e-17
6949.819 3.834e-17
6951.355 4.266e-17
6952.892 2.936e-17
6954.429 2.467e-17
6955.965 5.36e-17
6957.502 3.935e-17
6959.039 2.335e-17
6960.575 3.752e-17
6962.112 3.579e-17
6963.649 2.525e-17
6965.186 2.617e-17
6966.723 2.199e-17
6968.259 4.079e-17
6969.796 4.477e-17
6971.333 4.338e-17
6972.87 3.747e-17
6974.407 3.881e-17
6975.944 3.462e-17
6977.48 4.467e-17
6979.017 3.077e-17
6980.554 4.14e-17
6982.091 1.855e-17
6983.628 3.453e-17
6985.165 3.68e-17
6986.702 3.643e-17
6988.239 3.458e-17
6989.776 4.686e-17
6991.313 2.876e-17
6992.85 5.293e-17
6994.387 4.191e-17
6995.924 2.338e-17
6997.462 4.021e-17
6998.999 2.118e-17
7000.536 4.224e-17
7002.073 4.356e-17
7003.61 3.864e-17
7005.147 4.761e-17
7006.685 3.31e-17
7008.222 4.043e-17
7009.759 3.283e-17
7011.296 2.847e-17
7012.833 4.047e-17
7014.371 3.757e-17
7015.908 3.482e-17
7017.445 3.389e-17
7018.983 2.561e-17
7020.52 5.307e-17
7022.057 3.419e-17
7023.595 1.429e-17
7025.132 5.308e-17
7026.67 2.736e-17
7028.207 3.773e-17
7029.744 3.75e-17
7031.282 3.019e-17
7032.819 4.587e-17
7034.357 3.292e-17
7035.894 2.442e-17
7037.432 2.961e-17
7038.97 3.51e-17
7040.507 2.432e-17
7042.045 4.038e-17
7043.582 3.496e-17
7045.12 4.53e-17
7046.657 2.694e-17
7048.195 4.179e-17
7049.733 3.97e-17
7051.27 4.228e-17
7052.808 4.099e-17
7054.346 3.45e-17
7055.883 2.868e-17
7057.421 3.466e-17
7058.959 2.01e-17
7060.497 4.035e-17
7062.035 3.075e-17
7063.572 1.725e-17
7065.11 1.588e-17
7066.648 2.435e-17
7068.186 2.891e-17
7069.724 2.573e-17
7071.262 4.062e-17
7072.799 3.819e-17
7074.337 2.252e-17
7075.875 2.601e-17
7077.413 2.818e-17
7078.951 2.893e-17
7080.489 3.003e-17
7082.027 3.124e-17
7083.565 2.507e-17
7085.103 2.636e-17
7086.641 3.272e-17
7088.179 2.072e-17
7089.717 2.945e-17
7091.255 2.738e-17
7092.793 3.7e-17
7094.331 3.584e-17
7095.87 3.528e-17
7097.408 3.003e-17
7098.946 3.1e-17
7100.484 3.184e-17
7102.022 3.105e-17
7103.56 3.421e-17
7105.099 2.866e-17
7106.637 3.684e-17
7108.175 4.314e-17
7109.713 3.174e-17
7111.252 2.144e-17
7112.79 3.82e-17
7114.328 3.641e-17
7115.867 2.963e-17
7117.405 2.352e-17
7118.943 3.69e-17
7120.482 2.91e-17
7122.02 3.409e-17
7123.558 2.68e-17
7125.097 2.544e-17
7126.635 2.497e-17
7128.174 3.139e-17
7129.712 3.467e-17
7131.251 3.649e-17
7132.789 2.928e-17
7134.328 3.177e-17
7135.866 2.087e-17
7137.405 3.691e-17
7138.943 1.971e-17
7140.482 2.954e-17
7142.02 3.12e-17
7143.559 3.744e-17
7145.098 2.114e-17
7146.636 2.802e-17
7148.175 2.459e-17
7149.713 3.612e-17
7151.252 2.911e-17
7152.791 4.274e-17
7154.33 3.179e-17
7155.868 3.785e-17
7157.407 3.591e-17
7158.946 3.332e-17
7160.484 3.218e-17
7162.023 3.601e-17
7163.562 2.938e-17
7165.101 1.31e-17
7166.64 3.347e-17
7168.178 2.465e-17
7169.717 3.193e-17
7171.256 2.169e-17
7172.795 3.036e-17
7174.334 1.999e-17
7175.873 3.378e-17
7177.412 3.824e-17
7178.951 3.916e-17
7180.49 2.817e-17
7182.029 3.27e-17
7183.568 2.351e-17
7185.107 2.494e-17
7186.646 3.715e-17
7188.185 2.92e-17
7189.724 3.328e-17
7191.263 3.114e-17
7192.802 2.65e-17
7194.341 4.242e-17
7195.88 2.162e-17
7197.419 2.893e-17
7198.958 3.302e-17
7200.497 3.447e-17
7202.037 2.502e-17
7203.576 3.791e-17
7205.115 3.217e-17
7206.654 3.229e-17
7208.193 3.484e-17
7209.733 2.439e-17
7211.272 2.277e-17
7212.811 2.42e-17
7214.35 3.065e-17
7215.89 2.733e-17
7217.429 2.624e-17
7218.968 1.397e-17
7220.508 2.936e-17
7222.047 2.35e-17
7223.586 2.454e-17
7225.126 2.899e-17
7226.665 3.613e-17
7228.204 1.64e-17
7229.744 3.59e-17
7231.283 1.737e-17
7232.823 2.247e-17
7234.362 2.062e-17
7235.902 4.211e-17
7237.441 3.442e-17
7238.981 3.366e-17
7240.52 3.628e-17
7242.06 1.175e-17
7243.599 2.733e-17
7245.139 2.303e-17
7246.678 4.319e-17
7248.218 1.549e-17
7249.758 1.805e-17
7251.297 2.252e-17
7252.837 3.81e-17
7254.377 2.82e-17
7255.916 3.301e-17
7257.456 2.256e-17
7258.996 2.201e-17
7260.535 2.128e-17
7262.075 2.646e-17
7263.615 1.961e-17
7265.154 3.861e-17
7266.694 2.484e-17
7268.234 1.778e-17
7269.774 2.449e-17
7271.314 1.662e-17
7272.853 4.087e-17
7274.393 2.467e-17
7275.933 4.953e-17
7277.473 3.971e-17
7279.013 2.946e-17
7280.553 2.566e-17
7282.093 2.346e-17
7283.633 3.227e-17
7285.172 3.227e-17
7286.712 2.964e-17
7288.252 2.338e-17
7289.792 3.499e-17
7291.332 3.04e-17
7292.872 3.344e-17
7294.412 1.839e-17
7295.952 2.832e-17
7297.492 2.29e-17
7299.032 2.109e-17
7300.572 2.433e-17
7302.113 1.819e-17
7303.653 2.158e-17
7305.193 2.925e-17
7306.733 2.129e-17
7308.273 1.901e-17
7309.813 2.211e-17
7311.353 1.394e-17
7312.894 3.577e-17
7314.434 4.179e-17
7315.974 3.063e-17
7317.514 4.762e-17
7319.054 1.974e-17
7320.595 1.389e-17
7322.135 2.422e-17
7323.675 1.541e-17
7325.215 2.079e-17
7326.756 2.545e-17
7328.296 2.29e-17
7329.836 2.998e-17
7331.377 2.423e-17
7332.917 3.502e-17
7334.457 1.672e-17
7335.998 1.804e-17
7337.538 1.336e-17
7339.079 3.562e-17
7340.619 2.82e-17
7342.159 3.709e-17
7343.7 1.678e-17
7345.24 2.161e-17
7346.781 2.014e-17
7348.321 2.739e-17
7349.862 1.828e-17
7351.402 2.96e-17
7352.943 1.65e-17
7354.483 2.116e-17
7356.024 2.651e-17
7357.565 2.467e-17
7359.105 1.786e-17
7360.646 3.34e-17
7362.186 3.388e-17
7363.727 2.44e-17
7365.268 2.525e-17
7366.808 1.328e-17
7368.349 2.347e-17
7369.89 1.726e-17
7371.43 3.438e-17
7372.971 2.891e-17
7374.512 1.594e-17
7376.052 1.789e-17
7377.593 2.675e-17
7379.134 1.466e-17
7380.675 3.107e-17
7382.215 3.134e-17
7383.756 2.001e-17
7385.297 2.395e-17
7386.838 1.588e-17
7388.379 1.52e-17
7389.92 2.707e-17
7391.46 2.617e-17
7393.001 2.329e-17
7394.542 3.326e-17
7396.083 3.027e-17
7397.624 2.527e-17
7399.165 2.051e-17
7400.706 2.531e-17
7402.247 3.272e-17
7403.788 2.357e-17
7405.329 2.17e-17
7406.87 2.352e-17
7408.411 2.24e-17
7409.952 1.96e-17
7411.493 2.323e-17
7413.034 2.052e-17
7414.575 2.449e-17
7416.116 1.758e-17
7417.657 1.778e-17
7419.198 2.52e-17
7420.739 2.832e-17
7422.28 3.058e-17
7423.821 1.453e-17
7425.363 2.602e-17
7426.904 1.586e-17
7428.445 3.212e-17
7429.986 2.592e-17
7431.527 1.726e-17
7433.069 2.151e-17
7434.61 2.273e-17
7436.151 2.102e-17
7437.692 1.448e-17
7439.233 1.955e-17
7440.775 2.439e-17
7442.316 2.8e-17
7443.857 3.223e-17
7445.399 2.721e-17
7446.94 2.602e-17
7448.481 1.774e-17
7450.023 2.516e-17
7451.564 2.02e-17
7453.105 2.666e-17
7454.647 1.548e-17
7456.188 1.426e-17
7457.73 2.948e-17
7459.271 2.309e-17
7460.812 1.745e-17
7462.354 3.021e-17
7463.895 2.472e-17
7465.437 1.285e-17
7466.978 2.638e-17
7468.52 2.465e-17
7470.061 1.874e-17
7471.603 2.458e-17
7473.144 2.985e-17
7474.686 1.519e-17
7476.227 1.877e-17
7477.769 2.879e-17
7479.311 1.62e-17
7480.852 3.197e-17
7482.394 2.113e-17
7483.935 2.004e-17
7485.477 2.589e-17
7487.019 1.847e-17
7488.56 2.135e-17
7490.102 1.843e-17
7491.644 2.789e-17
7493.185 2.16e-17
7494.727 1.796e-17
7496.269 2.008e-17
7497.811 2.097e-17
7499.352 2.406e-17
7500.894 3.055e-17
7502.436 1.584e-17
7503.978 2.655e-17
7505.519 1.79e-17
7507.061 2.179e-17
7508.603 2.043e-17
7510.145 1.08e-17
7511.687 2.503e-17
7513.229 2.815e-17
7514.77 2.736e-17
7516.312 2.048e-17
7517.854 2.361e-17
7519.396 5.719e-18
7520.938 2.863e-17
7522.48 2.133e-17
7524.022 1.461e-17
7525.564 2.898e-17
7527.106 1.37e-17
7528.648 2.436e-17
7530.19 3.21e-17
7531.732 1.545e-17
7533.274 1.752e-17
7534.816 2.367e-17
7536.358 2.198e-17
7537.9 1.682e-17
7539.442 2.579e-17
7540.984 6.006e-18
7542.526 2.558e-17
7544.068 1.421e-17
7545.61 1.759e-17
7547.152 2.316e-17
7548.694 2.142e-17
7550.237 1.733e-17
7551.779 1.916e-17
7553.321 2.832e-17
7554.863 2.095e-17
7556.405 1.11e-17
7557.947 2.408e-17
7559.49 1.304e-17
7561.032 2.673e-17
7562.574 1.063e-17
7564.116 1.769e-17
7565.659 2.648e-17
7567.201 1.333e-17
7568.743 2.852e-17
7570.285 2.601e-17
7571.828 2.245e-17
7573.37 2.305e-17
7574.912 1.912e-17
7576.455 8.951e-18
7577.997 2.01e-17
7579.539 2.066e-17
7581.082 1.462e-17
7582.624 2.67e-17
7584.167 1.503e-17
7585.709 2.766e-17
7587.251 1.163e-17
7588.794 1.803e-17
7590.336 1.729e-17
7591.879 1.981e-17
7593.421 1.935e-17
7594.964 1.176e-17
7596.506 1.315e-17
7598.049 2.205e-17
7599.591 8.08e-18
7601.134 4.813e-17
7602.676 -1.957e-17
7604.219 8.862e-18
7605.761 3.61e-17
7607.304 -1.548e-17
7608.846 -5.627e-18
7610.389 2.213e-17
7611.932 2.589e-19
7613.474 4.502e-17
7615.017 3.282e-17
7616.56 4.546e-17
7618.102 2.197e-17
7619.645 3.248e-17
7621.187 7.551e-18
7622.73 2.432e-17
7624.273 4.411e-18
7625.816 3.829e-17
7627.358 1.236e-17
7628.901 -8.643e-19
7630.444 2.604e-17
7631.986 -1.052e-17
7633.529 2.575e-17
7635.072 2.928e-17
7636.615 2.237e-18
7638.158 1.706e-17
7639.7 2.582e-17
7641.243 2.923e-17
7642.786 7.385e-18
7644.329 -1.145e-18
7645.872 1.399e-17
7647.415 1.329e-17
7648.957 1.871e-17
7650.5 2.154e-17
7652.043 8.57e-18
7653.586 2.706e-17
7655.129 1.189e-17
7656.672 1.725e-17
7658.215 1.415e-17
7659.758 1.533e-17
7661.301 2.418e-17
7662.844 6.401e-18
7664.387 1.97e-17
7665.93 2.537e-17
7667.473 1.114e-17
7669.016 1.67e-17
7670.559 1.338e-17
7672.102 1.939e-17
7673.645 1.266e-17
7675.188 1.525e-17
7676.731 2.065e-17
7678.274 1.789e-17
7679.817 2.715e-17
7681.36 2.722e-17
7682.903 1.099e-17
7684.446 7.159e-18
7685.989 3.648e-17
7687.533 2.37e-17
7689.076 1.037e-17
7690.619 3.419e-17
7692.162 2.015e-17
7693.705 1.524e-17
7695.248 1.293e-17
7696.792 2.868e-17
7698.335 1.518e-17
7699.878 2.622e-17
7701.421 6.697e-18
7702.965 2.419e-17
7704.508 1.427e-17
7706.051 2.82e-17
7707.594 1.883e-17
7709.138 9.151e-18
7710.681 1.092e-17
7712.224 2.902e-17
7713.768 3.21e-17
7715.311 3.733e-17
7716.854 3.011e-17
7718.398 2.752e-17
7719.941 1.251e-17
7721.484 2.229e-17
7723.028 3.117e-17
7724.571 1.765e-17
7726.115 2.639e-17
7727.658 2.786e-17
7729.201 2.538e-17
7730.745 1.699e-17
7732.288 2.702e-17
7733.832 1.331e-17
7735.375 2.836e-17
7736.919 2.498e-17
7738.462 2.358e-17
7740.006 1.523e-17
7741.549 1.513e-17
7743.093 1.885e-17
7744.636 1.059e-17
7746.18 1.492e-17
7747.723 2.968e-17
7749.267 2.986e-17
7750.81 2.039e-17
7752.354 2.399e-17
7753.897 1.799e-17
7755.441 1.049e-17
7756.985 1.826e-17
7758.528 2.466e-17
7760.072 2.048e-17
7761.616 2.361e-17
7763.159 3.035e-17
7764.703 1.886e-17
7766.247 1.52e-17
7767.79 1.458e-17
7769.334 2.659e-17
7770.878 1.619e-17
7772.421 1.47e-17
7773.965 1.912e-17
7775.509 1.473e-17
7777.052 1.787e-17
7778.596 2.556e-17
7780.14 1.852e-17
7781.684 1.562e-17
7783.228 2.884e-17
7784.771 2.256e-17
7786.315 2.153e-17
7787.859 1.597e-17
7789.403 9.665e-18
7790.947 3.582e-17
7792.49 2.551e-17
7794.034 1.705e-17
7795.578 2.752e-17
7797.122 1.216e-17
7798.666 1.699e-17
7800.21 8.536e-18
7801.754 2.294e-17
7803.297 2.832e-17
7804.841 1.391e-17
7806.385 2.44e-17
7807.929 1.802e-17
7809.473 1.145e-17
7811.017 1.451e-17
7812.561 2.205e-17
7814.105 1.617e-17
7815.649 1.785e-17
7817.193 2.389e-18
7818.737 3.617e-17
7820.281 1.832e-17
7821.825 3.109e-17
7823.369 3.763e-17
7824.913 7.938e-18
7826.457 1.39e-17
7828.001 8.859e-18
7829.545 7.193e-18
7831.089 3.215e-17
7832.633 1.816e-17
7834.178 1.321e-17
7835.722 2.323e-17
7837.266 1.655e-17
7838.81 2.464e-17
7840.354 2.093e-17
7841.898 2.364e-17
7843.442 2.799e-17
7844.987 1.41e-17
7846.531 1.599e-17
7848.075 2.085e-17
7849.619 2.401e-17
7851.163 3.844e-17
7852.707 4.443e-17
7854.252 3.773e-17
7855.796 1.788e-17
7857.34 1.572e-17
7858.884 2.142e-17
7860.429 3.152e-17
7861.973 1.83e-17
7863.517 2.369e-17
7865.061 2.587e-17
7866.606 9.981e-18
7868.15 2.091e-17
7869.694 3.154e-17
7871.239 1.916e-17
7872.783 1.816e-17
7874.327 1.631e-17
7875.872 1.616e-17
7877.416 1.537e-17
7878.96 2.14e-17
7880.505 2.534e-17
7882.049 8.014e-18
7883.594 2.355e-17
7885.138 1.522e-17
7886.682 1.32e-17
7888.227 4.11e-18
7889.771 1.815e-17
7891.316 2.675e-17
7892.86 1.912e-17
7894.405 9.429e-18
7895.949 1.719e-17
7897.494 1.025e-18
7899.038 3.115e-17
7900.582 1.48e-17
7902.127 2.196e-17
7903.672 2.66e-17
7905.216 1.046e-17
7906.761 8.781e-18
7908.305 1.07e-17
7909.85 8.154e-18
7911.394 4.154e-17
7912.939 1.413e-17
7914.483 3.935e-18
7916.028 2.231e-18
7917.572 7.326e-18
7919.117 1.412e-17
7920.662 1.482e-17
7922.206 2.368e-17
7923.751 2.817e-17
7925.296 1.619e-17
7926.84 1.634e-17
7928.385 2.641e-17
7929.93 1.497e-17
7931.474 3.371e-17
7933.019 2.017e-17
7934.564 2.873e-17
7936.108 2.332e-17
7937.653 1.178e-17
7939.198 2.654e-17
7940.742 1.327e-17
7942.287 1.862e-17
7943.832 1.197e-17
7945.377 2.04e-17
7946.921 1.407e-17
7948.466 7.198e-18
7950.011 1.409e-17
7951.556 3.156e-17
7953.1 1.209e-17
7954.645 1.964e-17
7956.19 1.963e-17
7957.735 1.71e-17
7959.28 7.831e-18
7960.825 3.107e-17
7962.369 4.709e-17
7963.914 1.978e-17
7965.459 3.31e-17
7967.004 3.049e-17
7968.549 8.381e-18
7970.094 1.547e-17
7971.639 3.826e-17
7973.183 7.842e-18
7974.728 1.365e-17
7976.273 2.48e-17
7977.818 8.802e-18
7979.363 3.12e-17
7980.908 1.649e-17
7982.453 2.065e-17
7983.998 2.05e-17
7985.543 8.231e-18
7987.088 1.357e-17
7988.633 1.311e-17
7990.178 2.738e-17
7991.723 2.309e-17
7993.268 1.37e-17
7994.813 2.921e-17
7996.358 2.658e-17
7997.903 1.82e-18
7999.448 2.739e-17
8000.993 1.925e-17
8002.538 1.3e-17
8004.083 1.81e-17
8005.628 1.361e-17
8007.173 2.703e-17
8008.718 1.088e-17
8010.264 9.252e-18
8011.809 2.368e-17
8013.354 2.107e-17
8014.899 1.36e-17
8016.444 1.342e-17
8017.989 9.2e-19
8019.534 2.968e-17
8021.079 1.565e-17
8022.625 1.585e-17
8024.17 3.157e-17
8025.715 3.322e-17
8027.26 2.82e-17
8028.805 3.133e-17
8030.351 9.854e-18
8031.896 1.044e-17
8033.441 2.081e-17
8034.986 2.327e-17
8036.531 2.112e-17
8038.077 1.634e-17
8039.622 1.871e-17
8041.167 1.99e-17
8042.712 2.262e-17
8044.258 2.648e-17
8045.803 2.053e-17
8047.348 1.926e-17
8048.894 2.104e-17
8050.439 1.85e-17
8051.984 2.893e-17
8053.529 1.958e-17
8055.075 1.752e-17
8056.62 1.648e-17
8058.165 1.984e-17
8059.711 3.086e-17
8061.256 1.501e-17
8062.802 1.516e-17
8064.347 2.271e-17
8065.892 5.195e-18
8067.438 2.784e-17
8068.983 1.183e-17
8070.528 2.748e-17
8072.074 1.416e-17
8073.619 1.258e-17
8075.165 1.074e-17
8076.71 1.792e-17
8078.256 2.647e-17
8079.801 2.586e-17
8081.346 1.104e-17
8082.892 1.14e-17
8084.437 1.553e-17
8085.983 1.185e-17
8087.528 2.145e-17
8089.074 2.289e-17
8090.619 1.394e-17
8092.165 1.986e-17
8093.71 2.439e-17
8095.256 2.13e-17
8096.801 2.34e-17
8098.347 1.633e-17
8099.892 9.217e-18
8101.438 1.242e-17
8102.984 3.171e-17
8104.529 1.533e-17
8106.075 2.15e-18
8107.62 2.256e-17
8109.166 2.02e-17
8110.712 2.4e-17
8112.257 2.097e-17
8113.803 1.294e-17
8115.348 1.963e-17
8116.894 1.062e-17
8118.44 1.48e-17
8119.985 1.014e-17
8121.531 1.348e-17
8123.077 1.877e-17
8124.622 2.074e-17
8126.168 1.583e-17
8127.714 2.712e-17
8129.259 2.308e-17
8130.805 1.477e-17
8132.351 1.841e-17
8133.896 -1.427e-18
8135.442 2.837e-17
8136.988 1.329e-17
8138.533 2.925e-17
8140.079 1.993e-17
8141.625 1.316e-17
8143.171 2.875e-17
8144.716 1.172e-17
8146.262 1.992e-17
8147.808 2.292e-17
8149.354 8.823e-18
8150.899 1.042e-17
8152.445 1.38e-17
8153.991 1.419e-17
8155.537 1.129e-17
8157.083 6.242e-18
8158.628 2.215e-17
8160.174 1.059e-17
8161.72 1.113e-17
8163.266 1.457e-17
8164.812 1.677e-17
8166.358 1.636e-17
8167.903 8.329e-18
8169.449 2.14e-17
8170.995 2.434e-17
8172.541 1.77e-17
8174.087 1.422e-17
8175.633 1.673e-17
8177.179 8.378e-18
8178.725 1.294e-19
8180.271 2.674e-17
8181.816 1.322e-17
8183.362 1.493e-17
8184.908 2.123e-17
8186.454 1.242e-17
8188.0 1.612e-17
8189.546 1.729e-17
8191.092 8.994e-18
8192.638 3.331e-17
8194.184 1.303e-17
8195.73 1.841e-17
8197.276 1.629e-17
8198.822 8.966e-18
8200.368 1.46e-17
8201.914 1.908e-17
8203.46 1.712e-17
8205.006 4.55e-18
8206.552 1.057e-17
8208.098 1.034e-17
8209.644 1.501e-17
8211.19 1.414e-17
8212.736 1.537e-17
8214.282 1.889e-17
8215.828 8.854e-18
8217.374 3.629e-18
8218.92 2.139e-17
8220.466 2.058e-17
8222.013 1.216e-17
8223.559 2.975e-17
8225.105 5.649e-18
8226.651 6.136e-18
8228.197 4.579e-18
8229.743 8.381e-18
8231.289 2.112e-17
8232.835 2.297e-17
8234.381 1.579e-17
8235.928 3.322e-17
8237.474 1.687e-17
8239.02 8.531e-18
8240.566 1.888e-17
8242.112 1.224e-17
8243.658 8.005e-18
8245.205 2.461e-17
8246.751 9.976e-18
8248.297 2.101e-17
8249.843 1.897e-17
8251.389 2.674e-17
8252.936 1.788e-17
8254.482 3.05e-17
8256.028 2.621e-17
8257.574 1.522e-17
8259.12 2.376e-17
8260.667 9.092e-18
8262.213 1.662e-17
8263.759 1.331e-17
8265.305 1.909e-17
8266.852 2.228e-17
8268.398 3.916e-17
8269.944 1.993e-17
8271.491 6.235e-18
8273.037 1.456e-17
8274.583 9.57e-18
8276.129 1.194e-17
8277.676 2.775e-17
8279.222 3.125e-17
8280.768 2.932e-17
8282.315 1.769e-17
8283.861 2.107e-17
8285.407 2.71e-17
8286.954 4.576e-17
8288.5 2.102e-17
8290.046 1.563e-17
8291.593 -1.418e-18
8293.139 1.184e-17
8294.685 1.649e-17
8296.232 2.464e-17
8297.778 3.261e-17
8299.325 3.1e-18
8300.871 2.831e-17
8302.417 2.725e-17
8303.964 5.675e-18
8305.51 2.27e-17
8307.057 5.296e-18
8308.603 3.688e-17
8310.149 2.276e-17
8311.696 1.6e-17
8313.242 2.115e-17
8314.789 1.738e-17
8316.335 2.744e-17
8317.882 2.229e-17
8319.428 1.827e-17
8320.975 2.51e-17
8322.521 1.671e-17
8324.068 1.031e-17
8325.614 1.677e-17
8327.161 1.911e-17
8328.707 1.933e-17
8330.254 1.95e-17
8331.8 2.121e-17
8333.347 2.502e-17
8334.893 2.582e-17
8336.44 8.295e-18
8337.986 2.793e-17
8339.533 1.266e-18
8341.079 2.074e-17
8342.626 1.647e-17
8344.172 2.586e-17
8345.719 3.412e-17
8347.265 3.76e-17
8348.812 -4.201e-18
8350.359 1.681e-17
8351.905 2.741e-17
8353.452 3.601e-17
8354.998 3.94e-17
8356.545 1.825e-17
8358.091 2.013e-17
8359.638 2.397e-17
8361.185 1.401e-17
8362.731 2.845e-17
8364.278 3.231e-17
8365.825 2.454e-17
8367.371 1.439e-17
8368.918 3.032e-17
8370.464 1.359e-17
8372.011 1.92e-17
8373.558 3.192e-17
8375.104 2.651e-17
8376.651 1.913e-17
8378.198 1.698e-17
8379.744 2.534e-17
8381.291 3.568e-17
8382.838 4.128e-17
8384.384 3.626e-17
8385.931 1.853e-17
8387.478 1.782e-17
8389.024 1.763e-17
8390.571 1.746e-17
8392.118 3.33e-17
8393.665 2.238e-17
8395.211 2.386e-17
8396.758 2.063e-17
8398.305 3.29e-17
8399.851 3.062e-18
8401.398 4.272e-17
8402.945 2.586e-17
8404.492 2.068e-17
8406.038 1.055e-17
8407.585 1.799e-17
8409.132 2.17e-17
8410.679 1.832e-17
8412.226 2.215e-17
8413.772 3.951e-17
8415.319 3.149e-17
8416.866 2.293e-17
8418.413 1.769e-17
8419.959 9.156e-18
8421.506 2.15e-17
8423.053 2.955e-17
8424.6 2.511e-17
8426.147 6.606e-18
8427.694 3.27e-17
8429.24 4.013e-17
8430.787 1.303e-17
8432.334 3.2e-17
8433.881 1.291e-17
8435.428 2.395e-17
8436.975 2.254e-17
8438.521 2.076e-17
8440.068 3.283e-17
8441.615 3.005e-17
8443.162 2.773e-17
8444.709 3.415e-17
8446.256 2.602e-17
8447.803 2.623e-17
8449.349 2.934e-17
8450.896 3.865e-17
8452.443 2.435e-17
8453.99 1.996e-17
8455.537 1.892e-17
8457.084 2.819e-17
8458.631 1.464e-17
8460.178 2.218e-17
8461.725 3.393e-17
8463.272 3.538e-17
8464.819 4.65e-17
8466.366 3.179e-17
8467.912 1.469e-17
8469.459 2.338e-17
8471.006 1.526e-17
8472.553 3.195e-17
8474.1 2.04e-17
8475.647 3.685e-17
8477.194 2.644e-17
8478.741 1.328e-17
8480.288 2.382e-17
8481.835 2.895e-17
8483.382 1.582e-17
8484.929 1.521e-17
8486.476 2.023e-17
8488.023 1.484e-17
8489.57 1.94e-17
8491.117 2.41e-17
8492.664 2.761e-17
8494.211 1.36e-17
8495.758 3.081e-17
8497.305 2.504e-17
8498.852 2.087e-17
8500.399 2.579e-17
8501.946 3.274e-17
8503.493 2.577e-17
8505.04 2.492e-17
8506.587 2.777e-17
8508.134 5.297e-18
8509.681 2.547e-17
8511.228 1.648e-17
8512.776 1.657e-17
8514.323 2.442e-17
8515.87 2.611e-17
8517.417 2.737e-17
8518.964 2.027e-17
8520.511 1.349e-17
8522.058 2.821e-17
8523.605 5.43e-18
8525.152 2.193e-17
8526.699 1.019e-17
8528.246 6.839e-18
8529.793 1.94e-17
8531.341 3.888e-17
8532.888 1.1e-17
8534.435 2.14e-17
8535.982 2.339e-17
8537.529 1.92e-17
8539.076 1.508e-17
8540.623 1.93e-17
8542.17 1.38e-17
8543.718 2.842e-17
8545.265 1.336e-17
8546.812 2.984e-17
8548.359 1.076e-17
8549.906 1.794e-17
8551.453 2.694e-17
8553.0 1.476e-17
8554.548 1.883e-17
8556.095 2.2e-17
8557.642 5.867e-18
8559.189 1.805e-17
8560.736 1.447e-17
8562.283 2.198e-17
8563.831 1.303e-17
8565.378 1.983e-17
8566.925 1.047e-17
8568.472 2.439e-17
8570.019 2.436e-17
8571.567 1.868e-17
8573.114 2.158e-17
8574.661 2.574e-17
8576.208 2.179e-17
8577.755 1.69e-17
8579.303 2.011e-17
8580.85 1.814e-17
8582.397 2.578e-17
8583.944 5.409e-18
8585.492 1.935e-17
8587.039 2.456e-17
8588.586 1.868e-17
8590.133 2.326e-17
8591.681 1.655e-17
8593.228 1.84e-17
8594.775 2.5e-17
8596.322 2.241e-17
8597.87 2.333e-17
8599.417 1.507e-17
8600.964 2.591e-17
8602.511 2.677e-17
8604.059 2.199e-17
8605.606 2.1e-17
8607.153 2.348e-17
8608.701 2.21e-17
8610.248 2.786e-17
8611.795 1.418e-17
8613.342 1.544e-17
8614.89 2.226e-17
8616.437 1.442e-17
8617.984 1.677e-17
8619.532 3.019e-17
8621.079 1.02e-17
8622.626 2.857e-17
8624.174 2.07e-17
8625.721 1.109e-17
8627.268 3.482e-17
8628.816 1.644e-17
8630.363 3.084e-17
8631.91 2.054e-17
8633.458 2.783e-17
8635.005 2.645e-17
8636.552 2.722e-17
8638.1 3.226e-17
8639.647 2.813e-17
8641.194 1.611e-17
8642.742 2.265e-17
8644.289 1.598e-17
8645.836 1.684e-17
8647.384 7.399e-18
8648.931 2.903e-17
8650.478 2.78e-17
8652.026 1.11e-17
8653.573 1.815e-17
8655.121 1.559e-17
8656.668 2.03e-17
8658.215 2.644e-17
8659.763 3.688e-17
8661.31 3.481e-17
8662.857 2.86e-17
8664.405 2.083e-17
8665.952 2.341e-17
8667.5 1.286e-17
8669.047 2.21e-17
8670.594 2.029e-17
8672.142 1.79e-17
8673.689 1.29e-17
8675.237 1.648e-17
8676.784 1.902e-17
8678.332 1.676e-17
8679.879 1.55e-17
8681.426 -3.783e-18
8682.974 2.132e-17
8684.521 1.403e-17
8686.069 2.18e-17
8687.616 2.95e-17
8689.164 2.54e-17
8690.711 2.114e-17
8692.258 -2.567e-18
8693.806 2.764e-17
8695.353 8.601e-18
8696.901 1.006e-17
8698.448 2.89e-17
8699.996 3.25e-17
8701.543 2.419e-17
8703.091 9.76e-18
8704.638 1.99e-18
8706.186 1.425e-17
8707.733 2.075e-17
8709.28 2.281e-17
8710.828 1.571e-17
8712.375 1.086e-17
8713.923 2.508e-17
8715.47 2.025e-17
8717.018 1.991e-17
8718.565 2.16e-17
8720.113 2.455e-17
8721.66 1.279e-17
8723.208 2.419e-17
8724.755 2.525e-17
8726.303 1.955e-17
8727.85 2.106e-17
8729.398 2.873e-17
8730.945 2.098e-17
8732.493 2.23e-17
8734.04 2.211e-17
8735.588 2.409e-17
8737.135 1.082e-17
8738.683 2.005e-17
8740.23 1.556e-17
8741.778 1.518e-17
8743.325 1.67e-17
8744.873 2.082e-17
8746.42 1.185e-17
8747.968 1.032e-17
8749.515 2.893e-17
8751.063 2.656e-17
8752.611 1.871e-17
8754.158 1.802e-17
8755.706 2.277e-17
8757.253 2.088e-17
8758.801 3.433e-17
8760.348 4.351e-17
8761.896 2.418e-17
8763.443 1.564e-17
8764.991 3.132e-17
8766.538 2.551e-17
8768.086 2.744e-17
8769.634 2.023e-17
8771.181 1.092e-17
8772.729 2.127e-17
8774.276 2.409e-17
8775.824 1.908e-17
8777.371 1.176e-17
8778.919 1.57e-17
8780.466 4.034e-17
8782.014 2.918e-18
8783.562 9.482e-18
8785.109 1.681e-17
8786.657 2.055e-17
8788.204 1.992e-17
8789.752 1.84e-17
8791.3 2.212e-17
8792.847 2.66e-17
8794.395 1.448e-17
8795.942 1.523e-17
8797.49 6.407e-18
8799.037 9.392e-18
8800.585 1.299e-17
8802.133 1.536e-17
8803.68 1.578e-17
8805.228 1.376e-17
8806.775 8.761e-18
8808.323 1.255e-17
8809.871 1.746e-17
8811.418 1.431e-17
8812.966 1.146e-17
8814.513 1.897e-17
8816.061 2.558e-17
8817.609 9.504e-18
8819.156 1.413e-17
8820.704 8.248e-18
8822.251 5.812e-18
8823.799 2.53e-17
8825.347 6.259e-17
8826.894 1.644e-17
8828.442 4.827e-17
8829.99 2.15e-17
8831.537 -6.879e-18
8833.085 2.681e-17
8834.632 3.703e-17
8836.18 1.798e-17
8837.728 3.017e-17
8839.275 1.708e-17
8840.823 1.93e-17
8842.371 8.202e-18
8843.918 2.308e-17
8845.466 2.008e-17
8847.014 3.299e-17
8848.561 3.911e-18
8850.109 -1.654e-18
8851.656 2.67e-17
8853.204 1.715e-17
8854.752 1.124e-17
8856.299 2.372e-17
8857.847 1.331e-17
8859.395 2.112e-17
8860.942 2.106e-17
8862.49 6.935e-20
8864.038 2.09e-17
8865.585 1.786e-17
8867.133 1.14e-17
8868.681 2.798e-17
8870.228 2.577e-17
8871.776 1.792e-17
8873.324 1.847e-17
8874.871 2.336e-17
8876.419 2.049e-17
8877.967 2.282e-17
8879.514 1.558e-17
8881.062 5.745e-18
8882.61 1.305e-17
8884.157 4.868e-17
8885.705 4.116e-17
8887.253 3.493e-17
8888.8 2.418e-17
8890.348 1.84e-18
8891.896 1.241e-17
8893.443 1.4e-17
8894.991 1.625e-17
8896.539 8.971e-18
8898.086 2.028e-17
8899.634 1.428e-17
8901.182 2.734e-17
8902.729 2.757e-17
8904.277 3.254e-17
8905.825 9.077e-18
8907.372 -1.417e-18
8908.92 1.173e-17
8910.468 8.103e-18
8912.015 2.081e-17
8913.563 1.403e-17
8915.111 -3.115e-18
8916.658 2.272e-17
8918.206 4.788e-17
8919.754 2.332e-17
8921.301 3.062e-17
8922.849 2.356e-17
8924.397 2.709e-18
8925.944 1.957e-17
8927.492 1.208e-17
8929.04 2.18e-17
8930.588 2.928e-19
8932.135 1.182e-17
8933.683 9.71e-18
8935.231 2.426e-17
8936.778 1.179e-17
8938.326 1.719e-17
8939.874 6.707e-18
8941.421 3.62e-17
8942.969 3.407e-17
8944.517 3.678e-17
8946.064 2.353e-17
8947.612 3.995e-18
8949.16 1.927e-17
8950.708 1.595e-17
8952.255 1.623e-17
8953.803 2.518e-17
8955.351 3.64e-17
8956.898 2.588e-17
8958.446 3.806e-17
8959.994 3.622e-17
8961.541 3.032e-17
8963.089 3.376e-18
8964.637 1.696e-17
8966.185 1.91e-17
8967.732 1.755e-17
8969.28 1.524e-17
8970.828 3.636e-18
8972.375 6.385e-18
8973.923 1.454e-17
8975.471 1.881e-17
8977.018 1.538e-17
8978.566 1.134e-17
8980.114 4.458e-18
8981.662 1.138e-17
8983.209 1.27e-17
8984.757 1.809e-17
8986.305 1.283e-17
8987.852 8.557e-18
8989.4 2.138e-17
8990.948 1.531e-17
8992.496 8.201e-18
8994.043 1.041e-17
8995.591 1.641e-17
8997.139 1.69e-17
8998.686 1.347e-17
9000.234 9.822e-18
9001.782 -1.352e-18
9003.33 1.558e-17
9004.877 1.892e-17
9006.425 2.132e-18
9007.973 7.927e-18
9009.52 7.058e-18
9011.068 1.498e-17
9012.616 1.722e-17
9014.163 1.276e-17
9015.711 1.777e-17
9017.259 1.8e-17
9018.807 2.298e-18
9020.354 1.77e-17
9021.902 1.597e-17
9023.45 1.599e-17
9024.997 6.955e-18
9026.545 5.952e-18
9028.093 1.645e-17
9029.641 1.743e-17
9031.188 2.358e-17
9032.736 1.301e-17
9034.284 3.227e-17
9035.831 2.101e-17
9037.379 1.257e-17
9038.927 5.064e-18
9040.474 2.143e-17
9042.022 8.595e-18
9043.57 1.595e-18
9045.118 1.377e-17
9046.665 1.788e-17
9048.213 1.104e-17
9049.761 9.566e-18
9051.308 2.005e-17
9052.856 1.317e-17
9054.404 7.513e-18
9055.952 1.663e-17
9057.499 1.071e-17
9059.047 2.076e-17
9060.595 6.897e-18
9062.142 1.661e-17
9063.69 2.381e-17
9065.238 1.113e-17
9066.785 1.029e-17
9068.333 1.844e-17
9069.881 5.082e-18
9071.429 1.022e-17
9072.976 2.774e-17
9074.524 1.975e-17
9076.072 1.435e-17
9077.619 1.717e-17
9079.167 1.187e-17
9080.715 1.583e-18
9082.262 2.993e-17
9083.81 2.194e-17
9085.358 1.119e-17
9086.905 8.655e-18
9088.453 2.298e-17
9090.001 7.101e-18
9091.549 1.842e-17
9093.096 1.01e-17
9094.644 2.177e-17
9096.192 3.475e-18
9097.739 2.193e-17
9099.287 1.979e-17
9100.835 8.366e-18
9102.382 1.607e-17
9103.93 1.284e-17
9105.478 1.413e-17
9107.025 1.815e-17
9108.573 2.015e-17
9110.121 9.764e-18
9111.668 3.525e-18
9113.216 1.753e-17
9114.764 1.169e-17
9116.311 1.066e-17
9117.859 2.083e-17
9119.407 8.368e-18
9120.955 2.936e-17
9122.502 2.676e-17
9124.05 5.349e-18
9125.598 5.8e-18
9127.145 2.058e-17
9128.693 1.736e-17
9130.241 5.434e-18
9131.788 8.772e-18
9133.336 2.654e-17
9134.884 6.759e-18
9136.431 -2.3e-18
9137.979 1.747e-17
9139.527 1.137e-17
9141.074 1.966e-17
9142.622 9.416e-18
9144.17 1.142e-17
9145.717 1.358e-17
9147.265 6.283e-18
9148.813 1.221e-17
9150.36 2.702e-18
9151.908 1.372e-17
9153.455 3.285e-18
9155.003 1.68e-17
9156.551 1.313e-17
9158.098 2.687e-17
9159.646 2.107e-17
9161.194 1.344e-17
9162.741 1.94e-17
9164.289 1.247e-17
9165.837 1.426e-17
9167.384 7.729e-18
9168.932 1.38e-17
9170.48 -1.21e-18
9172.027 1.328e-17
9173.575 1.199e-17
9175.123 1.278e-17
9176.67 4.878e-18
9178.218 8.153e-18
9179.765 2.68e-17
9181.313 1.744e-17
9182.861 1.457e-17
9184.408 3.228e-18
9185.956 1.529e-17
9187.504 1.435e-17
9189.051 1.717e-17
9190.599 9.44e-18
9192.146 2.138e-17
9193.694 1.795e-17
9195.242 1.3e-17
9196.789 7.913e-18
9198.337 2.328e-17
9199.885 1.567e-17
9201.432 7.784e-18
9202.98 1.989e-17
9204.527 5.972e-18
9206.075 8.757e-18
9207.623 7.737e-18
9209.17 1.454e-17
9210.718 1.694e-17
9212.265 8.5e-18
9213.813 2.056e-17
9215.361 9.502e-18
9216.908 1.028e-17
9218.456 1.067e-17
9220.003 1.072e-17
9221.551 1.488e-17
9223.099 1.393e-17
9224.646 1.297e-17
9226.194 2.773e-17
9227.741 -1.554e-18
9229.289 2.48e-17
9230.837 1.253e-17
9232.384 1.058e-17
9233.932 2.539e-17
9235.479 5.059e-18
9237.027 2.022e-17
9238.574 8.221e-18
9240.122 1.159e-17
9241.67 1.37e-17
9243.217 1.404e-17
9244.765 1.592e-17
9246.312 1.553e-17
9247.86 7.828e-19
9249.407 2.526e-17
9250.955 9.898e-18
9252.502 1.634e-17
9254.05 1.801e-17
9255.598 7.943e-18
9257.145 1.698e-17
9258.693 2.001e-17
9260.24 1.356e-17
9261.788 1.96e-17
9263.335 2.308e-17
9264.883 2.03e-17
9266.43 1.468e-17
9267.978 1.137e-17
9269.525 1.275e-17
9271.073 1.26e-17
9272.621 1.532e-17
9274.168 1.438e-17
9275.716 1.723e-17
9277.263 8.502e-18
9278.811 2.054e-17
9280.358 1.491e-17
9281.906 8.888e-18
9283.453 5.788e-18
9285.001 2.581e-17
9286.548 1.494e-17
9288.096 5.877e-18
9289.643 1.768e-17
9291.191 1.198e-17
9292.738 1.184e-17
9294.286 1.929e-17
9295.833 1.709e-17
9297.381 8.75e-18
9298.928 1.61e-17
9300.476 8.509e-18
9302.023 -6.241e-18
9303.571 2.7e-17
9305.118 1.527e-17
9306.666 9.868e-18
9308.213 -3.166e-17
9309.761 1.624e-17
9311.308 4.628e-17
9312.856 -2.436e-17
9314.403 -3.194e-17
9315.95 1.924e-17
9317.498 -1.784e-17
9319.045 3.288e-18
9320.593 4.319e-17
9322.14 2.045e-17
9323.688 4.595e-17
9325.235 2.536e-17
9326.783 -2.862e-17
9328.33 2.828e-17
9329.878 7.876e-18
9331.425 1.175e-17
9332.972 6.539e-18
9334.52 9.948e-18
9336.067 8.102e-17
9337.615 5.548e-18
9339.162 7.215e-18
9340.71 3.45e-17
9342.257 4.119e-17
9343.804 -1.7e-17
9345.352 1.697e-17
9346.899 5.284e-17
9348.447 1.511e-17
9349.994 1.123e-17
9351.542 2.887e-17
9353.089 9.339e-18
9354.636 1.998e-17
9356.184 1.385e-17
9357.731 2.707e-17
9359.279 7.325e-18
9360.826 9.462e-18
9362.373 1.344e-18
9363.921 1.018e-17
9365.468 -1.544e-17
9367.015 1.503e-17
9368.563 7.427e-18
9370.11 -1.933e-17
9371.658 1.637e-17
9373.205 4.315e-17
9374.752 8.888e-17
9376.3 4.142e-17
9377.847 2.231e-17
9379.394 2.358e-17
9380.942 -3.409e-17
9382.489 2.241e-17
9384.036 -1.257e-17
9385.584 2.066e-17
9387.131 2.745e-17
9388.678 3.604e-18
9390.226 1.375e-17
9391.773 2.059e-17
9393.32 1.71e-17
9394.868 1.703e-17
9396.415 1.926e-17
9397.962 3.667e-19
9399.51 1.954e-17
9401.057 -1.445e-18
9402.604 1.431e-17
9404.152 3.096e-17
9405.699 2.095e-17
9407.246 2.817e-17
9408.794 8.015e-18
9410.341 2.394e-17
9411.888 -2.936e-18
9413.435 5.628e-19
9414.983 1.594e-17
9416.53 2.174e-17
9418.077 2.036e-17
9419.625 2.214e-17
9421.172 -3.348e-19
9422.719 1.06e-18
9424.266 1.047e-17
9425.814 1.075e-17
9427.361 1.616e-17
9428.908 1.816e-17
9430.455 2.195e-17
9432.003 -3.596e-19
9433.55 2.868e-17
9435.097 2.29e-18
9436.644 1.482e-17
9438.192 1.146e-17
9439.739 8.146e-18
9441.286 4.416e-17
9442.833 4.987e-17
9444.38 -4.863e-17
9445.928 -3.917e-18
9447.475 -1.351e-17
9449.022 4.294e-18
9450.569 1.637e-17
9452.117 -5.703e-18
9453.664 1.735e-17
9455.211 9.179e-18
9456.758 2.657e-17
9458.305 1.919e-17
9459.852 3.603e-17
9461.4 -1.536e-17
9462.947 1.904e-17
9464.494 -3.136e-18
9466.041 1.364e-17
9467.588 1.184e-17
9469.136 6.367e-18
9470.683 1.33e-17
9472.23 3.286e-18
9473.777 2.329e-17
9475.324 4.872e-17
9476.871 4.461e-17
9478.418 1.848e-17
9479.966 3.578e-17
9481.513 -9.523e-18
9483.06 3.472e-17
9484.607 1.702e-17
9486.154 1.814e-17
9487.701 1.635e-17
9489.248 3.909e-19
9490.795 1.637e-17
9492.343 2.095e-17
9493.89 7.032e-18
9495.437 2.421e-17
9496.984 6.978e-18
9498.531 3.437e-17
9500.078 3.726e-19
9501.625 1.019e-16
9503.172 6.558e-17
9504.719 4.496e-17
9506.266 1.503e-17
9507.813 1.631e-17
9509.36 2.047e-17
9510.907 2.124e-17
9512.455 2.495e-17
9514.002 3.085e-18
9515.549 1.457e-17
9517.096 2.046e-17
9518.643 2.716e-17
9520.19 2.237e-17
9521.737 2.585e-17
9523.284 6.53e-18
9524.831 2.574e-17
9526.378 1.618e-18
9527.925 6.826e-18
9529.472 2.366e-17
9531.019 2.863e-18
9532.566 1.569e-17
9534.113 8.801e-18
9535.66 3.019e-18
9537.207 9.469e-19
9538.754 2.662e-17
9540.301 1.048e-17
9541.848 1.324e-17
9543.395 1.418e-17
9544.942 -2.451e-18
9546.489 3.981e-17
9548.036 4.738e-18
9549.583 1.41e-17
9551.13 3.021e-17
9552.677 1.138e-17
9554.223 4.924e-18
9555.77 9.134e-18
9557.317 2.615e-17
9558.864 1.964e-18
9560.411 4.015e-17
9561.958 1.07e-17
9563.505 1.16e-17
9565.052 1.316e-17
9566.599 2.735e-17
9568.146 6.088e-17
9569.693 1.965e-17
9571.24 -1.044e-18
9572.786 1.904e-17
9574.333 1.209e-17
9575.88 3.969e-18
9577.427 1.469e-17
9578.974 9.976e-18
9580.521 1.426e-17
9582.068 1.359e-17
9583.614 1.513e-17
9585.161 2.484e-17
9586.708 2.48e-17
9588.255 2.453e-17
9589.802 6.454e-18
9591.349 1.959e-17
9592.896 -1.136e-17
9594.442 2.466e-17
9595.989 6.277e-18
9597.536 2.147e-17
9599.083 2.491e-17
9600.63 -6.233e-18
9602.176 2.055e-17
9603.723 7.551e-18
9605.27 2.801e-17
9606.817 6.396e-18
9608.364 1.205e-17
9609.91 7.393e-18
9611.457 1.953e-17
9613.004 1.526e-17
9614.551 9.457e-18
9616.097 2.666e-17
9617.644 5.863e-19
9619.191 2.452e-17
9620.738 2.728e-17
9622.284 2.263e-17
9623.831 2.545e-17
9625.378 -2.414e-18
9626.925 -3.36e-18
9628.471 2.501e-17
9630.018 2.383e-17
9631.565 9.467e-18
9633.111 1.518e-17
9634.658 7.018e-18
9636.205 1.579e-17
9637.751 -1.2e-18
9639.298 1.701e-17
9640.845 2.01e-17
9642.391 3.329e-17
9643.938 4.003e-17
9645.485 6.334e-18
9647.031 2.597e-17
9648.578 3.627e-17
9650.125 1.42e-17
9651.671 1.389e-17
9653.218 2.767e-17
9654.765 2.498e-17
9656.311 1.582e-17
9657.858 3.201e-17
9659.405 2.44e-17
9660.951 3.785e-18
9662.498 1.985e-17
9664.044 1.105e-17
9665.591 2.268e-17
9667.138 -5.164e-18
9668.684 2.268e-17
9670.231 1.985e-17
9671.777 3.744e-17
9673.324 2.289e-17
9674.87 1.934e-17
9676.417 3.541e-18
9677.964 2.487e-17
9679.51 1.939e-17
9681.057 1.427e-17
9682.603 2.162e-17
9684.15 2.26e-17
9685.696 3.404e-17
9687.243 1.521e-17
9688.789 1.332e-17
9690.336 2.17e-17
9691.882 1.336e-17
9693.429 8.307e-18
9694.975 1.282e-17
9696.522 1.756e-17
9698.068 2.623e-17
9699.615 -5.697e-18
9701.161 2.699e-17
9702.708 1.231e-17
9704.254 2.455e-17
9705.801 3.154e-17
9707.347 9.883e-18
9708.893 2.31e-17
9710.44 7.699e-18
9711.986 1.276e-17
9713.533 2.221e-17
9715.079 1.725e-17
9716.626 1.276e-17
9718.172 3.78e-17
9719.718 2.043e-17
9721.265 -1.023e-18
9722.811 2.914e-17
9724.358 1.946e-17
9725.904 -2.238e-18
9727.45 1.933e-17
9728.997 2.442e-17
9730.543 8.87e-18
9732.089 1.136e-17
9733.636 1.457e-17
9735.182 2.094e-17
9736.728 1.099e-17
9738.275 2.324e-17
9739.821 1.603e-17
9741.367 1.262e-18
9742.914 -1.473e-17
9744.46 -8.505e-18
9746.006 2.022e-17
9747.553 1.064e-18
9749.099 1.441e-17
9750.645 1.267e-17
9752.191 1.788e-17
9753.738 8.933e-18
9755.284 -4.825e-18
9756.83 1.233e-17
9758.377 9.938e-18
9759.923 1.866e-17
9761.469 3.392e-17
9763.015 7.584e-18
9764.562 2.166e-17
9766.108 9.454e-18
9767.654 9.036e-18
9769.2 1.426e-17
9770.746 -1.728e-18
9772.293 1.98e-18
9773.839 6.521e-18
9775.385 1.634e-17
9776.931 -3.834e-18
9778.477 1.765e-17
9780.023 1.508e-17
9781.57 2.347e-17
9783.116 7.69e-18
9784.662 -8.313e-18
9786.208 1.171e-17
9787.754 2.591e-17
9789.3 -3.354e-18
9790.847 2.558e-17
9792.393 2.885e-17
9793.939 1.804e-17
9795.485 5.472e-18
9797.031 2.21e-17
9798.577 1.503e-17
9800.123 -8.112e-18
9801.669 2.755e-17
9803.215 2.012e-17
9804.761 1.224e-17
9806.307 5.983e-19
9807.853 1.097e-17
9809.4 5.599e-18
9810.946 1.702e-18
9812.492 6.4e-18
9814.038 1.61e-17
9815.584 2.907e-18
9817.13 9.811e-18
9818.676 -1.521e-18
9820.222 2.099e-17
9821.768 3.128e-18
9823.314 -5.6e-18
9824.86 1.512e-18
9826.406 1.371e-17
9827.952 9.246e-18
9829.498 1.099e-17
9831.044 1.065e-17
9832.59 2.571e-17
9834.135 2.246e-17
9835.681 2.243e-17
9837.227 1.746e-17
9838.773 1.697e-17
9840.319 1.884e-17
9841.865 1.059e-17
9843.411 -8.336e-18
9844.957 1.033e-17
9846.503 2.604e-17
9848.049 2.172e-18
9849.595 2.118e-17
9851.14 -2.838e-18
9852.686 2.169e-17
9854.232 2.886e-18
9855.778 6.124e-18
9857.324 3.261e-18
9858.87 7.155e-18
9860.416 1.719e-17
9861.961 2.532e-17
9863.507 5.282e-18
9865.053 1.027e-17
9866.599 1.676e-17
9868.145 1.122e-17
9869.69 -5.995e-18
9871.236 6.729e-18
9872.782 1.661e-17
9874.328 2.634e-17
9875.873 2.712e-17
9877.419 -4.551e-18
9878.965 -2.094e-18
9880.511 3.649e-18
9882.056 1.563e-18
9883.602 2.153e-17
9885.148 9.354e-18
9886.694 1.702e-17
9888.239 2.583e-17
9889.785 9.26e-18
9891.331 1.07e-17
9892.876 1.702e-17
9894.422 9.141e-18
9895.968 3.398e-17
9897.513 5.657e-17
9899.059 -6.459e-18
9900.605 7.518e-18
9902.15 6.639e-18
9903.696 -1.622e-17
9905.242 2.187e-17
9906.787 5.489e-18
9908.333 1.438e-17
9909.878 4.263e-18
9911.424 -8.772e-18
9912.97 5.375e-17
9914.515 1.601e-17
9916.061 1.464e-17
9917.606 7.49e-18
9919.152 -1.701e-18
9920.698 3.963e-18
9922.243 1.604e-17
9923.789 9.334e-18
9925.334 1.015e-17
9926.88 -1.752e-18
9928.425 1.9e-17
9929.971 1.009e-17
9931.516 9.194e-18
9933.062 3.896e-18
9934.607 -9.266e-19
9936.153 6.907e-18
9937.698 -2.175e-19
9939.244 3.862e-17
9940.789 -1.07e-17
9942.335 2.353e-17
9943.88 1.808e-17
9945.425 3.996e-17
9946.971 3.108e-18
9948.516 1.732e-17
9950.062 -2.598e-17
9951.607 -4.315e-18
9953.153 -2.582e-18
9954.698 -1.123e-17
9956.243 1.822e-17
9957.789 2.197e-17
9959.334 1.996e-17
9960.879 1.402e-17
9962.425 -8.95e-18
9963.97 1.94e-17
9965.515 2.98e-17
9967.061 -4.182e-19
9968.606 3.965e-18
9970.151 2.463e-17
9971.697 -2.06e-18
9973.242 4.479e-18
9974.787 -2.334e-18
9976.333 1.957e-17
9977.878 2.086e-17
9979.423 6.122e-18
9980.968 -6.253e-18
9982.514 -1.29e-18
9984.059 3.82e-17
9985.604 -1.181e-17
9987.149 1.901e-17
9988.695 2.926e-18
9990.24 9.03e-18
9991.785 1.419e-17
9993.33 1.55e-18
9994.875 1.96e-17
9996.421 3.396e-18
9997.966 9.586e-18
9999.511 -1.5e-17
