 texplosion  fnickel    Pspin  log(Bfield)      Mns  thetaPB   mejecta    kappa  kappagamma     vejecta  temperature    alpha  cutoff_wavelength  log(nhhost)      A_V         MJD0  kenergy  mnickel            TSD   log(L0)  Peak_mag     Peak_MJD  log(E_rad)  log(Peak_lum)  Rise_Time    E_fold  tau_1  delta_m15     r_peak     frac 
   -3.67181  0.04046   5.6714     14.07576  1.75281  1.26625   6.18408  0.03668     0.02541  4596.67118   8675.48751    1.594         3404.41596     18.21742  0.00092  58666.81819  0.77945  0.25019  3693214.04683  44.43779  18.18158  58708.55517    50.83547       44.07949   27.19709   41.5405   67.0     0.1893  -20.54253  0.95878 
   -3.27361  0.00103  5.77678     14.09743   1.8298  1.20905  11.77138  0.01702      0.0137  4550.28479   8774.41385  1.51232         3558.47149     19.33528  0.01202  58667.21639  1.45389  0.01212  3620132.13482  44.44915  18.15838     58708.41    50.85873       44.11236   26.32945  40.39832   68.0    0.19829  -20.55866  0.99798 
   -3.24889  0.09801  5.41314     14.06169  1.59154  1.27371   7.89999  0.02912     0.02019   4790.5656   8668.47226  1.48578         3440.70411     17.02645    6e-05  58667.24111   1.0815  0.77426  3259458.69224  44.49062  18.18007     58707.47     50.8412       44.08957   27.17053  40.69057   68.0    0.20344  -20.56404   0.8777 
   -3.56729  0.02505   5.5001      14.0862  1.71886  1.18206   7.14393  0.03384     0.02556  4620.57221   8684.27956  1.72383         3389.34185     18.51755  0.00183  58666.92271  0.90982  0.17892  3246347.56119  44.51195  18.17902     58708.41    50.83726       44.09102   27.17053   39.8849   65.5    0.19832  -20.58092  0.97115 
   -3.65716  0.00349   5.1236     13.97113   1.5541  1.45194  10.04376  0.02089     0.01816  4905.42462   8635.62955  1.36215         3519.00476     18.62439  0.00234  58666.83284  1.44171  0.03504  4326928.51188    44.405  18.17151  58708.55517    50.82954       44.08088   27.19709   41.4896   66.0    0.20169  -20.56523  0.99414 
   -3.54732  0.04781  5.44733     14.06914  1.61071  1.17475  11.82431  0.01946     0.01494  4655.90132   8532.90409  1.49061         3533.77775     16.99787    6e-05  58666.94268  1.52901  0.56533  3227951.23819  44.49457  18.16531     58708.49    50.83075       44.07644   28.02047  40.71713   67.5    0.19393   -20.5549  0.90795 
   -3.20531  0.00234  5.13989     14.00659  1.54957  1.18097   8.15918    0.027     0.02414  4730.02373   8631.93753   1.5578         3478.92745     17.10011    7e-05  58667.28469  1.08893   0.0191  3687755.91938  44.47039  18.15446     58708.41    50.86718       44.13891   25.40869  37.21116   65.5    0.20816  -20.56304  0.99677 
   -3.50984  0.00418   5.1355     14.04096  1.59612  1.13888   9.71467  0.02219     0.01693  4396.79737   8632.77043  1.66327         3434.47885     18.07215  0.00066  58666.98016  1.12028  0.04058  3236828.88008  44.54063  18.17099     58708.41    50.84989       44.10695   26.32945  40.39832   66.0    0.19944  -20.55784  0.99348 
   -3.41364  0.03139  5.79299      14.1373   1.8859  1.26707    7.0222  0.03539     0.02656  4914.33632   8627.04073  1.34833         3457.21811     19.48233  0.01687  58667.07636  1.01165   0.2204  3122798.78037  44.52402  18.16161  58708.55517    50.84456       44.09967   27.17053  39.55724   64.5     0.2007  -20.59076  0.96594 
   -3.60288   0.0066  5.15538     13.98646  1.58594  1.49287   6.71138   0.0348     0.02508  4527.27883   8575.97147  1.74417         3329.84238     17.44224  0.00015  58666.88712  0.82057  0.04431  4165818.79978  44.42491  18.15493  58708.55517    50.84566       44.09641   26.32945   40.6463   67.0    0.19818  -20.55122  0.99275 
   -3.58348  0.08154  5.18144     14.00393   1.5256  1.52015   6.46313  0.03521     0.03042  4672.32249   8744.45752  1.37925         3556.36934      17.6595  0.00025  58666.90652  0.84166  0.52698  3735038.66472  44.45109  18.17154     58708.47    50.86404       44.11605   26.32945  40.39832   65.5    0.19696  -20.54465   0.9152 
   -3.80501  0.03893   5.3492     14.09063  1.60493    0.934   5.50042  0.04015     0.02749  4681.25294   8664.07133  1.46629         3571.76127     16.30733    1e-05  58666.68499  0.71903  0.21415   2809223.5185  44.56914  18.16109     58708.41    50.83171       44.08087   27.17053  40.75917   67.5     0.1917  -20.55603  0.96396 
    -3.7341   0.0013   5.2867     14.05463  1.71641  1.40033   7.26693  0.03083     0.02239  4143.36795   8702.09686   1.5154         3725.44159     19.85146  0.03946   58666.7559  0.74419  0.00943  3463658.01104  44.51756  18.14638     58708.41    50.82654       44.08552   26.32945  40.39832   65.5    0.19958   -20.5871  0.99855 
   -3.83541  0.00108  5.82326     14.09728  1.87152  1.32954   5.52409  0.03994     0.03408  4993.59644   8565.99194  1.46365         3245.86323     16.81798    4e-05  58666.65459   0.8217  0.00595  3765236.89509  44.43491  18.18075  58708.55517    50.84462       44.10409   26.27633  40.45144   65.5    0.20204  -20.55011  0.99902 
   -3.70017  0.00137  6.42406     14.19967  2.12613  1.23296   8.55806  0.02746      0.0242   4700.7499   8534.11869   1.5397         3407.64821     16.73321    3e-05  58666.78983  1.12807  0.01172  3248436.57388  44.46914  18.16825     58708.41     50.8313        44.0902   27.17053  39.55724   67.0    0.20045  -20.55515  0.99807 
   -3.72645  0.08539  5.48487     14.07634  1.62444  1.28225   8.11398  0.03052     0.01993  4779.99101   8759.23117  1.45255         3537.39441     17.53824  0.00019  58666.76355   1.1059  0.69282  3192811.79657  44.49704   18.1763     58708.41    50.84176        44.0952   27.17053  40.37185   65.5    0.19758  -20.57043  0.88961 
   -3.49022  0.12792  5.51172      14.0436  1.61928  1.39448   4.97848  0.04588      0.0313  4678.97073   8914.18919  1.56318         3438.32381     18.55286  0.00198  58666.99978  0.65017  0.63683  3736837.66005  44.42309  18.17228     58707.47    50.82021       44.07248   27.17053  40.69057   65.5    0.19357  -20.54738  0.89601 
   -3.77045  0.00154  5.30223     14.09357  1.68329  1.00361   11.8613  0.02028     0.01517  4712.16313   8599.15332  1.87954         3112.22055     19.25122  0.00991  58666.71955  1.57109  0.01826  2855945.90308  44.59034  18.16472     58707.47    50.84596       44.10733   26.27633     38.61   65.0    0.19485  -20.56263   0.9971 
   -4.15757  0.00255  5.37296     14.00578  1.67033  1.56716   4.23542  0.05213     0.04354  4492.10068   8586.57415  1.64145         3378.20224     17.42052  0.00015  58666.33243  0.50983   0.0108  4359974.01094  44.39174  18.16904     58707.47    50.84141       44.10811   25.44411  39.44223   69.5    0.19269  -20.53435  0.99821 
   -3.01201  0.10605  6.09056     14.17061  1.86344  1.12617   4.34589  0.05105     0.03262  4416.62517   8487.26161  1.83737         3414.31692      16.0526    1e-05  58667.47799  0.50569   0.4609  2925617.99232  44.50363  18.16595     58708.41    50.83633       44.09106   27.17053  40.37185   68.0     0.2066  -20.54866  0.92329 
   -3.85826  0.07135  4.97429      13.9886  1.44115  1.45797  11.26765  0.02167     0.01427  4855.55096   8673.64038  1.32249         3496.96957     18.79337  0.00345  58666.63174  1.58467  0.80393  3489727.81862   44.4913  18.17771  58708.55517    50.83375       44.08354   26.32945  41.60025   65.5     0.1999  -20.56093  0.87599 
   -3.51368  0.01286  5.24867     14.01425   1.6454  1.26492   4.76912  0.04262     0.03021  4415.41716   8740.70515  1.72796         3377.13252     19.81824  0.03656  58666.97632  0.55464  0.06133  3941631.70151  44.44934  18.16203  58708.55517    50.84188       44.08531   28.02047  41.17871   68.0    0.19465  -20.56525  0.99016 
   -3.34343  0.06021  4.64876      13.9476  1.29395   1.1497  10.24153  0.02098     0.01212   4422.0836   8715.98688  1.37167          3840.7511      16.2206    1e-05  58667.14657  1.19466  0.61669  3305278.63335  44.52688  18.16681     58708.49    50.83232       44.07405   28.02047  41.67411   66.0    0.20286  -20.55651  0.89956 
   -3.53802  0.22207   4.9446     14.02935  1.42417  1.24099    4.9694  0.04976     0.02502  4555.17356   8693.49217  1.51409         3362.63372      17.3199  0.00012  58666.95198  0.61509  1.10353  2824509.08103   44.5832  18.16556  58708.55517    50.81912       44.06116   27.19709  42.00208   67.5    0.19716  -20.53563  0.83689 
    -3.2403  0.09053  5.38043      14.0307  1.58405  1.21307   4.53215  0.04491     0.02941  4551.92487   8771.10616  1.55016         3566.23795     17.99522  0.00055   58667.2497  0.56017  0.41029  3696727.59183  44.43916   18.1809     58708.41    50.84144       44.10108   26.27633  38.91988   68.0    0.20571  -20.55226  0.93126 
   -3.73661  0.01706   5.8817     14.11269  1.87855  1.33772   8.89797  0.02623     0.02258  4830.17338   8560.61507  1.54776         3283.60001     17.86742  0.00041  58666.75339  1.23835  0.15178  3591323.42376  44.44841  18.17163     58708.41    50.83859       44.09227   26.27633  40.45144   67.0    0.19915  -20.55128  0.97537 
   -3.38948  0.02876  5.98102     14.20123  1.93703  0.96362   5.15216  0.04345     0.03823  4665.77679   8566.30261  1.83731         3186.52866     19.31901  0.01158  58667.10052  0.66906  0.14817  2547090.06119  44.59639  18.16172     58708.41    50.83581        44.0764   28.02047  41.67411   67.5    0.19362  -20.56212  0.97622 
   -3.41172  0.10784  5.68507     14.10285  1.70767  1.38963   6.38088  0.03496     0.02458  4411.54323   8825.50973  1.24567         3944.38001     16.12219    1e-05  58667.07828  0.74078  0.68812  3191472.48636  44.48779  18.16042  58708.55517    50.84266       44.09308   27.19709  40.66401   67.0    0.19709  -20.55078  0.89066 
   -3.23487  0.07305  5.80368     14.18598  1.75327  0.93804   8.48056  0.02612     0.02167  4789.53805   8627.27151  1.52142         3392.90663      18.9743  0.00524  58667.25513  1.16048  0.61951  2328670.59061  44.61818  18.15514     58708.47    50.82555       44.07073   27.17053  41.51616   68.0     0.2078  -20.55326  0.90009 
   -3.34624  0.09146  6.17325     14.19593  1.87908  1.08353   6.48792  0.03634     0.02688  4754.11716   8643.21093   1.5003         3531.66753     16.52914    2e-05  58667.14376  0.87473  0.59336  2697288.97555  44.53084  18.17606  58708.55517     50.8311        44.0845   27.17053  40.75917   65.5    0.20787  -20.55968  0.90219 
   -3.57525  0.00175  4.85151     13.98132  1.48001  1.12617   6.18238  0.03474     0.01956  4265.31018   8586.76093   1.6829          3523.4988     19.44438  0.01546  58666.91475  0.67094  0.01084  3525347.10049  44.52016  18.17655     58709.43    50.83889       44.08769   27.17053  41.51616   67.5    0.19446   -20.5641  0.99825 
   -3.39286  0.00293  5.22821     14.06999  1.62878  1.04607    5.6492  0.04085     0.03471  4602.45406   8661.32039  1.76105          3309.8097     17.58435  0.00021  58667.09714  0.71383  0.01653  2995085.53462  44.56759   18.1681     58708.41    50.84731       44.10984   26.32945  38.86676   65.5    0.20177  -20.56705  0.99731 
   -3.53957  0.00294  5.69242     14.04647  1.74845  1.33025   10.9385  0.01931     0.01436  4654.49413    8572.0414  1.86378         3289.15915     16.42064    1e-05  58666.95043  1.41361  0.03214  4247362.99133  44.37279  18.17232  58708.55517    50.83615       44.08462   27.17053  40.75917   68.0    0.20179  -20.54395  0.99442 
   -3.46022  0.07981  5.58299     14.10157   1.6576  1.25714   9.18602  0.02567     0.01855  4714.88109   8554.00886  1.26159         3729.75998     16.28373    1e-05  58667.02978  1.21814  0.73316  3005334.35723   44.5167  18.15702     58707.47    50.85407       44.10097   26.27633  38.91988   67.5    0.20625  -20.55559   0.8835 
   -3.65895   0.0898  6.10231     14.20223  1.90375  0.97881    5.0514  0.04577     0.03096  4823.17909   8534.46342   1.6141         3228.28659     18.18994  0.00086  58666.83105  0.70098   0.4536  2593899.99229  44.56351  18.15887     58708.41    50.82916       44.07372   27.17053  40.75917   69.0     0.1976  -20.53753  0.92624 
   -3.45078  0.12622  5.79698     14.14469  1.79134  1.29357   6.06884  0.04445     0.03572  4984.78919   8612.73819  1.72633         3062.01286     16.14661    1e-05  58667.03922  0.89955  0.76604  2870947.71234   44.5376  18.17132     58708.41    50.84245       44.08716   27.17053  40.75917   65.0    0.19499  -20.55641   0.8833 
   -3.30616   0.0276  5.72156     14.07805  1.76143   1.3281   9.83971  0.02304      0.0201  4897.76354   8350.14403  1.80089         3153.54485     17.96767  0.00052  58667.18384  1.40801  0.27156   3737745.0832  44.42707  18.15976  58708.55517    50.84255       44.10211   26.32945  40.39832   68.0    0.20378  -20.55311  0.95501 
   -3.54023  0.04173  5.69393     14.13562  1.84141  1.10438   6.18787   0.0369     0.02847  4870.93508   8600.81159  1.39631         3403.43367     19.80331  0.03532  58666.94977  0.87578  0.25825  2968619.15121  44.55062  18.16972  58708.55517      50.831       44.07767   27.17053  41.51616   67.0     0.1989  -20.58906   0.9602 
   -3.57738  0.00299   5.5202     14.06275  1.74262  1.26911  10.65435  0.02087       0.017  4590.78849   8458.61774  1.70019          3329.1382     17.88371  0.00043  58666.91262  1.33946  0.03189  3693474.59913   44.4587  18.15901  58708.55517    50.85675       44.11301   26.32945  40.39832   67.5     0.2012  -20.55711   0.9948 
   -3.70016  0.00906  5.26086     14.02654  1.63338  1.37117   9.69458  0.02578     0.02345  4909.50628   8482.91111  1.52369         3319.11266     18.13078  0.00075  58666.78984   1.3939  0.08783  3714799.79385  44.46988  18.15326     58709.43    50.81523       44.05749   27.19709  42.49748   65.0    0.19762  -20.56803  0.98581 
   -3.36132  0.12615  6.56587     14.26005  2.01863  1.13499   8.30608  0.02798     0.02142  4961.20387   8708.05773  1.30793          3471.5914      17.7141  0.00029  58667.12868  1.21954  1.04783  2439845.60527  44.55195  18.15371     58708.41    50.83673       44.09098   27.17053  39.77866   68.0    0.19706  -20.55796   0.8376 
   -3.24639   0.0521  5.60344     14.08279  1.74775  1.30105   6.49472   0.0388     0.03083  5033.17998   8302.97302  2.19695         2896.62832     17.86494  0.00041  58667.24361  0.98146  0.33839  3480425.35853  44.47278   18.1552     58708.41    50.82657       44.07951   27.17053  40.37185   67.5    0.19571  -20.57347   0.9462 
   -3.78812  0.09796  5.76374     14.11236   1.7072  1.30095   7.92762  0.02697     0.01668  4188.65888   9083.10154  1.39327         3915.81693     18.18632  0.00085  58666.70188   0.8297  0.77659  3139015.61638  44.48293  18.16402  58708.55517    50.84201       44.09378   27.17053  40.37185   66.0    0.19567  -20.54496  0.87524 
   -3.39055   0.0824  6.39203     14.27898  1.97657  0.92142   9.26639  0.02618     0.01866  4905.00892   8665.49763  1.45429         3404.12426     18.57189  0.00207  58667.09945   1.3299  0.76354   2075139.2131  44.63643  18.17545  58708.55517    50.84509       44.09251   27.17053  40.75917   67.0    0.20233  -20.55945  0.87833 
   -3.92204  0.05035  5.13443     13.99412  1.52251  1.34528   8.03533  0.03282      0.0316  5191.57717   8691.77706  1.44815          3290.4717     17.46778  0.00016  58666.56796   1.2919  0.40458  3829271.03678   44.4473  18.17549  58708.55517    50.83301       44.07465   27.17053  40.75917   64.5     0.1972  -20.57515   0.9344 
   -3.49651   0.0779  5.42027     14.07905  1.61673  1.20594   7.98698  0.03016     0.02371  4737.77724   8553.96473  1.40889          3527.3272     17.04726    6e-05  58666.99349  1.06945  0.62216  3064707.42422  44.52305  18.16497     58708.47     50.8388       44.08187   27.19709   41.5405   67.0    0.20181  -20.55787   0.9012 
   -3.31275  0.20522  4.96108     14.10499  1.40173  0.85297   5.04396  0.04869     0.03087  4839.07567   8751.37624  1.61964         3237.66427     17.65805  0.00025  58667.17725  0.70457  1.03514  1975400.94819   44.7287  18.18094  58708.55517    50.82898       44.08452   26.32945  40.72598   67.5    0.19933    -20.552  0.84113 
   -3.69032  0.02924  6.21763     14.20509   1.9908  1.10582   6.99035  0.03629     0.02555  4757.64935   8333.90048  1.72912         3308.90574     17.11563    7e-05  58666.79968  0.94387  0.20439  2779119.33666  44.53672  18.17181  58708.55517     50.8502       44.11949   25.44411  39.00927   65.0    0.19727  -20.56228  0.96639 
   -3.45532  0.05759  5.05497     13.98789  1.48161  1.20976   4.70391  0.05032     0.03712  4808.19736   8683.68474   1.6749         3366.96146     17.36914  0.00013  58667.03468  0.64871  0.27088  3717049.54223  44.46194  18.17601     58708.41    50.84405       44.09917   27.17053  40.37185   65.5    0.19594  -20.56491  0.95463 
   -3.22445   0.0512  5.89301     14.13295  1.82767  1.13318   5.08986  0.04738     0.03294  4766.44326   8761.69269  1.92838         3217.13833     16.07748    1e-05  58667.26555   0.6898  0.26059  3195172.45792  44.48557  18.16929     58707.46    50.84562       44.10624   26.32945  38.55688   65.0    0.19765  -20.56538   0.9566 
   -3.18696  0.01818  5.06499     13.99735  1.50292  1.13579   6.38405  0.03099     0.02571  4623.66275   8558.33786  1.48774         3600.15269     17.32016  0.00012  58667.30304  0.81413  0.11608  3624109.90536  44.47742   18.1617     58708.41    50.82819       44.08146   26.32945  40.72598   66.5    0.20436  -20.56058  0.98036 
    -3.6443  0.10472  4.65986      14.0165  1.34432   0.9003   4.94495  0.05119     0.03126   4761.3943   8567.59899  2.06846         3022.24093     17.47493  0.00017   58666.8457  0.66874  0.51781  2512314.27662  44.66053  18.16377     58708.41    50.84055       44.08934   27.17053  40.37185   67.5    0.19927  -20.55249   0.9182 
    -3.6233  0.12266  5.22699     14.04558  1.52626  1.38142   7.62858  0.03421     0.02582  4876.45337   8517.54422  1.39609         3387.93365     17.32748  0.00012   58666.8667  1.08213  0.93571  3138955.31931  44.51919  18.15511  58708.55517    50.84252       44.09735   26.31175  40.41603   67.0    0.19611  -20.55285  0.85711 
   -3.36433  0.01156  5.09125     14.03367  1.54662  1.03053   8.22424  0.03031     0.02316  4821.73103   8637.50104  2.38417         2933.22835      17.9296  0.00047  58667.12567  1.14059  0.09505   3187986.0963  44.54106   18.1815     58707.47    50.82716       44.08204   26.27633  40.45144   65.0    0.19482  -20.56113  0.98436 
   -3.29271  0.09053  5.78521     14.26486  1.71779  0.76452  10.45699  0.02184     0.01741   4972.0756   8798.33435  1.17951         3564.15433     17.45498  0.00016  58667.19729  1.54209  0.94665   1576546.5944  44.78147  18.17004  58708.55517    50.84267       44.08817   27.19709   41.4896   67.5    0.20008  -20.54807  0.85227 
   -3.08983  0.00253  4.50497     13.87244  1.30772  1.34921  10.74099  0.02003     0.02145  4596.81251   8531.65196   1.8715         3284.01766     18.09758   0.0007  58667.40017  1.35389  0.02718   4434467.1849  44.43113  18.17502  58708.55517     50.8475        44.0936   26.32945  40.39832   66.0    0.20544  -20.56012  0.99545 
   -3.58196  0.10219   4.9384     14.08824  1.39494  0.84957   8.27759  0.03056     0.01943  4890.72956   8430.51364  1.62322         3279.57088     17.14619    8e-05  58666.90804  1.18108  0.84589  2104105.03165  44.70316  18.16631     58708.41    50.85215       44.10685   26.32945  40.39832   67.5    0.19583  -20.55863  0.86631 
   -3.31675  0.08386  5.27137     14.04976    1.569  1.21678   6.91194  0.03483     0.02743  4867.05728   8477.80579  1.66964         3222.40799     17.74753  0.00031  58667.17325   0.9767  0.57965  3219393.86084  44.51285  18.17683  58708.55517    50.84018       44.08789   27.17053  39.77866   67.5    0.19995  -20.55992  0.90817 
   -3.51957  0.10888  5.61584     14.12714   1.6542  1.12519   9.00927   0.0277     0.01947  4816.75094   8827.12274  1.60065         3236.80007     16.91985    5e-05  58666.97043  1.24688   0.9809  2697405.94213  44.55766  18.16136  58708.55517    50.87711       44.14064   25.44411  38.81227   67.0    0.20017  -20.54208  0.84814 
   -3.84371   0.0044  5.11369      14.0163   1.5467   1.1519  10.96812  0.02025     0.01605  4491.58279   8554.65863  1.51357         3603.73271     16.13428    1e-05  58666.64629  1.31995  0.04825  3484048.71082   44.4987    18.177     58708.41    50.85331       44.10826   26.27633  40.45144   65.5    0.19413  -20.55455  0.99194 
   -3.69924  0.00202   5.2845     14.04814  1.62189  1.06055   8.86239   0.0258     0.02217  4698.94923   8678.67674  1.88946         3205.71125     16.32551    1e-05  58666.79076  1.16729  0.01789  3369437.10677   44.5053  18.16177     58708.41    50.83864       44.08908   27.17053   39.8849   67.5    0.19109  -20.55463    0.997 
   -3.44224  0.05869  5.48182       14.093  1.64579  1.17438   8.36637  0.02638     0.01849  4356.71883   8572.05687  1.47878         3667.93357     16.64955    2e-05  58667.04776  0.94729    0.491   2992486.1997  44.53134  18.17524     58707.47    50.83771       44.09518   26.32945  40.39832   68.0    0.20634  -20.54258  0.92065 
   -3.69833  0.00247  6.26596     14.20657  2.04328  1.03857  10.02988  0.02117      0.0201  4675.69932   8728.66686  1.45259         3503.72487     18.76412  0.00323  58666.79167  1.30802  0.02473  2877291.26044  44.52621  18.17992     58707.47    50.83294       44.08275   26.32945  40.72598   67.5    0.19446  -20.55267  0.99588 
   -3.51182  0.00606  5.13103     13.98721  1.57092  1.35714   6.69932  0.03239     0.02619  4781.38782   8700.11189  1.32917         3557.31641     17.97961  0.00053  58666.97818  0.91362  0.04058  4073468.82588  44.43463  18.16465     58708.47    50.82722       44.07483   27.17053  40.75917   65.0    0.20152  -20.55694  0.99332 
   -3.53349   0.0016  5.16144     14.02799  1.59199  1.14166   11.2101  0.02057     0.01771  4783.64014   8419.48489  1.75747         3223.44519      16.9302    5e-05  58666.95651  1.53022  0.01794   3461876.8548  44.50593  18.16576  58708.55517    50.84293       44.09184   27.17053   39.8849   65.5    0.19686  -20.56453  0.99706 
   -3.52159  0.00267  5.55741     14.04159  1.70932  1.32331   9.59255  0.02359     0.01989  4865.06873   8699.90759  1.63897         3350.32391     16.87928    4e-05  58666.96841  1.35438  0.02565  4047731.38357  44.40471  18.15694     58708.41    50.85537        44.1197   25.44411  38.91102   65.5    0.19704  -20.55979  0.99562 
   -3.32683  0.06865  5.68508     14.07903  1.75333  1.33689   5.03334  0.04225     0.02668  4535.14217   8479.19758  1.64268         3452.52913     18.59559  0.00219  58667.16317  0.61754  0.34553  3656797.35278  44.44014  18.17649     58707.47    50.83981       44.07545   28.02047  41.62019   68.0    0.20201  -20.56315  0.94381 
   -3.25326  0.11191  5.24987     14.06049  1.47131   1.2359  10.26811  0.02576     0.01461  4802.66597   8692.07395   1.4142         3531.08072     16.23406    1e-05  58667.23674  1.41281  1.14906  2849912.87524  44.54142  18.17025  58708.55517    50.83556       44.08289   26.32945  41.53165   64.5    0.20216  -20.55252  0.82101 
   -3.39631  0.04769   5.2918     14.05681  1.55921  1.08085  11.63099   0.0193     0.01261  4924.36566   8601.61815  1.26551         3531.41395     18.25113  0.00099  58667.09369  1.68246  0.55473  3121150.09909  44.52023    18.164  58708.55517    50.84876       44.09959   26.32945  40.39832   67.0    0.20006  -20.55024  0.91018 
   -3.88803  0.00792  5.01544     13.96486  1.52681  1.47438   5.42028  0.04285     0.03975   4828.9219   8478.97182  1.26514         3593.22262      17.5411  0.00019  58666.60197  0.75396  0.04296  4192651.27814  44.42952   18.1635  58708.55517    50.84137       44.10096   27.17053  39.55724   67.0     0.1939   -20.5574  0.99296 
   -3.33895  0.01741  5.56546      14.1184  1.70479   0.9957  10.12511  0.02317     0.01845  4742.68501   8754.02946  1.70148         3363.72801     17.03225    6e-05  58667.15105  1.35855  0.17628  2842372.51291  44.55583  18.15844     58708.41     50.8396       44.09078   27.17053  39.85834   65.5    0.20009  -20.56428  0.97051 
   -3.66787  0.00402  5.22624     14.05529  1.61386  1.07334   9.59885  0.02241     0.01761  4557.68419   8709.92865  1.44203         3635.52459      19.0266  0.00591  58666.82213  1.18942   0.0386  3173019.59198  44.53886  18.14905     58708.41      50.844       44.09918   27.19709  40.73261   66.0    0.19797  -20.57056  0.99367 
   -4.17635  0.01268  6.06265     14.13505  1.94633  1.28468   5.93839  0.03569     0.02612  4349.03318   8905.66491  1.25305         3964.85386     18.69102  0.00273  58666.31365  0.67001  0.07529   3566666.5038  44.44047   18.1572     58708.41     50.8335       44.08417   27.17053  40.37185   67.0    0.18718  -20.55011  0.98752 
   -3.59551  0.02288  5.97063     14.23633   1.9145  0.83262   4.23677  0.04896     0.05542  4653.79132    8668.2315  1.67148         3285.85571     18.44283  0.00154  58666.89449  0.54736  0.09692  2134259.97534  44.66961  18.15142     58708.41     50.8263       44.08322   26.32945  40.72598   68.5    0.19816   -20.5458  0.98408 
   -3.34829  0.08873  5.80079     14.08435  1.76469   1.4655   5.76297  0.04102     0.02785  4893.02705   8623.09344  1.68583         3253.15825     16.58093    2e-05  58667.14171  0.82305  0.51137  3739025.92785  44.41578  18.16356     58708.41    50.83471       44.08715   27.17053  40.70828   65.5    0.19542  -20.56204  0.91676 
   -3.79103  0.00388  5.27648     14.08125  1.61018  0.97721  12.11307  0.01701     0.01075  4312.28419   8429.16666  1.46052         3845.47267     19.15704  0.00798  58666.69897  1.34368  0.04704  2863319.97039  44.57416  18.17528     58707.47    50.85388       44.10147   26.27633  40.45144   66.0     0.2008  -20.57283  0.99213 
   -3.55061  0.00525  5.37304     14.06767  1.67585  1.06335   6.07072  0.03667     0.02843  4660.29101   8608.09291  1.69745         3309.17753     19.02441  0.00588  58666.93939  0.78649  0.03185  3289668.75778  44.51549  18.16762     58708.41    50.84441       44.10573   26.27633  38.91988   67.5    0.19582  -20.55843  0.99476 
   -3.60608  0.00223   5.6195     14.11341  1.78039  1.06899  10.96718   0.0205     0.01417  4695.84723   8897.24706  1.78005         3228.92024     18.07008  0.00065  58666.88392  1.44261  0.02444  3096735.31446  44.52906   18.1879     58708.41    50.85303       44.10452   27.17053  40.69057   63.5    0.19633  -20.55662  0.99599 
   -3.77368  0.01397  5.02303     13.93457  1.50208  1.55198   5.00031  0.04346     0.03148  4839.46177   8511.80412  1.46239         3422.64948     17.91084  0.00045  58666.71632  0.69858  0.06984  4756664.17535   44.3663  18.16062     58708.41    50.82469        44.0893   26.32945  40.39832   67.5    0.18922   -20.5497  0.98824 
   -3.59054  0.00535  5.66845     14.09508  1.81849  1.23268   7.11829  0.03362     0.02416  4622.82631    8567.4135  1.88602         3309.07617     19.80912   0.0358  58666.89946  0.90744  0.03811   3501856.6316  44.47733  18.18388  58708.55517     50.8454       44.10732   26.32945  40.39832   65.5    0.19765   -20.5958  0.99386 
   -3.68683  0.00994  5.80429     14.16784  1.83755  0.94592   9.17646  0.02676     0.01856  4802.70378   8575.33694  2.23294         2996.18697     16.04213    1e-05  58666.80317  1.26262  0.09117  2653868.40825  44.58171  18.16692     58707.47    50.82917       44.08657   26.32945  40.72598   65.5    0.19926  -20.55842  0.98493 
   -3.58794  0.01854  5.74219     14.06039  1.75419   1.4121   6.10156  0.03599     0.02608  4482.53276   8743.10015   1.5551         3678.02209     18.31877  0.00116  58666.90206  0.73133  0.11314  4066997.87229  44.38549  18.17491  58708.55517    50.84481       44.09392   27.17053  40.37185   65.5    0.19868  -20.55704  0.98047 
   -3.31919  0.11813  6.13651     14.19756  1.88514   1.2355   7.00063  0.03216     0.02264  4458.43875   8756.08096  1.42421         3641.10489     19.28145  0.01062  58667.17081   0.8301  0.82698  2653918.60519  44.54446  18.17002     58708.41     50.8524       44.09953   27.17053  40.69057   68.0    0.20147  -20.54677  0.87108 
   -3.55925  0.11361   5.6541      14.1532  1.68322  0.96402   5.53077  0.04144     0.03325   4827.7359   8716.05205  1.30644            3646.54     19.20493  0.00891  58666.93075  0.76895  0.62835  2467648.11671  44.59798  18.16763  58708.55517    50.83692       44.09338   26.32945  40.39832   65.5    0.19979  -20.56263  0.89799 
   -3.50031  0.06482  5.81422     14.11897  1.79804  1.15371   5.89204  0.04284     0.02987  4917.89535   8831.19157  2.44436         2893.30961     17.33105  0.00012  58666.98969  0.85006  0.38193  3263255.78393  44.48101  18.17407     58707.47    50.84348        44.1002   26.27633  40.45144   65.5    0.19275  -20.56445   0.9378 
   -3.54689  0.00462  5.49116      14.0687  1.74342  1.26442   6.79245  0.03444     0.02658  4670.65223   8599.59482  1.72953         3301.71231     19.32207  0.01166  58666.94311  0.88391  0.03138     3557426.55  44.47978  18.16442     58708.41    50.82815       44.07831   27.17053  40.37185   65.5    0.20047  -20.57325  0.99494 
   -3.87985    0.007  4.81842     13.95965  1.41514  1.10539   7.82434  0.02887      0.0211  4598.27604   8442.96556  1.53486         3611.82486     17.86758  0.00041  58666.61015  0.98688  0.05477  3673914.70209   44.4887  18.16664  58708.55517    50.83601        44.0905   27.19709  40.73261   67.5    0.20337  -20.56821  0.99072 
   -3.78278  0.00106  5.34679     14.02165  1.65085   1.2557   9.16979  0.02457     0.01657  4831.13416   8482.32376  1.52268         3354.42241     17.18135    8e-05  58666.70722  1.27669  0.00972  3966603.71181  44.43195  18.15334     58708.49    50.84209       44.09141   27.19709  40.34529   67.0    0.19859  -20.55076  0.99838 
   -4.11678  0.02357  5.99167     14.11808  1.93203  1.52344   8.62606    0.028     0.01708  4700.87399   8528.50633  1.54071         3419.18643     19.59386  0.02181  58666.37322   1.1371  0.20335  3739154.61804  44.42699  18.17838     58707.47    50.82423       44.06807   27.17053  42.02864   67.0    0.19098   -20.5707  0.96744 
   -3.53602  0.01188  5.18154     14.00833   1.6175  1.44102   6.39247  0.03501     0.02712  4746.46168   8880.64405  1.53796         3299.27403     18.29489   0.0011  58666.95398  0.85908  0.07596  3880679.19701  44.45986  18.16767  58708.55517    50.83578       44.09469   26.27633  38.91988   63.5     0.1966  -20.55495  0.98789 
   -3.56783  0.08004  5.41338     14.11875  1.63271  0.93782   5.03094  0.04626     0.03139    4670.321   8588.12929  1.52383         3461.14946     18.91269  0.00454  58666.92217  0.65459  0.40269  2571375.70914  44.60465  18.18931  58708.55517    50.83803       44.08807   27.17053  40.75917   67.0     0.1937  -20.55599   0.9346 
   -3.40766  0.13609  5.96112     14.21435  1.75518  1.05467    9.2421  0.02838       0.027  5069.72341   8838.23557  1.58142         3233.61905     16.91006    5e-05  58667.08234  1.41699  1.25772  2158176.65823  44.62842  18.16819     58708.41    50.82313       44.07281   27.19709   41.4896   66.0    0.19942  -20.56983  0.80906 
   -3.27881  0.08784  5.52482     14.08716    1.648  1.13416    6.1893  0.03487     0.02769  4981.27665   8707.61827   1.3598         3435.82175     17.19984    9e-05  58667.21119  0.91612   0.5437  3126679.98649  44.50608  18.17126     58709.43    50.85003       44.09891   27.17053   39.8849   66.0    0.20361  -20.55583  0.91162 
   -3.18907  0.09744  5.62963     14.12604  1.68298  1.22598   8.65849  0.02786     0.02307  4884.24079    8317.9017  1.51975         3326.90475     18.32707  0.00118  58667.30093  1.23215  0.84372  2771825.29567   44.5512  18.18719  58708.55517    50.84211       44.07912   27.17053  41.56707   68.0    0.21156  -20.55927   0.8691 
   -3.39927  0.05543   5.5173     14.17846  1.63175  0.76487   5.54099  0.03879     0.02692  4681.69916   8644.06266  1.66703         3441.63898     17.34193  0.00012  58667.09073  0.72447  0.30714  2027671.36883  44.69105  18.17737     58708.41    50.83359       44.08244   27.17053  40.70828   66.0    0.19721   -20.5498  0.94732 
    -3.4869  0.00251  5.80204     14.11997  1.88785  1.24366   8.96372  0.02435     0.01945  4635.74129   8646.19629  1.75717         3195.38515     18.84154  0.00386   58667.0031  1.14909  0.02249  3396227.00567  44.48666  18.17251     58708.41    50.84017       44.09488   26.32945  40.72598   66.0    0.19821  -20.55226   0.9964 
   -3.76996  0.00626   5.7686     14.12739  1.89031  1.16592   5.64614  0.04117      0.0362  4942.85506   8733.78283  1.63907         3245.14155     19.77929  0.03342  58666.72004  0.82288  0.03535  3248756.90017  44.51152  18.15823     58708.41    50.84237       44.10196   26.31175  40.41603   66.0    0.20218  -20.60043  0.99442 
   -3.36557  0.06926  5.70108     14.23921   1.7318  0.73375   7.01356  0.03041     0.02164  4468.41178   8565.77573  1.73016         3380.51488     19.20812  0.00897  58667.12443  0.83536  0.48579   1737025.5103  44.75562  18.14249  58708.55517     50.8387       44.08481   27.19709   41.4896   70.0    0.19765  -20.54649  0.92104 
   -3.52054  0.00188  5.11766     13.99484  1.56361   1.2886   9.98594  0.02084      0.0161   4399.2442    8720.5621  1.59468         3481.33184      17.6353  0.00024  58666.96946  1.15285  0.01879  3894160.21133  44.45442  18.16196     58707.47    50.83936       44.10101   26.27633  38.91988   68.0    0.19449  -20.53817  0.99689 
   -3.23838  0.02683  5.72959     14.28803  1.78181  0.65454    7.1449   0.0327     0.02259  4733.06279   8485.80186  1.71639           3287.006     16.59171    2e-05  58667.25162  0.95479  0.19168  1441686.06887  44.84459   18.1676     58708.41    50.83643       44.08411   26.32945  41.21293   67.0    0.19614  -20.55239  0.96828 
   -3.37895  0.02476    5.502     14.06632  1.69155  1.20556   7.34011  0.03388     0.02515  4904.51151   8591.99768  2.14479         3008.63191      17.1597    8e-05  58667.11105  1.05322  0.18174  3503546.45972  44.47158  18.15995     58708.41    50.83145       44.08285   27.17053  40.37185   65.5    0.20293  -20.56096  0.96996 
   -3.32706  0.17769  5.17765     14.07033  1.53539  1.29942    6.0884  0.04073     0.03483  5160.05447   8640.09966  1.16088         3410.83366     17.00422    6e-05  58667.16294  0.96703  1.08188  2764697.29737  44.58515  18.15827     58708.41    50.84326       44.10113   27.17053  39.55724   65.5    0.20787  -20.57257  0.84241 
     -3.111  0.08449  6.46489     14.23051    2.052  1.19115   7.32141  0.03373     0.02739  5034.76916   8879.41456  1.55525         3240.62847      18.6063  0.00224    58667.379  1.10709  0.61857  2754778.51184  44.51981  18.15292     58709.43    50.85192       44.11165   27.17053  39.55724   63.0    0.20482  -20.56795  0.90211 
   -3.40789  0.00167  5.60143     14.14545  1.77514  0.94451   5.89679  0.03642     0.02883  4589.38596   8618.35369  1.79149         3233.89265     18.67188  0.00261  58667.08211  0.74089  0.00987  2646962.80677  44.59873  18.17037     58709.43    50.83615       44.07995   28.02047  41.17871   68.0    0.19769  -20.54562  0.99838 
   -3.44641  0.00972  5.40273     14.01272  1.67315  1.53314   5.23953  0.04405     0.04556  5199.02796   8773.63398  1.30726         3416.11102     17.77447  0.00033  58667.04359  0.84482  0.05094   4276979.4408  44.39602  18.17783     58708.41    50.84188       44.09509   26.32945  40.39832   65.0    0.20265  -20.57758  0.99155 
    -3.5522  0.13062  6.46926     14.22995   2.1003  1.30192   5.61158  0.04299     0.03519  4794.90041   8925.62454  1.48724         3386.53101     19.78459  0.03383   58666.9378  0.76961  0.73299   2830712.0232  44.51752  18.16821     58708.47     50.8282       44.07683   27.17053  40.75917   65.5    0.19358  -20.58544  0.88951 
   -3.64815   0.0102  5.53458     14.04344  1.71674  1.38303    6.6813  0.03307      0.0238   4583.7002   8635.49391  1.57865         3515.92043     18.69763  0.00277  58666.84185  0.83738  0.06816  3997676.53874  44.41557  18.16574  58708.55517    50.85473       44.10775   27.19709  39.85834   65.5    0.20276  -20.56321  0.98862 
   -3.47674   0.0204   4.9687     13.98734  1.46122  1.17856   9.84239  0.02188     0.01562  4537.88666   8413.00007  1.36421         3839.92181     16.10542    1e-05  58667.01326  1.20902  0.20076  3550849.67796  44.49074  18.17726     58708.41     50.8448       44.10411   26.27633  40.45144   66.0    0.20098  -20.57343  0.96645 
   -3.71514  0.08528  5.06307     14.00957  1.51318  1.17962   4.28039  0.05433     0.04233  4985.48636   8324.35779  1.34769         3335.16974     17.66322  0.00026  58666.77486  0.63464  0.36504  3446592.68255  44.50252  18.16986     58709.43    50.83995       44.08309   27.19709  40.73261   67.0    0.19301  -20.54762  0.94148 
   -3.11919  0.08184  6.57129     14.27014  2.05187  1.13803   9.90988  0.02484     0.01586  4730.76012   8628.37831  1.64292         3344.56472     17.73963  0.00031  58667.37081  1.32299  0.81106  2371286.09002  44.57071  18.15436     58708.41    50.83238       44.08632   26.32945   40.6463   65.5    0.19991  -20.55375  0.87214 
   -3.44659  0.05678  5.36135     14.02747  1.56125  1.35861   9.76133   0.0244     0.01922  4714.35306   8499.55913  1.66207         3444.48788     18.19973  0.00088  58667.04341  1.29414  0.55423  3671872.10438  44.43888  18.17041  58708.55517     50.8479       44.09592   27.19709  40.73261   68.0    0.20036   -20.5651  0.90836 
   -3.71468  0.02971  5.92446     14.11661   1.8845  1.26731   4.81325  0.04493     0.03558  4503.13934   8823.77537  1.77976         3318.41073     18.40783  0.00142  58666.77532  0.58223    0.143  3590031.35834  44.44365  18.18226     58708.41     50.8344       44.07666   27.19709   41.4896   68.0    0.19613    -20.549  0.97651 
   -3.81278  0.00675  4.53455     13.99974  1.34707   0.8735   6.88835  0.03228     0.02474  4664.14316   8453.13632  1.30714         3641.61275     16.88327    4e-05  58666.67722  0.89389  0.04647  2575153.86461  44.67436  18.17215     58708.41    50.83885       44.08899   27.17053  40.37185   65.5    0.20164  -20.56287  0.99249 
   -3.66581  0.05192  5.75406     14.08156  1.71524  1.44071  13.12776  0.01888       0.012  4847.84609   8448.27267  1.60839         3388.32892     19.36696  0.01293  58666.82419  1.84041  0.68156  3622127.62849  44.42426  18.16385     58708.41    50.84346       44.09138   27.17053  40.69057   67.5    0.20282  -20.56997  0.88958 
   -3.68489  0.10419  5.59884     14.13531  1.68837  1.13775   6.88081   0.0385     0.03161  4872.17302   8536.52208  1.50977         3319.14449     17.91738  0.00046  58666.80511  0.97434  0.71693  2635530.84193  44.57925  18.18275  58708.55517    50.84577        44.0944   26.32945  40.72598   65.0    0.19829  -20.55086  0.88805 
   -3.27286  0.12541  4.91764     14.07758   1.4366  1.00132   9.13533  0.02751     0.02536  5194.79315    8894.0162  1.12593          3499.5167     19.72532  0.02952  58667.21714  1.47058  1.14568  2256890.44258  44.68916  18.16559     58708.41    50.83068       44.07979   27.17053  40.37185   65.0    0.20878  -20.59694    0.835 
   -4.04695  0.00151  4.03436     13.81962  1.16515  1.11268   5.29258  0.04135     0.03364  4763.38136   8665.43454   1.4873         3316.08723     19.11288   0.0072  58666.44305  0.71635    0.008  4041175.57633  44.51717  18.16884     58708.41    50.83774       44.07645   27.19709  42.00208   67.5    0.19483  -20.55381  0.99872 
   -3.36696  0.07912  5.92262     14.16509  1.80618  1.10742   7.84521   0.0303     0.02336  4751.66177   8447.24075  1.64733         3347.90074     16.86569    4e-05  58667.12304  1.05663  0.62073  2750634.14906  44.54115  18.17379     58708.41    50.83225       44.08781   26.32945  40.39832   67.5    0.19987  -20.56079  0.90034 
   -3.23977  0.07533  4.50148      13.8812  1.23275  1.42964    10.051  0.02163      0.0148  4535.70778    8751.6696  1.53959         3502.23952     17.51707  0.00018  58667.25023  1.23346  0.75715  4008608.42396  44.45002  18.17325     58708.41    50.84495       44.09266   26.32945  40.72598   68.0    0.20459  -20.54287  0.87853 
   -3.66493  0.00592   4.8123     13.90442  1.41165  1.51668   4.89445  0.04144     0.03551   4539.7816     8416.968  1.48119         3635.81092     19.33269  0.01195  58666.82507  0.60173  0.02895  4714203.32028  44.38046  18.16803  58708.55517    50.84077       44.09912   26.32945  40.39832   68.0    0.20408  -20.55226  0.99506 
   -3.32648    0.046  4.36084     13.87008  1.21372  1.12589   5.29099  0.04315     0.03433  4761.28987   8598.20842  1.58334         3458.86247     16.32001    1e-05  58667.16352  0.71551  0.24336   3898589.7967  44.48292  18.15882     58708.41    50.84164       44.09205   27.17053  40.37185   65.5    0.20515  -20.55987  0.95888 
   -3.35271  0.12233  5.60968     14.11754  1.67103  1.19428   6.72455  0.03691     0.02833  4745.06983   8451.59806  1.52708         3410.81252      17.2041    9e-05  58667.13729  0.90318  0.82263  2841792.31619  44.54036  18.16673     58708.41    50.82855       44.07513   27.17053  40.75917   67.0    0.20092  -20.55764  0.87142 
   -3.25515  0.12985  5.26035     14.07609  1.49981  1.20964   9.66044  0.02545     0.01958   5097.2206   8761.14049  1.20275         3521.18091     18.32486  0.00117  58667.23485  1.49724  1.25443  2714536.27329  44.56916  18.15698     58707.47    50.83678       44.09522   26.32945  40.72598   67.5    0.20697   -20.5713  0.81165 
   -3.32358  0.01635  5.05839     14.03189  1.52181  1.01105   7.56412  0.03094     0.02807  4615.07513   8699.81405  2.67407         2886.74869     17.87068  0.00041  58667.16642  0.96104  0.12368  3121914.66047  44.54876  18.17396     58709.43    50.82768       44.07874   27.17053  40.69057   68.0    0.19713  -20.54377  0.97953 
   -3.68781  0.05336  5.66017     14.16355  1.71034   0.9065   8.44054  0.02775     0.02122  4807.33451   8440.39057  1.36947         3562.64047      17.9275  0.00047  58666.80219  1.16361   0.4504  2395796.14173  44.61682  18.17807  58708.55517    50.83715       44.09918   26.27633  40.45144   67.0    0.19741  -20.55699  0.92609 
   -3.63482  0.06517  5.37391     14.07864  1.62064  1.15569   8.14386  0.02987     0.02776  4906.50131   8446.92527  1.36589         3459.93672     18.82821  0.00374  58666.85518   1.1695  0.53072  3025594.13362  44.53714   18.1703     58709.43     50.8425       44.09214   26.32945  40.61974   67.0    0.20455   -20.5663  0.91603 
   -3.34591  0.05774  5.59303     14.08832   1.7487  1.36291    5.3293  0.04269     0.03067  4568.20655    8734.8589  1.50347         3481.66468      18.1185  0.00073  58667.14409  0.66342  0.30771  3382077.95529  44.48708  18.16001  58708.55517    50.83021       44.07506   27.19709   41.4896   65.5    0.20236  -20.55662  0.95113 
   -3.56723  0.00156  5.64967     14.10001  1.79313  1.21024   8.55366  0.02594     0.02266  4541.04344   8416.48086  1.70134         3386.19745     17.15202    8e-05  58666.92277  1.05218  0.01335  3353165.85749  44.49296   18.1552     58708.41    50.83995       44.09581   26.32945  40.39832   66.0    0.20072  -20.56051  0.99781 
   -2.95891  0.00578  4.59748     13.91033  1.37842  1.28738   7.22539  0.03374     0.02597  5007.90188   8117.23638  2.34822         2848.20725     18.28494  0.00107  58667.53109  1.08094  0.04173  4088599.06351  44.47161  18.17279     58709.43    50.83643       44.08217   26.32945  41.53165   67.5    0.19491  -20.57689  0.99329 
   -3.68264  0.06738   5.5164     14.08889  1.67421  1.30645  11.05108  0.02104     0.01467  4576.35843   8805.90956  1.44088         3513.97756     18.97011  0.00519  58666.80736  1.38061   0.7446  3141696.30138  44.51218  18.16426     58708.41    50.84378       44.09841   26.32945  40.39832   67.5    0.19251  -20.55863  0.88583 
     -3.262  0.00401  5.43113     14.02863  1.67446  1.39825    9.1745  0.02446     0.02094  4755.44602   8474.25168  1.62758         3419.24906      19.0037   0.0056    58667.228  1.23763  0.03679  4019895.35483  44.41872  18.17121  58708.55517    50.86278       44.12168   26.32945  40.39832   65.5    0.19732  -20.57164  0.99383 
    -3.8282   0.0679  6.26212     14.24498  2.01306  0.99104   4.34132  0.05473     0.06156  4805.33115   8518.69322  1.35805         3489.96754     17.80766  0.00036   58666.6618  0.59799  0.29478  2372267.30059   44.6041  18.16757     58708.47    50.83493         44.087   26.32945  41.21293   65.0     0.2026   -20.5511  0.95238 
   -3.69269  0.15514  6.06076     14.17284  1.74636  1.31012   8.08557  0.02848     0.01546  4374.52922   8604.80649  1.43077         3752.59767     17.01866    6e-05  58666.79731    0.923  1.25436  2687376.28648   44.5166  18.17831     58708.41     50.8502       44.11373   25.44411  39.43338   70.0    0.20589  -20.53537   0.8031 
   -3.24756  0.14596  6.35255     14.25078  2.00515  1.14525   6.76328  0.03705     0.02544  4829.08173   8650.05427  1.50866         3387.07458       19.627  0.02354  58667.24244  0.94084  0.98717   2367574.4162  44.59079  18.16038     58709.43    50.84116       44.09107   27.17053   39.8849   67.5    0.20464  -20.58759  0.85285 
   -4.31331   0.0071  4.79983     13.88969  1.39673  1.54869   4.95712  0.04664     0.02772  4688.15514   8327.56063  1.35633         3820.95236     17.74448  0.00031  58666.17669  0.64992  0.03521  4965835.99031  44.35551  18.16738     58708.41    50.85025       44.11183   25.44411  39.44223   67.0    0.19132  -20.57492  0.99393 
   -3.26093  0.00887  5.47223     14.03945  1.69795  1.52434   8.18082  0.02742     0.02413  4727.92485    8556.8646  1.54206         3467.89131      17.9826  0.00053  58667.22907  1.09085  0.07258  3937082.70436  44.42727  18.15325     58708.41    50.84589       44.09576   27.19709  40.73261   65.5     0.2089  -20.56914  0.98799 
   -3.33592  0.03486   5.0421       13.955  1.46564  1.51437   9.20807  0.02506     0.01866  4872.86709   8638.77846  1.47809         3524.16542     17.84568  0.00039  58667.15408  1.30426  0.32102   4256655.7379  44.40058  18.17017     58708.41    50.83219        44.0837   26.32945  40.39832   65.5    0.19789  -20.57129  0.94613 
   -3.48636  0.04001  4.70382     13.93714  1.36403  1.22978  10.57064  0.02241     0.01622   4796.6246   8592.42573  1.45523         3429.02987     16.66178    3e-05  58667.00364  1.45077  0.42291  3743329.44124  44.48551  18.16917  58708.55517    50.83941       44.09166   26.32945  40.72598   67.0    0.19395  -20.56134   0.9323 
   -3.70398  0.02516  4.61505     13.88807  1.35755  1.42789   7.74374  0.03131      0.0247  5004.45254   8559.89848  1.75997          3095.5667     19.36358  0.01283  58666.78602  1.15689  0.19483  4495549.72148  44.42046  18.15904     58709.43    50.84237       44.08276   27.17053  40.75917   67.0    0.19964  -20.56609  0.96851 
   -3.49212  0.14047  5.75926      14.1639   1.6862  1.07217   6.75635  0.03637     0.02563  4469.73656   8467.14566  1.54424         3584.33964     17.21324    9e-05  58666.99788   0.8052  0.94909  2441512.22395  44.58736  18.16588  58708.55517    50.84064       44.09255   26.32945  40.39832   69.5    0.19652  -20.54461  0.84971 
   -3.46965  0.01275  5.56081     14.03841  1.72865  1.48453   8.23473  0.02884     0.02451  4926.73321   8703.88207  1.94973         3074.79292     16.27985    1e-05  58667.02035  1.19232  0.10496  4158864.31015   44.3973  18.17145     58708.41    50.84446       44.10232   26.32945  40.39832   65.5    0.19202  -20.56171  0.98259 
   -3.46806  0.12351  5.91859     14.21318  1.75279  0.98789    8.0269   0.0309     0.01722  4654.68075   8346.49654  1.47703         3502.81226     18.52492  0.00186  58667.02194  1.03742  0.99142  2136057.40535  44.63852  18.16343  58708.55517    50.82564       44.07287   27.19709   41.4896   67.5     0.2013  -20.54353  0.84455 
   -3.64158  0.08226  5.94164     14.15224  1.83791  1.44024  10.40206    0.023     0.01509  4915.53213   8595.73841  1.14736          3583.9689     16.36254    1e-05  58666.84842   1.4993  0.85569  2988639.55163  44.50989  18.16039     58708.41    50.82613       44.07476   27.19709  40.73261   67.0    0.20538   -20.5542   0.8702 
   -3.36005  0.05821  5.28205     14.02485  1.58562  1.41748   9.66905  0.02365     0.01501  4588.12251   8764.91047  1.84624         3178.58481     18.69215  0.00273  58667.12995  1.21417  0.56279  3663671.65556  44.45952  18.15907  58708.55517    50.82735       44.07132   28.02047  41.62019   68.0    0.19559  -20.54551  0.91148 
   -2.96694  0.09459  5.63463     14.12658  1.71222  1.17859    6.0963  0.03501     0.03152  4441.33721   8634.28574  1.62466         3446.73472     17.70491  0.00028  58667.52306  0.71733  0.57666  2818015.91238  44.55073  18.15818  58707.34375    50.83353       44.09473   26.27633  40.45144   66.5    0.20254  -20.54482  0.90855 
   -3.57451  0.06182  5.96498     14.14178  1.83942  1.17853   5.64868  0.03803     0.02589  4447.63599   8501.10306  1.44056         3751.26982     18.42528  0.00148  58666.91549  0.66655  0.34918  3163355.59716  44.48216  18.17135  58708.55517    50.83757       44.08609   27.19709   41.4896   68.0     0.1968  -20.55855  0.94197 
   -3.30702   0.0039  5.77403     14.09611  1.82781  1.27638   6.03611  0.03554     0.03349  4600.07014   8493.80028  1.66852         3409.75998     18.94718  0.00492  58667.18298  0.76193  0.02356  3634784.12275  44.44734  18.17415     58709.43    50.84697       44.09731   26.32945  40.39832   68.0    0.19993  -20.56098  0.99608 
    -3.6852  0.10536   4.8867      14.0506  1.41047  0.94543   6.03072  0.04045     0.03175  4880.53613   8609.56638  1.29825         3593.59602     16.20069    1e-05   58666.8048   0.8569   0.6354  2477532.63696  44.64616  18.16442  58708.55517    50.83581       44.07508   28.08244  41.61214   65.5    0.20646  -20.57114  0.89954 
   -3.40147  0.00203  5.67389     14.05705  1.76724  1.35809   6.15172    0.035     0.03095  4598.52584   8546.46386  1.73746         3328.59737     16.34211    1e-05  58667.08853    0.776  0.01251  4062237.28268  44.39961  18.15907     58707.47    50.84114       44.08701   27.17053  40.37185   67.5    0.20133  -20.53926  0.99788 
   -3.45348   0.0192  5.22231     14.09941  1.57289  0.87177   7.30594  0.02966     0.02706   4601.3953   8658.10679  1.58848         3457.89321     17.76644  0.00032  58667.03652  0.92275  0.14027  2520092.84264   44.6284  18.17227     58708.41    50.83824       44.08269   27.17053  40.69057   67.5    0.19287  -20.54931  0.97652 
