 log(Bfield)      Mns    Pspin  cutoff_power  cutoff_wavelength  fnickel    kappa  kappagamma  mejecta  log(nhhost)  temperature  texplosion  thetaPB     vejecta      A_V        MJD_0   log(KE)     M_Ni  Peak_mag     Peak_MJD 
    14.10951  1.61061  2.56373       0.61447         2995.44825  0.01334  0.32895     0.31427  0.19581     18.37811    9417.5268   -17.37541  0.19509  1017.87845  0.00133  53511.62459  49.78304  0.13094   23.8885  53665.12531 
    13.83079  2.15989  3.07275       0.53508          5070.9659  0.00212  0.10412     0.05664  0.54639      16.3889   4264.08444   -16.97686  0.58283  1011.29141    1e-05  53512.02314  50.17735  0.05225  23.99273      53654.0 
    13.51128  2.01978  2.46001       0.41972         4000.13068  0.00303  0.15597     0.34295  0.45583     20.42298    9933.0227   -19.98697  1.53973  1111.85923  0.14713  53509.01303   50.2109   0.0668  23.95018      53666.0 
    13.45569  1.83584  2.66921       0.52879         5309.98503  0.00491  0.06617     0.05475  0.98952     16.21834    5768.3914   -19.23389  1.42996  1012.73688    1e-05  53509.76611  50.30838  0.16325  23.88017  53684.28571 
      13.621   1.8025  2.79421       0.11238         2140.12078   0.0049  0.16579      0.0716  0.44391     16.85311   6279.83683   -22.57444  0.89917  1053.75685    4e-05  53506.42556  50.15666  0.10618  23.91443  53665.12531 
    13.43476  1.51944   2.1789       0.44645         5359.68335  0.00759  0.01569     0.03524  0.22656     20.09588   6957.74098    -7.47083  1.01012  1045.32712  0.06928  53521.52917  49.89069  0.09055  23.95682  53657.46115 
    13.61379  1.75598  2.74068       0.66979         3564.56002  0.00216  0.19409     0.48969  0.19397      17.5656   3940.65317   -12.71395  0.70148  1022.32021   0.0002  53516.28605  49.78074  0.02092  23.91677  53665.12531 
    13.74976  1.80049  2.27993       0.84921         5766.54727  0.00637  0.07719     0.07795  0.72285     20.27077   7943.54478   -14.05249  0.42685  1025.95803  0.10363  53514.94751  50.25586  0.18281   24.0396  53661.29323 
    13.48106  1.69863  2.66696       0.23592          4017.8607  0.00723  0.04188     0.44392  0.98321     16.49786   3049.40416   -14.94267  1.34587  1002.22997    2e-05  53514.05733  50.29811  0.23964  23.86448  53665.12531 
    13.44375  1.80703  2.26248       0.46902         4089.40887  0.00333  0.10106     0.08927  0.30248     20.47359   3543.12057    -10.6154  1.32733  1119.58106  0.16532   53518.3846  50.08075   0.0537  23.98332  53665.12531 
    13.36725  1.55615  2.41313        0.6778         5464.61487  0.00281  0.05726      0.2769  1.07428     17.97424     4517.262   -21.80055  1.05275  1065.46613  0.00052  53507.19945  50.36772  0.09683  23.86281  53672.78947 
    13.55749  1.93878  2.91058       0.40003         5550.62183  0.00226  0.32211     0.40731   0.2176     18.13028   6594.35082   -22.27047  1.17952  1084.52201  0.00075  53506.72953  49.90087  0.02559   24.0343      53648.0 
    13.41312  1.73124   2.6021       0.40741         4287.50311  0.00157   0.0718     0.13209  0.79955     18.28566   6718.36494   -22.24165   1.4833  1012.24941  0.00107  53506.75835   50.2657  0.04739  23.95261      53654.0 
    13.61623  1.76774  2.59622       0.46505         5920.74061  0.02844  0.19722     0.05502  0.46029     18.67798   3236.29864   -20.80915  0.71125  1019.26818  0.00265  53508.19085  50.13815  0.63073  23.96438  53665.12531 
     13.6163  1.33111   1.6557        0.6918         5604.65476  0.00265  0.01854     0.01725  3.98176     20.52213   5785.09638   -22.67452  0.35699  1017.33368  0.18487  53506.32548  50.51795  0.14131  23.92568  53665.12531 
    13.45524  1.68678  2.51539       0.59189         3791.34833  0.00157  0.05385     0.07765  1.02532      17.9717   4437.90962   -18.59783  1.03982  1014.33459  0.00052  53510.40217  50.31641  0.05316  23.91264  53668.95739 
    13.97249  1.97576  2.76957        0.5136         5107.78498  0.00109  0.25443     0.40433  0.42633     17.32095    8500.3433   -24.43869  0.34009   1002.9859  0.00012  53504.56131  50.10189  0.02291  23.89584  53672.78947 
    13.28749  1.60243  2.09011        0.7357         4541.30839  0.00175  0.20741     0.24067  0.27479     20.42556   8799.53225   -16.34155  1.32335  1093.04387  0.14801  53512.65845  50.02077   0.0258  23.92564      53667.0 
    13.29056  1.67911  2.17105       0.76059         5450.36227  0.00256  0.04604     0.07089   1.4263     20.34414   3302.01107   -19.89243  1.56985  1017.73901  0.12271  53509.10757  50.37676  0.09873  23.91497  53649.79699 
    13.78691  1.70096  2.42072       0.66445         5747.58508  0.00626  0.11973     0.02897  0.36342     16.45161   9642.74007   -17.23639  0.31516  1086.89574    2e-05  53511.76361  50.12127  0.11746  23.89822  53657.46115 
    13.42326  1.83189  2.67459        0.7246         5420.35856  0.00236  0.22119     0.18379  0.39772      16.9699   9099.11488   -23.72888  1.47002  1005.60985    5e-05  53505.27112  50.08295  0.04745  23.96995      53674.0 
    13.40599  1.68671  2.52244       0.45465         4065.33302  0.00265  0.04952     0.48008   1.0695     16.84857   3407.97148    -19.7253  1.29171  1040.74249    4e-05   53509.2747  50.34651  0.09092  23.96302  53661.29323 
    13.70407  2.16747  3.12378       0.29934         3615.12657  0.00236  0.02239     0.22103   2.6339     19.41017   7167.09972   -11.68968  1.05186  1009.57331  0.01429  53517.31032  50.45974  0.11183  23.89818      53674.0 
    13.73327  1.80765  2.67667       0.51822         4070.10251  0.02678  0.21683     0.19371   0.4371     17.95472   7024.55624   -27.59505  0.50169  1008.05203   0.0005  53501.40495  50.11364  0.57389  23.92776  53665.12531 
    13.44328  1.43982  2.20284       0.34183         5747.14154  0.00103  0.02239     0.43255  3.50413     19.95391   8021.61617   -23.64792  0.80166  1034.67998  0.04996  53505.35208  50.51734  0.05312  23.90078  53665.12531 
    13.45114  1.95362  2.77175       0.45662         4922.91301  0.00141   0.0696     0.01062  1.38926     16.76299   3881.62223   -26.71723  1.48878  1012.33555    3e-05  53502.28277  50.36782  0.05373  23.92702      53670.0 
     13.4957  1.51995  1.91829       0.68197         4476.52894  0.00128  0.14736     0.20035  0.31011     20.56918   7826.41064    -17.4691  0.65764  1018.91144  0.20602   53511.5309  50.00852  0.02111  23.90615  53676.62155 
    13.59494  1.99062  2.72406       0.50786         5648.43332  0.00249  0.07002     0.06633  1.27911     19.74118   8311.17667   -21.60839  0.89973  1020.26161  0.03061  53507.39161  50.36078  0.09205  24.03389  53661.29323 
    13.26019  1.52413  1.84705       0.81749          4519.9574  0.00217  0.07991     0.11482  0.48711     20.63627   7635.12692   -14.31377  1.41112  1075.16906  0.24044  53514.68623  50.20027  0.04984  23.96334      53667.0 
     13.6236  1.85797  2.54209       0.24387         5221.21943  0.00193  0.02595     0.19247  2.60367     19.95685   9215.13003   -15.45796  1.02926  1017.33114   0.0503  53513.54204  50.46485  0.09103  23.85419  53661.29323 
    13.62456   1.7511  2.54754       0.23341         3638.85485  0.00144  0.23567     0.06834  0.19175      16.5394   4993.08209   -12.24959  0.70449  1065.73308    2e-05  53516.75041  49.80933  0.01375  24.02492  53668.95739 
    13.67674  1.94636  2.77282       0.07108          2765.3789  0.00379   0.2279     0.05221  0.38618     18.43022   6467.04033   -23.54568  0.87813  1047.55255   0.0015  53505.45432  50.10912  0.07451  23.91509  53661.29323 
    13.49858  1.85745  2.69768       0.27291         3083.89934  0.00118  0.12184     0.04586   0.5223     19.80728   8512.48296   -25.86873  1.28637  1046.13419  0.03565  53503.13127  50.19514  0.02841  23.93128      53674.0 
    13.37555   1.8705  2.15582       0.69249         5684.56487  0.00897  0.20118     0.11513  0.24228     20.56703   7163.24229   -14.48474  1.53068  1020.52272    0.205  53514.51526  49.90379  0.11574  23.99687  53661.29323 
    13.45173  1.93227   2.3362       0.51653         3507.28907  0.00102  0.02894     0.01737  2.69299     20.51342   8005.95265   -22.18187  1.26416  1065.56221   0.1812  53506.81813  50.50955  0.04889  23.90527      53667.0 
    13.24031  1.31405  2.07448       0.32136         5793.42296   0.0021  0.18828      0.2259  0.55543     19.43645   5564.16217   -30.24413  1.34664  1032.47201  0.01518  53498.75587  50.19952  0.05239  23.93306  53672.78947 
    13.93475  1.72923  2.19416       0.61052         5390.88628   0.0055  0.06062     0.31003   0.7171     20.39247   8057.49415   -20.23491  0.25262  1024.64442  0.13715  53508.76509    50.253  0.15722  23.91029      53678.0 
    13.45559  1.69296  2.13224       0.57026         5630.27958  0.00103  0.04311      0.0173  1.56208     20.38273   7896.82064   -18.74997  0.89606  1050.61282  0.13411  53510.25003  50.41894  0.04121  23.92602  53676.62155 
    14.18267  2.00563   2.8124       0.76528         5198.13716  0.00376  0.08413     0.02656  1.01342     16.75763   6042.65158   -19.51941  0.19849   1005.6238    3e-05  53509.48059  50.30674  0.12628  23.89509  53668.95739 
    13.73774  2.02071  2.66582       0.80775         3704.94233  0.00382  0.26498     0.07067  0.35599     20.14965   7199.68833   -19.59277  0.58644   1020.2074  0.07841  53509.40723   50.0593  0.07048  23.78922  53672.78947 
    13.58953   1.9163  2.81095       0.12486         3122.21221  0.00213  0.13554     0.03261  0.65401     18.28573   3788.04975   -31.72362  1.12251  1012.84641  0.00107  53497.27638  50.22222  0.05817  23.88157  53665.12531 
    13.55962  1.36478  2.18429        0.5915         3767.99739  0.01583  0.17161     0.45178  0.38458     17.71571   8674.81777   -14.07716  0.51287  1034.71606  0.00029  53514.92284  50.09708  0.30995  24.04227      53651.0 
    13.67633  1.54866  2.48696       0.29045         3501.11807  0.00302  0.24449      0.1664  0.29784      16.7727   8091.56323   -19.41397   0.5774  1003.30924    3e-05  53509.58603  49.97944  0.04801   23.9592  53657.46115 
    13.28639  1.22633  1.75225       0.58912          4710.1807  0.01015  0.09213     0.07021  0.59003     20.30403   9393.16206   -18.09461  0.88731  1011.73781  0.11188  53510.90539  50.19688  0.26168  23.86843      53670.0 
    13.49419  1.85008   2.7334       0.55364         5909.46966  0.00167   0.0386     0.16687  2.18856     16.13211    7240.0546   -18.85839  1.54594  1036.30262    1e-05  53510.14161  50.45717   0.0746  23.90117  53672.78947 
    13.51106  1.82574  2.76474       0.08562         5318.66645  0.00149   0.3081     0.24293  0.16194     17.50816   5610.88506   -15.60232  1.32611  1142.52473  0.00018  53513.39768  49.74089  0.01051  23.95448  53661.29323 
    13.65727  1.84969   2.2703       0.75695         5768.13599  0.00351  0.08826     0.10523   0.7948     20.38479   5221.27218   -21.54903  0.51369  1017.01101  0.13475  53507.45097  50.26854  0.10566  23.95238  53657.46115 
    13.32131  1.66093  2.12169       0.66781         5283.25607  0.00231  0.11593     0.07494  0.47924     20.40743    3471.8737   -20.57846   1.4931  1027.78795  0.14196  53508.42154  50.15665  0.05269  24.00617  53657.46115 
    13.47246  1.51068  2.11543        0.7145         2627.58625  0.00583  0.03103     0.13539   1.1942     20.42631   7889.10412    -13.5068  0.77248  1050.51952  0.14826   53515.4932  50.37434   0.2098  23.94705  53665.12531 
    13.67852  1.91062  2.90695       0.55761         4765.60685  0.00258  0.14165     0.49238  0.33695     17.30817   5728.34862    -15.3846  0.68101  1035.01683  0.00011   53513.6154  50.05271  0.04554  23.98676  53657.46115 
    13.19323  1.25614  2.02807       0.65829         5965.51606  0.00184  0.10566     0.27807  0.56486     17.03059   6549.33017   -14.20531   1.4734  1027.22659    6e-05  53514.79469  50.19932   0.0463  24.00001      53654.0 
    13.25721  1.44962  1.72228       0.77066         5556.94959  0.00194  0.06015     0.11746   1.0052     20.60191   6941.40731   -21.31126  1.17987  1047.99232  0.22215  53507.68874  50.34106   0.0651  23.83549  53676.62155 
    13.31702  1.56158  2.37261       0.64778         5202.16283  0.00196  0.11659     0.07268  0.53139     16.53332   9250.86947   -15.67656  1.54331  1057.03508    2e-05  53513.32344  50.20863  0.04756  23.95402  53661.29323 
    13.43797  1.51208  2.34321       0.47496         3814.56075  0.00262  0.04539     0.12278  0.50813     19.33271   8621.33542     -8.5625  1.02116  1056.50668  0.01195   53520.4375  50.19645  0.06185  23.98447      53651.0 
    13.53433  1.75841  2.58499       0.35062         3782.23366  0.01368  0.14378     0.06995  0.33604     19.75782   9048.09444   -18.54582  0.94283  1000.95591  0.03181  53510.45418  50.02268  0.24119  23.93343  53657.46115 
    13.92591  1.85925  2.70471       0.40846         5882.34625  0.00391   0.1583     0.04645  0.52738     18.17663   9823.07569   -20.53582  0.37304  1013.95283  0.00083  53508.46418  50.17052   0.0943  23.95849  53657.46115 
    14.00364  1.58284    2.357       0.69255         5930.92724  0.00348  0.22964     0.34953  0.22776     16.65988   5859.20866   -14.13188   0.1927  1026.54265    3e-05  53514.86812  49.87771  0.04174  23.88774  53676.62155 
    13.35448  1.66202  2.48578        0.6556         4561.08065  0.00648  0.14194     0.04695  0.46666     17.84086   6066.54446   -19.76708  1.45068   1003.3348  0.00039  53509.23292  50.12833  0.14491   23.9046  53668.95739 
    13.90094  1.76758  2.38313       0.63803          3671.1878  0.00195  0.03708     0.37361  2.80513     20.25976   8501.67195   -24.36476  0.34588  1014.25805  0.10104  53504.63524  50.47202  0.09402  23.99136  53661.29323 
    13.41974   1.7303   2.5609       0.37362         5729.63835  0.00587   0.3333     0.25552  0.18977      18.3555   9455.45136    -19.0302  1.35621  1077.47148  0.00126   53509.9698  49.81194  0.05496  23.95578  53680.45363 
    13.94319  1.20567  1.72746       0.87539         4006.14238  0.00747  0.09094     0.31592  0.83717     20.27462   6808.27962   -22.74329  0.13832  1036.38408  0.10456  53506.25671  50.29564  0.23042   23.8598  53676.62155 
    13.40142  1.72413  2.09503       1.10436         2024.74113  0.00831  0.16384     0.35512  0.61686      20.6085   6697.44323   -22.00105  1.44264  1028.72756  0.22554  53506.99895  50.22205   0.2194  23.88368  53672.78947 
    13.81559  1.72812  2.52883        0.3469         5800.42754  0.00106   0.2401     0.04193  0.42747     16.14738   9566.59428   -26.82443  0.43422  1009.16962    1e-05  53502.17557  50.10803   0.0224  23.87375  53668.95739 
    13.33097  1.46952  2.38219        0.4902         2793.50084  0.00256  0.18424     0.18668  0.31571     17.48784   8015.92463    -22.4657  1.15476  1053.83501  0.00017   53506.5343  50.04457  0.04288  23.86554  53676.62155 
     13.4678  1.69298  2.23077       1.33609         2008.19994  0.00117  0.03334     0.16589  3.57096      20.4932   5195.90703   -20.88955  1.03295  1017.27125  0.17295  53508.11045   50.5049  0.06077  23.93073  53661.29323 
    13.34791  1.75136  2.05652       0.69032         5966.73179  0.00251  0.06186     0.32469   1.0089     20.52741   6488.09732     -21.268   1.2422  1027.17834  0.18713    53507.732  50.32433  0.08406  23.90171  53672.78947 
    13.36209  1.65097  2.05877        0.7797         5637.12412  0.00134  0.10228     0.03996  0.56548     20.42203   3819.00254   -20.03021  1.14351  1003.77369  0.14681  53508.96979  50.17953  0.03359  23.84812      53678.0 
    13.39569  1.63884  2.38937       0.30254         5311.70741  0.00814  0.27581     0.03549  0.23909     16.62777   9816.87107   -20.21379  1.18814  1008.61414    2e-05  53508.78621  49.88709  0.10342  23.93806  53668.95739 
    13.37954  1.50021   2.1873       0.22703         5892.74039  0.00997  0.12296     0.03752  0.51006     19.93718   7283.41838   -15.14246   1.5425  1063.84263  0.04807  53513.85754  50.20347  0.23594  23.88699      53678.0 
    13.34627  1.64677  2.43923       0.39618          5613.4496   0.0016  0.07703     0.09261  0.71254      19.1915   6924.66393   -21.14068  1.50545  1007.70209  0.00863  53507.85932  50.23711  0.04548  23.95969      53667.0 
    13.51134  1.72647  2.51526       0.37621         4294.62144  0.01914  0.21124     0.05001  0.32198     20.01689   9047.89244   -23.66187  0.96869  1021.93394  0.05776  53505.33813   50.0252  0.32561  23.85797  53672.78947 
    13.30746  1.45195  2.19584       0.61564         5996.72626  0.00897   0.1419     0.34052  0.46929     19.81279   7752.89091   -16.49283  1.33509  1023.92286   0.0361  53512.50717  50.14755  0.20137  23.84483  53680.45363 
    14.03365  1.79772   2.3926       0.61219         3277.23548   0.0225  0.20871     0.07547  0.44591     20.23053   4625.48667   -29.15657  0.22324  1033.65386  0.09446  53499.84343  50.14124  0.48879   24.0137      53674.0 
    13.31799  1.35256  2.17683       0.35171          5916.7905  0.00121  0.05673     0.05711  1.04393     19.33097   9976.39139   -13.32122  1.49721  1011.53588   0.0119  53515.67878  50.31735  0.04119  23.99262  53665.12531 
    13.53225  1.84712  2.67072        0.2958         5000.69169  0.01023  0.13282     0.04477  0.24197     17.28656   9631.06923   -12.69215  0.98372  1051.92054  0.00011  53516.30785  49.92948  0.13181  23.96153      53667.0 
    13.29147  1.59273  2.24874       0.48995         5669.15843  0.00672   0.2494     0.12433  0.25312     20.06284   7650.51148   -25.11222  1.52951  1055.54478   0.0642  53503.88778   49.9539  0.09092   23.9121  53668.95739 
     13.4326  1.30151  2.10843        0.5263         4671.62066  0.00333  0.13754     0.03745  0.27837     16.49263   9111.51531   -13.80659  0.67346  1010.66915    2e-05  53515.19341  49.95821  0.04961   23.8913  53672.78947 
    13.87822  1.82561  2.68628        0.5709         4780.85993  0.00393  0.09087     0.04418  0.56325     16.90295   9605.37401   -20.17933  0.36806  1009.71706    4e-05  53508.82067  50.18367  0.09866  23.89068  53661.29323 
    13.49684  1.89315  2.51783       0.40987         5183.37645  0.00403   0.0755     0.26091  0.92938     20.18118   7706.54719    -19.4959  1.13568  1009.71012  0.08432   53509.5041  50.29377  0.13025  23.92517      53670.0 
    13.49906  1.89952  2.78146       0.69974         5976.11784  0.00148  0.01759     0.01849  3.03428     17.25223   5069.58786   -18.65802  0.99416  1008.91751   0.0001  53510.34198  50.47753  0.07334  23.92832  53680.45363 
    13.65894  1.79292  2.69613       0.35859         5381.06015  0.00108  0.01878     0.32193  4.11446     16.48238   5773.38672   -19.95426  0.69284  1043.38112    2e-05  53509.04574  50.54375  0.05835  23.99774      53674.0 
    13.50599  1.80896  2.23695         0.711         5253.04331  0.00163  0.09298     0.13393  0.67735     20.43062   9111.96928   -16.20931  0.89692  1006.99979  0.14974  53512.79069   50.2252  0.04524  23.91375  53684.28571 
    14.12156  1.82614  2.40193       0.78645           5449.359  0.00182     0.09     0.02502  0.79633     20.26005   9521.63301   -19.81789  0.19941  1006.43448  0.10111  53509.18211  50.25986  0.05471  24.05684      53651.0 
    13.48533  1.88607  2.42211       0.77537         5460.84025   0.0019  0.10846     0.31522  0.67146     20.26374   9699.12375   -16.66737  0.97425  1010.28303  0.10197  53512.33263  50.22605   0.0525  23.87313      53678.0 
    13.55435   2.1427    2.605        0.5942         5210.96262  0.00184  0.19263     0.15794  0.44702     20.32262   8626.25509   -21.31103  1.12497  1030.02139  0.11677  53507.68897   50.1389  0.04005  24.04668  53645.96491 
    13.24435  1.42433  1.84487       0.70651         5455.97328  0.00133  0.18565     0.05734  0.34898     20.42117   5248.88673   -30.13564  0.95462  1005.74929  0.14652  53498.86436  50.04009  0.02412  23.86653  53668.95739 
    13.49357  1.80309  2.77882       0.38308         2526.11148  0.00416  0.26091     0.10821  0.20249     17.36348    9815.9892   -19.36581  1.20546  1001.17945  0.00013  53509.63419  49.78962  0.04287  23.89637  53672.78947 
    13.49722   1.5163  2.39529       0.49972         3607.03438  0.00688  0.15385     0.23184  0.35301     16.83565   9166.43014   -13.26763  0.83277  1059.90925    4e-05  53515.73237  50.08959  0.12617  23.85799      53681.0 
    13.33731  1.58538  2.09996       0.65042         3301.35012  0.00116  0.12783     0.11343  0.60331     20.49021   4501.30297     -21.443  1.38736  1031.61898  0.17177    53507.557  50.21917   0.0302  23.97446      53666.0 
    13.35848  1.70041  2.51611       0.63661          5403.9022  0.00317  0.06226     0.10956  0.84618     16.00231   6874.65681   -17.22232    1.429  1018.57702    1e-05  53511.77768  50.28276  0.09811  24.02766  53661.29323 
    13.49711  1.62339  2.55274       0.12648         2662.52141  0.01743  0.22473     0.10421  0.33568     18.10952   8549.06737   -22.26878  1.17693  1039.70351  0.00071  53506.73122  50.05529  0.30708  24.02731  53672.78947 
    13.77504  1.83477  2.62391       0.44614         3552.30315  0.00138   0.0879     0.03315   0.5864     20.08066   7514.07491   -17.37477  0.51918  1029.26359  0.06689  53511.62523  50.21029   0.0354  23.95821  53657.46115 
    13.53644  1.67593  2.21697       0.78863         5500.15494  0.01981  0.06561      0.0388  0.54161     20.23412   4552.71692   -11.02866  0.67452  1007.42961  0.09525  53517.97134  50.17179   0.4859  23.93405      53681.0 
     13.5447  1.84865  2.75257       0.32664         5458.86333  0.00423  0.02502     0.06418  2.72756     18.32621   9110.11716   -24.73275  0.99369  1057.52805  0.00118  53504.26725  50.50465  0.20276  23.99729      53667.0 
     14.3241  1.80617  2.68696       0.28027         4375.87419  0.00202  0.09975     0.12944  0.65131     16.39758   4992.77691   -18.04316  0.14324  1037.66644    1e-05  53510.95684   50.2423  0.05487  23.83006  53684.28571 
    13.55329  2.09637   2.3849       0.33492         5826.09149  0.01825  0.08829     0.06423   0.5114      20.5082   7501.24453   -15.46198  1.54994  1004.06325  0.17903  53513.53802  50.15393  0.43256  23.87794  53661.29323 
    14.05941  1.92216   2.3222       0.71077         4618.77095  0.00102  0.05217     0.04004   0.9975      20.4888   9860.87167   -18.73103  0.22948  1036.77678  0.17121  53510.26897  50.33027  0.03409  23.92811  53665.12531 
    13.71212  1.74045  2.69434       0.53499         4340.24832  0.00401  0.25412     0.17094  0.20019     17.20625   8139.20029   -11.16493  0.55219  1003.98008    9e-05  53517.83507  49.78505  0.04067  23.85407      53667.0 
    14.42801   2.1905  2.93971        0.3541         3381.95583  0.00255  0.02664     0.03102  4.67656     19.85145   7267.42529   -34.44401  0.14497  1025.35301  0.03946  53494.55599   50.5433  0.14206  23.96191      53674.0 
    13.47481  1.75225  2.08518       0.73077         5908.81283  0.00136  0.05394     0.05356  1.10239      20.4457   7170.30266   -18.45432  0.77752  1029.95774  0.15503  53510.54568  50.34297   0.0474  24.17432      53674.0 
    13.32014  1.54746   2.3929       0.48334         5943.04773  0.00562  0.03654     0.40385  1.18446      17.8999   7601.06751   -15.97813  1.41343  1062.27882  0.00044  53513.02187  50.38257  0.20142  23.96101      53651.0 
    13.53916   1.3895  1.70605        1.0224         2073.50653  0.00282  0.21314     0.26205  0.37031      20.7185   9870.26402   -15.51927  0.55598  1012.81478  0.29056  53513.48073   50.0662  0.05358  23.85864  53657.46115 
    13.74681  2.11658   2.4658       0.90824         5753.62999  0.00191  0.10954     0.23057  0.60918     20.39571   5186.17105   -15.18695  0.54877  1001.78962  0.13818  53513.81305  50.19601  0.05012  24.01215  53665.12531 
    14.17578  2.09526  3.15852       0.48659         2440.41306  0.01554  0.14666     0.07787  0.46511     18.19475   6825.34031   -20.76237  0.25878  1001.85802  0.00087  53508.23763  50.12612  0.34702  24.04794      53651.0 
    13.21815  1.35175  1.76401       0.48177         5754.00834  0.00113  0.01669     0.09695  3.91305     20.47069    3410.0658   -24.70462   1.4915  1024.39508  0.16422  53504.29538  50.52191     0.06  23.93403  53657.46115 
    13.73584  1.81623  2.59637       0.68634         5888.15267  0.00138  0.10708     0.04494  0.70108      17.4436   9364.36789   -18.54294  0.47383  1026.41196  0.00015  53510.45706  50.24951  0.03897  23.90398  53661.29323 
    13.46598  1.97944  2.40314       0.82277           3091.325  0.00581  0.02825     0.01937  1.42012     20.57247   7212.18739   -12.51574  1.46202  1024.94423  0.20759  53516.48426  50.38218  0.22369  23.93386  53665.12531 
    13.38535  1.84365  1.99994       0.85756         5353.88215  0.00315  0.05695     0.09086  0.96848      20.6697   5529.94318   -14.89916  1.43072  1030.80834  0.25967  53514.10084  50.31966  0.10382  23.86794  53680.45363 
    13.39487  1.70643  2.48613        0.6237         3747.92848  0.00165  0.02689     0.07144  2.28115     20.02879   5404.10413   -17.36482  1.55089  1013.95123  0.05936  53511.63518  50.44401  0.07476  23.92537      53667.0 
    13.89834  1.83221  2.63592       0.76879         5660.74808   0.0024   0.0976     0.14884  0.69903     16.33196   6124.83582   -23.35249  0.30682  1006.87428    1e-05  53505.64751  50.23216  0.06779  23.84917  53661.29323 
    13.97835   1.7686  2.72704       0.49339         2661.56629  0.02831  0.08663      0.2593  0.79152     17.20935   3272.25211   -21.25816  0.28719  1077.45739    9e-05  53507.74184  50.31782  0.84968  24.00666  53661.29323 
    13.59569  1.57428  2.47302       0.22651          2831.6564   0.0124  0.22286     0.37135  0.29466     17.33279   5456.25049   -19.92802  0.71145  1009.62674  0.00012  53509.07198  49.98063  0.19496  23.85836      53681.0 
    13.64043  1.84079  2.77217       0.36517         3321.60236  0.01008  0.27971     0.25981  0.31998     16.96709   4185.00914   -25.45855  0.77436  1006.37419    5e-05  53503.54145  50.00956  0.17062  24.02412      53654.0 
    13.55029  1.98485  2.89002       0.18013         5473.55378  0.00164  0.06688     0.32433   1.2252      18.5873   4606.60202   -25.59416   1.2437   1068.8731  0.00215  53503.40584  50.39383  0.05948  23.84115      53674.0 
     13.4272   1.5857  2.47258       0.50308         3478.30709  0.00892  0.15455     0.24894  0.36984     16.24438   6891.26286   -14.34154    1.065  1013.98249    1e-05  53514.65846  50.06678  0.16967  23.90821      53678.0 
    13.72193  1.93221  2.38517       0.76122         5939.65935  0.00145  0.03705     0.05125   1.7556       20.456   6004.72751   -17.09419  0.53002  1035.47929  0.15876  53511.90581  50.42437  0.06036  23.88229  53668.95739 
    14.13969  1.85994  2.78144       0.57909         2688.02915  0.01999  0.23544     0.22989  0.33564     19.55793    7558.6478   -17.51657  0.20123  1026.44566  0.02008  53511.48343  50.04409  0.35206  23.93606      53667.0 
    13.34236  1.56328  2.31524        0.4564         5618.54229  0.00855  0.14945     0.01826  0.53125     17.88335   3890.33539   -20.11946  1.15672  1079.22314  0.00042  53508.88054   50.2266  0.20736   23.8034      53670.0 
    13.52094  1.96245  2.84723       0.37744         5680.78856  0.00459  0.21341      0.1242  0.35809     18.52132   8965.65674    -22.3731  1.47002  1028.60602  0.00185   53506.6269  50.06842   0.0852  23.83742      53681.0 
    13.99165  1.83005  2.28444       0.85087         3365.79873   0.0012  0.16532       0.213  0.52895     20.42782   8438.97842    -21.3069  0.26779  1020.07015  0.14878   53507.6931  50.17652  0.02907  23.96746  53665.12531 
    13.46647  1.42426  2.15111       0.43529         4890.66353  0.00107  0.03998     0.10314  1.96194     19.38666   8640.13319   -22.06545  0.70118  1013.39584  0.01353  53506.93455  50.42213  0.04624  23.75984      53678.0 
    13.63722  1.77432  2.64162       0.41858         4439.62118   0.0355  0.20155     0.04872  0.22855     18.94306   6018.82639   -16.49977  0.68682  1017.59558  0.00487  53512.50023  49.87192  0.42798  23.98039  53665.12531 
    13.91306  1.60248  2.37141       0.67491         5620.49207  0.00396  0.22391     0.09114   0.2968     18.50476   5823.21124   -15.59358  0.24776  1010.96152  0.00178  53513.40642  49.98466  0.06276  23.90009  53657.46115 
    14.44587  2.00369   2.8906        0.2357         4590.37946  0.00604  0.27063     0.09386  0.34071     17.40028   4099.01829   -21.86311  0.12968  1085.58628  0.00014  53507.13689  50.09807  0.10762   23.8787      53678.0 
    13.52995  1.78205  2.69801       0.39995           4823.511  0.00134  0.10337     0.04973  0.65492     18.88959   7820.78478   -22.24336   0.9984  1008.57196  0.00431  53506.75664  50.21887  0.03655  23.89395      53670.0 
    13.47142  1.86156   2.6035       0.68335          5822.1636  0.04893  0.32069     0.06704  0.24265     18.71367   9727.94287   -19.00018  0.96633  1003.99788  0.00287  53509.99982  49.89034  0.63219  23.96083  53668.95739 
    13.54369  1.92744  2.83507       0.30905         5931.53261  0.00599  0.04769     0.01339  1.18098     16.15529   5292.22577   -22.76988   1.1088  1005.80067    1e-05  53506.23012   50.3346  0.21436  23.99728      53667.0 
    13.57548  1.74253  2.58302       0.43831         4728.26131  0.00384  0.13129     0.37465   0.5847     16.02081   6771.60748   -21.20768  0.79542   1029.8781    1e-05  53507.79232   50.2101  0.09855  23.89702      53666.0 
    13.45962  1.72212  2.35159       0.30037         3774.20228  0.00171  0.19014      0.0839  0.46706      20.0336   6140.09982   -19.61635  1.32844  1047.47513  0.06002  53509.38365  50.16597  0.03819  23.94468      53674.0 
    13.48195  1.78051  2.67529       0.24528         3629.15477  0.00432  0.09028     0.23727  0.97198     17.20415   9626.73394   -24.34837   1.3472  1061.74948    9e-05  53504.65163  50.34604  0.14256  23.89662      53667.0 
     13.6319  1.77367  2.75963       0.16365         4441.31777  0.00125  0.05931     0.26781  0.96938     17.98933   8326.91587   -15.80863  0.75749  1061.19197  0.00054  53513.19137  50.34507   0.0411  23.91746      53667.0 
    13.64347  1.65873  2.47382       0.63114         4611.07332  0.00546   0.3123     0.10172  0.10921     19.05118   9553.44609    -9.66075  0.51796  1017.46526  0.00625  53519.33925  48.92889  0.00751  23.91924  53665.12531 
    13.85363  1.97685  2.97879        0.2818         2621.31081  0.01155  0.32161     0.21995  0.10458     16.40642    9682.5042   -20.54711  0.56737   1002.5464    1e-05  53508.45289   48.6515  0.00863  23.98766  53665.12531 
    13.43807  1.69922  2.49054       0.27759         4441.29296  0.00675  0.11319     0.07208  0.43579     17.75872   4329.35161    -17.2075  1.33286  1000.63227  0.00032   53511.7925  50.10634  0.14445  23.88643  53676.62155 
    13.31817   1.6653  2.33409       0.95956          5811.1115  0.00503  0.09737     0.34381  0.87469     18.52444   7168.71474   -18.89532  1.52401  1009.23812  0.00186  53510.10468  50.28143  0.15839   23.9108      53674.0 
    13.49709  1.68543  2.40891       0.68309         3678.45627  0.00701  0.02937     0.01066  1.91735     19.91191   3619.60739   -13.22673  0.82808  1043.04575  0.04536  53515.77327  50.44382  0.30034  23.88162      53670.0 
    13.31996  1.58352  1.77052       0.60287         5440.76405  0.00102   0.0383     0.12849  1.14434     20.68645    5128.7606   -16.08219  1.12094  1130.76628  0.26988  53512.91781  50.43076  0.03602  23.93539  53672.78947 
    13.32993  1.63166  2.18414       0.65276         5443.17756  0.00238  0.05271     0.06771  0.90449     20.27699   4526.69533   -17.80214  1.46523  1001.07257  0.10513  53511.19786    50.281  0.07618  23.91871  53657.46115 
    13.43577  1.74273  2.26154       0.63586         5391.41249  0.01077  0.11955     0.04789  0.65249     20.16201   5330.37127   -22.87913  0.94587  1039.46212  0.08068  53506.12087  50.24422  0.29324  23.82701      53670.0 
    13.53575  2.12002  3.01495        0.5195         5179.17105  0.00156  0.03169     0.01024  2.61678      17.3249   7328.11254   -24.65188  1.55238  1016.42418  0.00012  53504.34812  50.46475  0.07404   23.9661  53668.95739 
    13.34164  1.66808  2.08893        0.6673          4681.1595  0.00521  0.06549     0.10838  0.99387     20.47152   9632.16152   -21.66882  1.55921   1034.3723  0.16453  53507.33118  50.32757  0.17357  23.97355  53668.95739 
    13.56549  2.02126  2.92236       0.54305         4701.94316  0.00807  0.13165     0.43931   0.2811     19.26106   7141.39239   -12.29602  1.08883  1014.74174  0.01013  53516.70398  49.96579   0.1215  23.97315  53657.46115 
    13.53841  1.69605  2.47992       0.48438         2883.60751  0.00199  0.05594     0.02652  0.70324     20.03262   4031.20391   -14.42226   0.8018  1048.13472  0.05989  53514.57774  50.26838   0.0564  24.00866      53647.0 
    13.47491  1.71376  2.61127       0.47235         4035.81355  0.00373  0.01849     0.01574  3.24379      18.2038   9087.96002   -24.01949  0.99759  1008.96598  0.00089  53504.98051  50.48597  0.18781  23.97835  53657.46115 
    13.84808  1.50416  1.92075       0.95183         5168.67733  0.00213  0.10953     0.08329  0.53655     20.44995   6038.75578   -19.41982  0.22906   1007.7661  0.15656  53509.58018  50.16967  0.05208  23.87177  53665.12531 
    13.75061  1.44792  2.34641       0.41171         5082.84646   0.0034  0.15882      0.1135   0.1859     16.78122   9413.96554    -12.2258  0.39364  1018.42381    3e-05   53516.7742  49.74895  0.03087  23.93396      53654.0 
    13.36012  1.69383  2.44661       0.62239         4916.96788  0.00928  0.06486     0.21257  1.15811     16.27279   9571.47635   -16.74869  1.56543  1004.89583    1e-05  53512.25131  50.33038  0.32954   23.8712  53665.12531 
    13.48104  1.62039  1.96459       0.76506         4418.92227  0.00432  0.10273     0.07099  0.53528     20.55767    5957.7145   -13.30531  0.76972  1007.55185  0.20063  53515.69469  50.16887  0.10523  23.93512  53649.79699 
    13.43491  1.74013  2.56901       0.43379          5307.4605  0.00272  0.16103     0.10983  0.67748       16.235   5848.87022   -28.71435   1.5582  1005.05417    1e-05  53500.28565  50.22356  0.07562  23.85019  53676.62155 
    13.98264  1.85466  2.67826        0.3279         2703.13611  0.00269  0.20325     0.03379  0.33538     16.33724   8006.32876   -27.74083   0.2637  1000.59444    1e-05  53501.25917  50.02167  0.04742  23.96845      53678.0 
