 texplosion  fnickel    Pspin  log(Bfield)      Mns  thetaPB  mejecta    kappa  kappagamma      vejecta  temperature    alpha  cutoff_wavelength  log(nhhost)      A_V         MJD0  kenergy  mnickel            TSD   log(L0)  Peak_mag     Peak_MJD  log(E_rad)  log(Peak_lum)  Rise_Time    E_fold  tau_1  delta_m15     r_peak     frac 
   -8.80327  0.00887  3.40518     13.87662  1.39386  1.29849  2.16473  0.10548     0.02041   9736.92586   4078.63969  0.98539         4354.39985      17.0415    6e-05  55251.69273  1.22426   0.0192  2648984.53523   44.9257  18.34498  55282.11025    50.99954        44.5297    17.3149  22.38524   31.5    0.45785  -21.55657  0.99835 
   -7.16302  0.01601  4.45927     14.24408  2.04656  0.85292  3.03233  0.05626     0.01325   9631.93594   4415.81767  0.87611         4602.59638     16.58588    2e-05  55253.33298  1.67815  0.04854  1228007.11681  45.19214  18.34197     55282.02    50.97173       44.51228    17.3149  22.11444   32.0     0.4731  -21.55888  0.99598 
   -5.56731  0.00266  4.44799     14.27081  1.91494   0.9089  1.89102  0.10623     0.03074   9687.95386   4099.48478  1.14482         4423.49731      18.2238  0.00093  55254.92869  1.05873  0.00502  1010820.70415     45.25  18.34281     55282.02    51.02565       44.57856   16.62216  21.85541   31.5    0.49112  -21.57869  0.99954 
   -6.79094  0.06172  3.84367     14.35553  1.98683  1.17815  3.33539  0.09774     0.03356   9673.90578   4216.41707  1.06493         4358.06642     17.85048  0.00039  55253.70506  1.86199  0.20587   530157.81769  45.67311   18.3405  55282.11025    51.01562       44.57277   16.62216  21.85541   30.5    0.47072  -21.54309  0.98709 
   -6.73286  0.45064  3.72847     13.99659  1.61371  1.54551  2.20754  0.07419     0.01883  10079.42697   4179.76574  0.77729         4574.54706     16.97944    5e-05  55253.76314  1.33785  0.99481  2116066.84716  45.00808  18.33403     55282.02     50.9929       44.55209   14.70316  21.85053   32.0    0.49343  -21.56011  0.92397 
   -7.61795  0.00359  3.91863     14.15904  1.69282  0.83592  1.44528  0.15075     0.03544  10053.70403   4589.15368  0.90789         4443.76672     17.50943  0.00018  55252.87805  0.87143   0.0052  1160394.22635  45.24658  18.34086  55282.11025    50.98534       44.52201    17.3149  22.38524   31.5    0.49043  -21.56247  0.99956 
   -6.89037  0.03023   3.9269     14.14139  1.77658  1.25486  1.24199  0.17295     0.05357  10308.33224   4365.66849  0.83253         4505.40782     18.59863   0.0022  55253.60563  0.78727  0.03755  1326562.95723   45.2076  18.35598     55280.57      50.996       44.56713   14.69828  21.85541   32.0     0.4923  -21.56524  0.99704 
   -7.26552  0.01601  4.35529     14.11787  1.87745  0.91907  2.05708  0.09175     0.01825   9825.52062   4157.14208  1.12752         4276.19678     18.82003  0.00367  55253.23048  1.18465  0.03294  1921665.35894   44.9807  18.34787     55282.02    50.99194       44.55018   14.69828  21.85541   31.5    0.49387  -21.57584  0.99702 
    -7.7809  0.04836  3.84248     14.16946  1.76448   1.2317  3.45431  0.07491     0.01702   9247.25137   4371.74536  0.98169         4483.83209     17.02898    6e-05   55252.7151  1.76203  0.16704  1108500.84399   45.3015  18.34211  55282.11025     51.0449       44.61358   14.69828  19.93153   31.0    0.48215  -21.53993  0.98741 
   -9.45918  0.01455  3.39075     14.13359  1.47577  0.77424   2.3883   0.1119     0.03283  10627.54902   4106.61145  0.73027         4309.85808     17.37622  0.00013  55251.03682  1.60909  0.03476   851614.64924  45.44703  18.33989     55282.02    50.99761       44.53509   16.62704  22.11108   33.0    0.44859  -21.53003   0.9973 
   -7.77777  0.00238  4.02949      14.4209  1.71698  0.35204  1.69672  0.10258      0.0257  10428.02268   4401.42623  0.89203         4401.71869     16.37045    1e-05  55252.71823  1.10063  0.00403   372627.29762  45.72184  18.31799     55282.02    50.99831       44.56523   14.70316  21.85053   32.5    0.45866  -21.55661  0.99964 
   -7.10803  0.02064  3.85864     14.04776  1.67592  1.55756  1.68391  0.11717     0.03828  10533.98353   4368.82963  0.82402         4496.77796     19.00897  0.00567  55253.38797  1.11463  0.03475  1859574.98469  45.05082  18.35763     55282.02    51.01074       44.54448   16.62216  22.11596   32.5    0.46511  -21.56842   0.9971 
   -6.39917   0.0046  3.65755     14.40091     1.48   0.3338  1.80309  0.10135     0.02364   9880.48186   4334.92857  1.11159         4236.00966     17.45061  0.00016  55254.09683  1.05003  0.00829   290158.27796  45.85009  18.34023     55282.02    51.02401       44.59824   14.69828  19.93153   31.0    0.50022  -21.56679  0.99925 
    -7.2359  0.18269  3.58196     13.88615  1.54728  1.26496  1.30653  0.10552     0.02561  10110.93467   4233.34083  0.78793         4657.50429     16.29701    1e-05   55253.2601  0.79676   0.2387  3114050.56916  44.85685  18.34737     55280.57    51.04362       44.62214   15.39103   20.6009   32.5    0.46966  -21.55888  0.98078 
   -7.22799  0.03369  4.45597     14.25179  2.07455  1.16432  6.01053  0.04034     0.01042  10283.64984   4283.38197  0.83344          4498.1395     18.90735  0.00449  55253.26801   3.7917   0.2025  1199619.56145  45.20884  18.31956     55282.02    51.03101       44.60461   14.69828  19.93153   31.0     0.4819  -21.56114  0.98392 
   -7.60132  0.00113  4.05931     14.14069   1.8202   1.4067   1.5097  0.15825     0.03566   9311.91863   4131.57923  1.09004         4466.24029     16.78255    3e-05  55252.89468   0.7809  0.00171  1457033.75611  45.14859  18.35171     55282.02    51.05366       44.63372   14.69828  19.93153   31.0    0.48054  -21.58257  0.99986 
   -8.11377  0.00305  3.18406     14.33202  1.60961   0.7892  2.16824   0.1924     0.05183    9421.1358   4387.08127  1.23837         4206.50151     16.20359    1e-05  55252.38223    1.148  0.00662   328444.48524  45.95314  18.37428  55282.11025    51.03059       44.58714   16.62216  19.93153   30.5     0.4378  -21.53663  0.99961 
   -7.74997  0.00731  4.30543     14.12172  1.93683  1.19731  0.98883  0.18476     0.04614   9771.32292   4354.94829  0.93756         4407.33908     19.35224   0.0125  55252.74603  0.56319  0.00723  1903265.35079   45.0084  18.32355  55282.11025    51.04364       44.61409   14.69828  19.93153   32.5    0.46055   -21.5629  0.99939 
   -7.40218  0.12124  4.05375     14.45937  1.81008  0.35511  1.47467  0.10194     0.02673  10158.36542   4356.45149   0.7944         4572.06352     19.20869  0.00898  55253.09382  0.90775  0.17878   333036.10213  45.78834  18.35226     55282.02    51.00769       44.57401   14.69828  19.93153   33.0    0.46248  -21.55809  0.98541 
   -7.57308  0.02547  3.98813     14.15103  1.76877  1.16549  1.85038  0.13586     0.03521   9918.30676   4103.18211   0.9856         4371.53282     16.26397    1e-05  55252.92292  1.08584  0.04712  1303052.79133  45.20002  18.32509     55282.02    51.03798       44.60548   16.62216  19.93153   31.5    0.48314  -21.56499  0.99614 
   -6.05142  0.00276  4.16748     14.11525  1.84778  1.43981  1.71863  0.10754     0.03086  10073.18552   4356.28696  0.91285         4485.55474      16.7153    3e-05  55254.44458  1.04026  0.00474  1752737.54858  45.05203  18.34341     55282.02    51.01132       44.56871   16.62216  21.85541   31.5    0.49883  -21.56829   0.9996 
    -7.0979  0.00572  3.74232     14.02886  1.57958  1.27419  3.34014  0.06177     0.01512   9630.79187   3702.65846  1.00847         4499.51416     17.97129  0.00052   55253.3981  1.84806   0.0191  1798531.73339  45.06619  18.37484     55282.02    50.99431       44.54474   16.62704  21.85053   31.5    0.47729  -21.57139  0.99836 
   -6.43541  0.17081  4.17458     14.49858  1.82348  0.47682   1.8573  0.12794     0.04265  10663.96632   4231.95866  0.94521         4254.95427     17.46128  0.00016  55254.06059  1.25993  0.31725   297022.36165  45.81573  18.35201  55282.11025    51.00045       44.54402   16.62704  22.11108   32.0    0.47657  -21.55718  0.97347 
   -6.74216  0.01734  3.90357     14.33354  1.65913  0.50497  4.05555  0.04336     0.01218   9901.82619   4389.99174  0.95431         4461.08083     19.33222  0.01194  55253.75384  2.37196  0.07031   505298.03408  45.60225  18.35045     55282.02    51.05099       44.62807   15.39103   20.6009   32.0    0.48522  -21.56416  0.99392 
   -8.39997  0.05365  4.28108     14.26869  1.91656  0.80205  2.26717  0.10156     0.02578  10173.30851   4261.92231  0.84916         4409.79928     16.46514    2e-05  55252.09603   1.3997  0.12164   946381.14459  45.31219  18.33416     55282.02    51.03479       44.58829   15.39103  21.16266   32.5    0.47196  -21.54291  0.98987 
   -7.59068  0.01235  3.90518     14.10444  1.72926  0.78375  1.54295  0.09772     0.02315    9821.7925   4304.82734  0.84529         4568.83258     17.88806  0.00043  55252.90532  0.88789  0.01905  1513841.68381  45.14334  18.37179  55282.11025    50.99293       44.52005    17.3149  22.92765   33.0    0.45711  -21.55443  0.99843 
   -8.22907  0.00117  4.15881     14.15303  1.92408  1.14153   1.6993   0.1295     0.02554   9388.65488   4097.57496   0.8818          4506.0903     16.42126    1e-05  55252.26693  0.89352  0.00199  1527270.82977  45.13121  18.33792  55282.11025    51.00543       44.53992    17.3149  22.11444   31.5    0.48402  -21.54434  0.99984 
   -6.64368   0.0064  3.81037     14.39549  1.78613  0.65023  7.04608  0.03545     0.01043   9418.81701   3217.56564  0.98395         4609.00531     18.09286  0.00069  55253.85232  3.72879  0.04509   389661.43965  45.76814  18.34091     55282.02    51.01307       44.58433   14.69828  19.93153   31.5    0.48968  -21.56998  0.99669 
   -7.38327  0.00507  4.34313     14.34314  1.90426  0.58108  3.66678  0.04978     0.01317  10099.06652   4318.62319  0.95649         4346.12316     16.32684    1e-05  55253.11273  2.23087  0.01859   686871.80898  45.43609  18.32235  55282.11025    51.02355       44.57589   16.62216  21.85541   32.0     0.4647  -21.56015  0.99837 
   -6.88485  0.00981  4.11891     14.48127  1.78351  0.42401  4.23242  0.05392     0.01429  10158.85705   4329.02602  0.99164         4359.59431     18.95681  0.00503  55253.61115  2.60559  0.04151   306273.82259  45.80445  18.30651     55282.02    51.03469       44.60784   14.69828  19.93153   31.5    0.47695  -21.57176  0.99641 
   -7.70111  0.00885  3.80825     14.02858   1.6884  1.05715  2.32788  0.07439     0.01939  10427.61601   4155.79827  0.79716         4293.61946     19.40723  0.01419  55252.79489  1.50994  0.02061  1993379.71128  45.03528  18.36455  55282.11025    51.03044       44.57598   15.39103  23.08654   32.5    0.45769  -21.55469  0.99833 
   -7.85211  0.00292  3.66209     13.97685  1.54209  1.03887  1.40404  0.12257     0.03254   10331.0346   4423.51038   0.8477         4363.75601     17.82707  0.00037  55252.64389  0.89391   0.0041    2136374.821  44.99982  18.35037     55282.02    51.00557       44.57124   14.69828  21.85541   33.0    0.46575  -21.54529  0.99965 
   -8.20546   0.0105  3.06647     14.00916  1.27504    0.833   2.3151  0.09997     0.02081   9252.34657   4272.10705  0.96761         4494.11208     16.17584    1e-05  55252.29054  1.18223   0.0243  1067304.83334   45.3728  18.32194  55282.11025    50.98415       44.52739   18.05259  21.37676   31.5    0.47169  -21.55306  0.99807 
   -6.03122  0.00812   4.1319     14.46333  1.76128   0.4199  1.33874  0.13238     0.03869   9859.78243   4355.53751  1.06494         4369.06183     19.23559  0.00956  55254.46478  0.77635  0.01088   330584.38278  45.76309  18.29735     55282.02    51.00183       44.55353   15.39103  21.37686   32.0    0.48418  -21.57627  0.99903 
   -8.33369  0.00364  3.09386     13.76526  1.30647  1.51168  2.15842   0.0856     0.01579   9819.76184   4465.28933  0.79189         4532.56104      17.1042    7e-05  55252.16231  1.24155  0.00785  3422922.44896  44.86955  18.34079     55282.02    51.02968       44.59418   16.62216  19.93153   32.0    0.47468  -21.55028  0.99938 
   -7.53428  0.00623  3.96167     14.55252  1.78779  0.38522  4.08148  0.05986     0.01586   9959.45059   4318.12299  0.94267         4389.22394     17.44472  0.00015  55252.96172  2.41499  0.02543   204574.35314  46.01455   18.3506     55282.02    51.03218       44.58687   16.62216  19.93153   31.5    0.47712  -21.56291  0.99798 
   -5.87787  0.00378  3.06073     14.07777  1.40043  1.13498  2.38955  0.09752      0.0263   8867.54139   4433.65509  1.01899         4597.60669     18.07891  0.00067  55254.61813  1.12085  0.00904   851512.92502  45.51326  18.31099  55282.11025    51.02986       44.59012   16.62216  21.85541   31.0    0.48627  -21.55553  0.99938 
    -7.0834  0.00894  3.09735     14.35831  1.53395  0.67052  3.96055  0.08902     0.02381   8925.74991   4456.56253  1.27255         4417.77876     17.44959  0.00016   55253.4126  1.88223   0.0354   262419.38943  46.05368  18.34737     55282.02    51.01911       44.58648   16.62216  19.93153   30.0    0.46069   -21.5793  0.99785 
   -7.63339  0.00336  3.68697     14.47842  1.51453  0.25539   1.3789  0.11935     0.02901  10021.60778   4420.11417  0.94695         4417.05623     18.22826  0.00094  55252.86261   0.8261  0.00463   211153.06565  45.99119  18.34793     55282.02    51.01126       44.55604   16.62216  21.85541   32.5    0.46323  -21.54547  0.99958 
   -7.11248  0.00364  3.92566     14.69806  1.79394  0.24041  2.00632  0.09036       0.023   9459.22145   4267.52205   0.8764         4639.70008     19.64147  0.02433  55253.38352  1.07087   0.0073   103115.90895   46.3215  18.33476  55282.11025    51.02796       44.59439   16.62216  19.93153   32.0    0.47453  -21.57337  0.99943 
   -7.63887  0.00288  4.07225     14.21456  1.86743   1.2413  3.33316  0.08421     0.02272   9735.30955   4248.72563  1.06458         4298.68841     16.52564    2e-05  55252.85713  1.88444  0.00961  1070554.42808  45.29081  18.34559     55282.02    51.01952       44.58197   16.62216  19.93153   31.0      0.461  -21.55252  0.99924 
   -7.26483  0.00126  3.43417     14.27118  1.86419  1.49579  4.58873  0.08125     0.02505   9837.85529    4320.9395  0.93409         4414.77512     17.63268  0.00024  55253.23117  2.64924  0.00576   585570.69197  45.70011  18.32564     55282.02    51.04938       44.62563   15.39103   20.6009   30.0    0.46862  -21.54916  0.99968 
   -9.13393  0.01148  3.29421     14.35052   1.4193  0.39991  4.13157  0.05829      0.0102    8698.9281   4596.29089  1.10673         4401.00134      16.8186    4e-05  55251.36207  1.86498  0.04744   284674.76277  45.93107  18.33541  55282.11025    51.01234       44.57716   14.70316  21.85053   31.5    0.45476  -21.56094  0.99631 
   -8.06227  0.00188   3.8747     14.18186  1.75502   0.8468  2.23728  0.08899     0.01749   8944.46805   4458.51105  0.88489          4689.4577     16.03465    1e-05  55252.43373  1.06772   0.0042  1058900.70175  45.31179  18.32381     55282.02    51.01879       44.57938   16.62216  21.85541   31.5    0.46664  -21.53616  0.99967 
   -7.70176  0.00736  4.22375     14.23875  2.03652  1.53279  2.08772  0.13402     0.04098  10408.88271   4086.41301  0.81705         4399.48159     17.32877  0.00012  55252.79424   1.3493  0.01537   1123576.8594  45.27574  18.33381  55282.11025    51.02725       44.57526    17.3149  21.16266   32.0    0.48306  -21.55038  0.99886 
    -6.8022  0.00303  3.87936     14.74381  1.75644  0.24149  2.09061  0.10043     0.02949   9681.56456   4513.59014  0.93165         4471.59728     19.01487  0.00575   55253.6938  1.16894  0.00633    79864.97787   46.4336  18.34775     55282.02    51.00467       44.55961   16.62704  21.85053   32.0    0.49121   -21.5541   0.9995 
    -7.2281  0.08126  4.15487      14.4759  1.99153  0.64827   2.7393  0.11106     0.02674    9771.0077   4236.23423  1.09117         4328.62058     18.06888  0.00065   55253.2679  1.56007   0.2226   356708.92483   45.7786  18.36039     55282.02    51.01789       44.58508   16.62216  19.93153   30.5    0.47964  -21.57916  0.98374 
   -7.16619  0.13433  4.03396     14.01512  1.70818  1.47002  1.87406  0.09477     0.02221   9680.41895   4433.84649  0.96722         4447.39474      16.5139    2e-05  55253.32981  1.04761  0.25175  2407555.29416  44.90834  18.33485  55282.11025    50.99555       44.54077    17.3149  22.11444   32.0    0.47823  -21.54723  0.97805 
   -7.76624  0.00146  3.74623     14.46351  1.71141  0.26594  1.97816  0.08154     0.01386   9724.95149   4274.71361  0.87318         4423.97795     17.32618  0.00012  55252.72976    1.116  0.00289   263834.73288  45.93368  18.34727     55282.02    51.01518       44.56682   16.62216  21.85541   32.0    0.48343  -21.55266  0.99978 
   -7.64482  0.02601  3.89679     14.06665  1.70877  1.34075   1.4069  0.15371     0.03987  10054.32794   4135.56391  0.90444         4295.37209     17.65165  0.00025  55252.85118  0.84839   0.0366  1772629.51166   45.0715   18.3483     55282.02    51.02841       44.59421   16.62216  19.93153   32.0    0.47457  -21.54546  0.99698 
   -8.33112  0.02919  4.48112     14.22743  2.08603  0.92551  1.92589  0.10439     0.02457  10106.96015   4366.87997  0.87334         4298.69931     16.29306    1e-05  55252.16488  1.17355  0.05622  1364766.45143  45.15033  18.31839     55282.02    51.03951       44.61468   16.62216  19.93153   32.0    0.45919  -21.56405  0.99544 
   -8.61145  0.01717  3.63423     14.08415  1.57634  1.14771  4.55183  0.06193     0.01158   9042.58965   4274.60636  1.15205         4403.46651     18.87148  0.00413  55251.88455  2.22024  0.07814  1312150.61269  45.22769  18.34967     55282.02    51.01451       44.57602   16.62216  21.85541   30.5    0.46822  -21.56279  0.99371 
   -7.90535  0.00532  3.34649     14.15601    1.475  0.83279  2.05325  0.13967     0.04048  10359.52544   4282.99072  0.85025         4305.85384       16.689    3e-05  55252.59065  1.31447  0.01093   747775.29086  45.51469   18.3266     55282.02    51.01297       44.56199   16.62704  21.85053   31.5    0.47781  -21.54007  0.99917 
   -7.09061  0.00157  4.31085     14.51598  2.02287  0.54282   3.5401  0.07159     0.02265  10465.31681   4317.89282  0.89686         4255.99939     18.62532  0.00234  55253.40539  2.31285  0.00554   324308.82704  45.79473  18.34653     55282.02     51.0189       44.58119   16.62216  19.93153   31.5    0.48084  -21.55147  0.99957 
   -7.09029  0.00508  3.41163     13.93739   1.4131  1.54854    2.987  0.06754     0.01839   9963.18131   4385.13037  0.95345         4431.68698     18.93743  0.00481  55253.40571  1.76872  0.01517   2037649.7926  45.04396  18.35902  55282.11025    51.04819       44.60863   15.39103  21.16266   31.5    0.49005  -21.57038  0.99872 
   -6.42701  0.02712  3.79065     14.20867  1.70986  0.97545  1.06078  0.22087      0.0729  10144.41176   4236.72344  0.91027         4487.18506     17.06242    6e-05  55254.06899  0.65119  0.02877   872700.74309  45.40351  18.34401     55282.02    51.03868       44.59815   15.39103  21.16266   31.5    0.47713  -21.56956  0.99776 
   -8.28977  0.00146  3.96631      14.0961  1.76983  0.91381  1.90151  0.09281     0.02114   9986.16405   4206.94807  0.87298         4250.53661     18.37398  0.00131  55252.20623  1.13116  0.00277  1660798.88118  45.09969  18.32283  55282.11025    51.00752        44.5567   16.62704  22.06473   32.5    0.47846  -21.54032  0.99977 
   -7.29076   0.0034  3.99511     14.23596  1.73645  0.86236   1.1363  0.22744      0.0594    9880.2177   4123.38412  1.02249         4316.01379     16.02371    1e-05  55253.20524  0.66169  0.00386   868191.14737  45.36683  18.33001     55282.02    51.03054       44.57743   15.39103  23.08654   31.5    0.47236  -21.53843  0.99967 
   -6.55719  0.01124  4.21944     14.64919   1.7909  0.27994  2.08106  0.08843     0.02579   9784.14765   4401.49077   0.9839         4560.32259     17.19922    9e-05  55253.93881  1.18838  0.02338   148941.10179  46.09839  18.35026     55282.02    51.06121       44.64437   15.39103   20.6009   32.5    0.47667  -21.55385  0.99789 
   -6.90743  0.00601  4.18574     14.14728  1.79669  1.19407  3.00024  0.07231     0.02001   9673.13722   3705.33813  1.04497         4466.89967     16.54823    2e-05  55253.58857  1.67463  0.01802  1483482.20906  45.10849   18.3147     55282.02    51.00581        44.5616    17.3149  21.16266   32.0    0.46118  -21.55756  0.99841 
    -7.3706  0.11915  4.03664     14.14024  1.86404  1.35911   3.6478  0.05706     0.01506   9702.79245   4066.91174  1.02447         4317.21836     20.15885  0.08009   55253.1254  2.04857  0.43463  1478541.48815  45.15743  18.36088     55282.02    51.00386       44.54558   16.62216  22.06961   32.5    0.47721  -21.61654  0.96729 
   -7.24942   0.0065  3.79354     14.34428  1.73561  0.66809  1.93611  0.13967     0.03824     9978.835     4308.605  0.94324         4502.89792     16.57406    2e-05  55253.24658  1.15005  0.01259   475102.63123  45.67342  18.35681     55282.02    51.02618       44.57607   15.39103  23.08654   31.0    0.48573  -21.57866  0.99904 
   -7.75051  0.03015  3.34386     13.99964  1.37322  1.01541  1.33738  0.17498     0.04912  10347.21354    4194.9613  0.88034         4383.03994     17.94323  0.00049  55252.74549  0.85414  0.04032  1428162.48855  45.20331  18.32933  55282.11025    51.00199       44.55818    17.3149  21.16266   31.5    0.47265  -21.55187   0.9966 
   -7.40672  0.00106  3.82697     13.89194  1.57994  1.51346  2.21215  0.08031     0.01783  10164.25069   4145.32355  1.02164         4383.90442     18.28702  0.00108  55253.08928  1.36331  0.00234  3534124.61503   44.7535  18.36072     55282.02    51.00442       44.55655   16.62216  21.85541   32.0    0.47358  -21.57191  0.99979 
   -7.78692  0.37956  3.85571     14.44146  1.65761  0.28911  1.18686  0.13635     0.03127  10471.29534   4317.59116   0.8084         4459.31834     17.55482   0.0002  55252.70908   0.7763  0.45048   299631.80551  45.83953  18.36062     55282.02    51.04494       44.61343   15.39103  21.16266   32.5    0.47618  -21.55189  0.96269 
   -8.24854  0.00201  4.07057     14.10318  1.84793  1.33321  1.24582  0.16211     0.03901   9683.91217   4525.24841  0.87339         4455.57285     17.44806  0.00016  55252.24746  0.69692   0.0025  1767907.21547  45.06876  18.36652  55282.11025    50.99781       44.52698   16.62704  22.80231   32.0    0.46951   -21.5467   0.9998 
   -6.14576   0.0126  4.04902     14.56284  1.91904  0.48966  2.67074  0.09894     0.03399  10188.69119   4091.46121  0.95282         4385.05209     18.18074  0.00084  55254.35024  1.65385  0.03366   218730.89926  45.99732  18.35697  55282.11025    51.02357       44.59802   14.69828  19.93153   31.5     0.4944  -21.56089   0.9975 
   -7.10398  0.00488  4.10086     14.18739  1.75269  0.68208  1.77098  0.09393     0.02114   9675.56425       4430.5  1.07349         4301.90468     17.29114  0.00011  55253.39202    0.989  0.00864  1154754.01155  45.22431  18.33733     55282.02    51.02461       44.57948   16.62216  21.85541   32.0    0.48504  -21.56193  0.99923 
   -7.08401  0.00176  4.06932     14.26388  1.70913   0.6986  2.36467   0.0835     0.03136  10688.61048   3964.63657  0.99616         4073.54222     16.63371    2e-05  55253.41199  1.61154  0.00415   779603.24814   45.3907   18.3267     55282.02    51.02757       44.58614   16.62704  21.85053   33.0    0.46676  -21.53788  0.99962 
   -6.16465  0.00726  3.57023     14.62855    1.786  0.41436  1.95764  0.16511     0.08313  10775.94078   3944.78049  0.91285          4269.0178     16.34547    1e-05  55254.33135  1.35604  0.01421   116945.04483  46.34735  18.33469  55282.11025    50.99505       44.54312   14.70316  22.06473   31.0    0.50353  -21.56737  0.99909 
   -7.05154  0.00152  3.73543     14.03376  1.71189  1.53833  3.19564  0.05839     0.01384   9810.74757   4628.13077   0.7375         4901.11387     18.22125  0.00092  55253.44446   1.8348  0.00486  1898657.70356  45.07919  18.32807  55282.11025     51.0116        44.5589   16.62216  21.85541   31.5    0.49135   -21.5783  0.99963 
   -7.11546  0.00105   3.8905     14.06431  1.61698  0.97038  1.57704  0.11708     0.02961   9920.30821   4076.15012   1.0581          4331.1221     17.68399  0.00027  55253.38054  0.92581  0.00165  1690104.71945  45.06963  18.34511     55282.02    51.01396       44.57648   16.62216  21.85541   31.5    0.49232  -21.57216  0.99985 
   -8.17075  0.00125  4.07221     14.24041  1.75938  0.61973  1.83072  0.11904     0.02184   9729.20918   4158.87296  1.08788         4206.79923     16.57084    2e-05  55252.32525  1.03372  0.00228   895388.16571  45.34253  18.35919     55282.02    51.02753       44.59157   15.39103  21.16266   31.5    0.47578  -21.56449   0.9998 
   -7.32569  0.00233  4.11528      14.2963  1.81232  0.52682  2.95643   0.0488     0.01195   9677.70012   4381.76531   0.8966         4538.90544     16.09535    1e-05  55253.17031  1.65173  0.00688   728182.04971  45.43604   18.3186  55282.11025    51.02027       44.58491   14.70316  21.85053   32.5    0.46842  -21.54203  0.99941 
   -6.70255  0.00222  4.48905     14.56199  1.92455  0.35554  2.71144  0.07113     0.01731   9775.93511    4285.2337  1.14639          4347.8237     18.11472  0.00072  55253.79345  1.54577  0.00601   270691.57676  45.81639  18.30689  55282.11025    50.98714       44.53701   15.39103  22.11444   31.5    0.47361  -21.58543  0.99944 
   -6.68297  0.00589  3.76298     14.20498  1.65654  0.82353  3.42483  0.06211      0.0151   9451.87671   4301.95326  0.91649         4797.94662     17.00759    6e-05  55253.81303  1.82517  0.02018   847461.71112  45.40886  18.34448     55282.02    51.02677       44.59889   15.39103  21.16266   31.0    0.48964  -21.57578  0.99838 
   -8.04786  0.01025  3.64361     14.08985  1.60831  0.87531  1.13704  0.17696     0.04484  10281.33664   4201.03659  0.75038         4372.50487      17.0519    6e-05  55252.44814  0.71697  0.01165   1310825.6558  45.23461  18.31851  55282.11025     51.0263        44.6032   14.69828  19.93153   32.0    0.46584  -21.53961  0.99907 
   -6.94572   0.0815  4.22063     14.25333  1.89923  0.85525  1.59307  0.12389     0.03838  10325.16948   4137.57192  0.82311         4562.52458     16.34077    1e-05  55253.55028  1.01311  0.12983      978353.63  45.30617  18.31821  55282.11025    51.00783       44.56384   16.62704  21.85053   32.5    0.47488  -21.56865  0.98936 
    -7.3338   0.0032  4.19882      14.4665  1.84005  0.46748  1.40335  0.15453     0.04533   10327.7228   4538.43931  0.97006         4232.30163     18.42187  0.00147   55253.1622   0.8929  0.00449   351477.19201  45.74152  18.34267  55282.11025    51.00901        44.5666   14.70316  21.85053   32.0    0.47319  -21.55507  0.99961 
   -7.73259  0.00598   3.9871     14.08874  1.70087  0.71983  3.95326  0.04221     0.01007  10690.27281   4188.17462  0.99693          3968.8407     17.41442  0.00014  55252.76341  2.69501  0.02363  1668498.88771  45.07588  18.33662     55282.02    51.02154       44.58986   14.69828  19.93153   32.5    0.46714  -21.53175  0.99791 
   -7.43877  0.00181  4.59361     14.43994  2.08834  0.66501  4.83223  0.05047     0.01425    9940.5933   4460.88502  1.01362         4312.78315     16.55819    2e-05  55253.05723  2.84839  0.00876   539569.65489  45.53229  18.35868  55282.11025    51.01893       44.56307   16.62216  21.85541   32.0    0.46921  -21.54505  0.99926 
   -7.31396  0.14619  3.92181     14.17449  1.72553  0.78595  1.03045  0.16016     0.04851  10236.80488   4338.48818  0.79043         4445.48475     16.61038    2e-05  55253.18204  0.64414  0.15064  1103370.71075  45.27607  18.33542     55282.02    51.03756       44.60574   15.39103  21.16266   33.5    0.46123  -21.54045  0.98767 
   -8.36164  0.01232  3.69053     14.28919  1.62675  0.58738  2.38481  0.09114     0.02329   9676.91799   4340.52131  0.87574         4606.55657     19.02641   0.0059  55252.13436  1.33216  0.02939    543170.9018  45.61105  18.34649  55282.11025    51.03062       44.58095   16.62704  21.85053   32.0    0.46788  -21.56318  0.99766 
   -7.65268  0.11874  4.22368      14.2601  1.90962  1.05506  1.40412  0.21636     0.05821  10290.52409   4394.89175  0.98476         4231.31986     16.17339    1e-05  55252.84332  0.88696  0.16673   954887.56749  45.31846  18.31563  55282.11025    51.02548       44.58175   14.69828  21.85541   31.5     0.4548  -21.53959  0.98652 
   -7.66687  0.02062   3.6643     14.10965  1.61966  1.22235  5.48721  0.05286     0.01301  10042.41555   4220.12044  1.01374         4272.97118     17.79497  0.00035  55252.82913  3.30108  0.11315  1218748.06704  45.26437  18.33385     55282.02    51.01444       44.57368   16.62216  21.85541   30.5    0.47166  -21.56557  0.99114 
   -6.51638  0.01231  4.16779     14.29239  1.77845   0.5596  1.57393  0.09457     0.02606   9831.49848   4288.53623  0.97621         4423.62603     16.18241    1e-05  55253.97962  0.90751  0.01938   746256.16796  45.40619  18.33329  55282.11025    51.00344       44.55154    17.3149  21.42322   33.0    0.45491  -21.54528  0.99826 
   -7.79092  0.03489  3.52217     14.05445  1.50896  1.01155  4.66298  0.04757     0.01062   9559.71001   4169.98007  0.93268          4548.7791     17.45732  0.00016  55252.70508  2.54202  0.16268  1352736.54595  45.22269  18.35777     55282.02    51.04819       44.61653   15.39103  21.16266   31.5    0.47396  -21.56842  0.98692 
   -5.95906  0.00217  3.68031     14.13661  1.66608  1.29031  2.70853  0.08517     0.03111  10319.17448   4278.60894  0.92549          4424.6352     18.37893  0.00133  55254.53694  1.72048  0.00587  1117016.09979  45.31071  18.35328     55282.02    51.02503         44.586   15.39103  21.16266   32.0    0.49027  -21.58234  0.99955 
   -8.13045  0.00452  3.36451     14.12378  1.51767  0.99944  1.32572    0.204     0.05579   9778.34243   4346.62661  0.89765         4335.01792     16.15597    1e-05  55252.36555  0.75615  0.00599   902124.23651  45.44091  18.33436  55282.11025    51.02165       44.56882   16.62216  21.85541   32.0    0.46921  -21.52849  0.99956 
   -6.55034  0.08352  3.88858     14.15492  1.60351  0.63488  1.02608  0.14699     0.04178  10320.48524   4239.26868  0.96128         4314.22005      18.2931  0.00109  55253.94566  0.65194  0.08569  1103132.82707  45.25171  18.31878     55282.02    51.00973       44.57896   14.70316  21.85053   33.0    0.47341  -21.54555  0.99222 
   -7.95074  0.00184  3.35021     14.11439  1.37007  0.48936  1.02493  0.19416     0.03164   9694.12599   4326.33464  1.04603         4415.16731     18.47116  0.00164  55252.54526  0.57456  0.00188   843198.50942  45.42951  18.34437  55282.11025    51.03559       44.59473   16.62704  21.85053   31.0    0.50528  -21.57809  0.99984 
    -6.3546  0.00363  4.26205     14.26784   1.9703  1.17638  1.40432  0.17143     0.04614   9170.51886   4036.09585  1.22263         4372.89973     19.07304  0.00657   55254.1414   0.7045   0.0051    968066.1592  45.31824  18.33294  55282.11025    51.01057       44.55236   16.62704  22.11108   31.0    0.47861  -21.58939  0.99959 
   -6.66192  0.00326  3.46313     13.88292  1.36601  1.46305  1.01441  0.16643     0.05422  10413.68438   4578.29231  0.91039         4427.43644     17.82318  0.00037  55253.83408  0.65622  0.00331  2608302.43126    44.909  18.33182  55282.11025    51.02015       44.57193   16.62216  21.85541   33.0    0.45612  -21.54373   0.9997 
   -6.50994  0.00383  3.45645     14.08883  1.54745  1.20843  1.13802  0.20473     0.07291   10402.3022   4342.00192  0.82762         4499.45479     17.28549  0.00011  55253.98606  0.73457  0.00436  1140339.53838  45.32417   18.3436     55282.02    51.04624       44.62213   15.39103   20.6009   32.0    0.48124  -21.56808  0.99967 
   -8.52748  0.25111  4.39495     14.06268  2.03473  1.52376  1.12198  0.16833     0.03325  10145.64065   4448.30574  0.79809          4240.0456     16.18544    1e-05  55251.96852  0.68892  0.28174  2734472.78854  44.85457  18.35919  55282.11025    50.98794       44.49229   16.62704  25.38261   32.0    0.48378  -21.52497  0.97748 
   -6.74352  0.00995  4.13393     13.97843   1.7036   1.4434  1.01055  0.15786       0.047  10523.90963    4209.8486  1.06915         4128.27854     17.53252  0.00019  55253.75248  0.66764  0.01005  2985660.16425  44.79245  18.32812     55282.02    51.03408       44.60323   16.62216  19.93153   33.0    0.46641  -21.55092  0.99905 
   -7.73452   0.0351  4.06496     14.45895  1.70405  0.29212    1.382  0.12713     0.02531   9926.41593   4215.82583  1.17176         4162.08086     17.29622  0.00011  55252.76148  0.81231  0.04851   315867.05566  45.78271  18.30722  55282.11025    50.98775       44.54845   15.39103  21.37686   32.0    0.49578  -21.55736  0.99556 
   -7.82479  0.01228  4.16478      14.3281   1.8862   0.7098  5.64847  0.03905     0.01021   9684.96468   4387.78952  0.93959         4471.96362     19.27624  0.01049  55252.67121  3.16049  0.06934   670482.58773  45.47886  18.34696  55282.11025    51.00954        44.5506   16.62216  21.85541   32.0    0.45995  -21.55906  0.99439 
   -7.05621  0.18804  4.19232      14.3599  1.78149  0.60728  5.20316  0.04226     0.01124   10455.4143   4253.35571  0.87169         4437.57411     17.27927  0.00011  55253.43979  3.39294  0.97842   554241.89304  45.53102  18.32452     55282.02    51.06202       44.65015   13.46715  20.08044   31.5    0.47967  -21.55922  0.91914 
   -6.56003  0.02703  4.24505     14.15537  1.79209  1.04582  1.87404  0.10312     0.02842   9876.00992   4512.06249  1.10063         4272.53418     16.60391    2e-05  55253.93597  1.09036  0.05065  1466220.14795  45.10024   18.3372  55282.11025    51.01147       44.56153   16.62704  21.85053   31.5    0.49069  -21.55541  0.99538 
   -7.76178  0.01867  3.89377     14.26267  1.61195  0.55991  1.71782  0.12635     0.02701   9606.26375   3929.77972  1.17077         4167.45256     16.86942    4e-05  55252.73422  0.94562  0.03206   676974.35675  45.46488    18.329     55282.02    51.03821       44.60996   15.39103  21.16266   31.5    0.47081  -21.55497   0.9971 
   -6.22037  0.04478   4.5321     14.47372  1.93597  0.38642  1.38649  0.10084     0.02928  10230.68543   4387.98843  1.07326         4139.91134     17.00479    6e-05  55254.27563  0.86567  0.06208   416739.43988  45.62328  18.32582  55282.11025    50.98196       44.52494   18.05259  21.64756   33.0    0.46914  -21.53455  0.99421 
   -6.75979  0.00325  3.01464     13.91228  1.28583  1.52254  2.16278  0.10042     0.02739   9692.01263   4264.21582  0.81582          4724.8677     18.99612  0.00551  55253.73621   1.2119  0.00703  1625193.31334  45.20865  18.34889  55282.11025    51.01742       44.56148   16.62216  21.85541   32.0    0.47696  -21.55568  0.99947 
   -6.18315  0.03088  3.37912     14.09067  1.42479  0.75348  1.71656  0.10242      0.0355  10629.00639   4260.37868  0.86981         4286.17448     19.85194  0.03951  55254.31285  1.15684  0.05301   995043.70404  45.36715   18.3751     55282.02    51.03892       44.57659    17.3149  23.08654   33.0    0.47683  -21.58277  0.99568 
   -8.20988  0.24855  4.25204     14.07741  1.80668  1.24426  0.74476  0.28279     0.06961  10073.57068   4055.89389  0.99527         4360.31693     16.43559    2e-05  55252.28612  0.45083  0.18511  2123598.40024  44.94146  18.34619     55282.02    51.00515       44.55775   16.62216  21.85541   32.0    0.45325  -21.56161  0.98342 
   -6.62459  0.00177  3.56744     13.89474  1.47157  1.00692  1.35377  0.10127     0.02218   9587.29131   4311.66446  1.00495         4626.17111     17.72813   0.0003  55253.87141  0.74227   0.0024   2823793.9586  44.88108  18.33375     55282.02    51.03487       44.60327   15.39103  21.16266   32.0    0.48408  -21.56962  0.99979 
   -8.81157  0.00352  4.69116     14.27966  2.13814  0.97789  1.77233  0.13998     0.03939   10563.3098   4145.16359  0.90797         4208.56298      18.2523  0.00099  55251.68443   1.1797  0.00623  1205313.94564  45.17522  18.32426  55282.11025     50.9917       44.55066   15.39103  21.37686   32.5     0.4559  -21.55087  0.99947 
   -6.40711  0.15075  3.98377     14.17662  1.69522  0.85704  1.15176  0.15459     0.04951  10251.75787   4130.39076  0.94638         4282.26948     16.79153    3e-05  55254.08889  0.72208  0.17363    1107644.196  45.25308  18.33264     55282.02    51.04283       44.62407   15.39103   20.6009   33.0    0.46865  -21.54844  0.98502 
   -7.13315  0.00133  4.23315     14.12299  1.89679  1.24495  3.33971  0.04801     0.01475   9848.86482   4086.12665   0.8347         4602.74928      18.3938  0.00138  55253.36285  1.93245  0.00445  1791369.25151  45.04035  18.34493  55282.11025    51.02358       44.57878   16.62704  21.85053   33.5    0.46521  -21.54015  0.99963 
   -6.71597  0.01438  3.70145     14.32619  1.57165  0.43062  0.86624  0.18704      0.0501   9992.48758   4288.76913    0.895         4604.83125     19.32706   0.0118  55253.78003  0.51596  0.01245   445187.75095  45.67991  18.30465  55282.11025     51.0062       44.55213   16.62704  22.06473   32.0    0.48228  -21.58234  0.99894 
   -7.13013  0.07383  4.29453     14.50569  1.88741   0.4185  4.13665  0.04551     0.01379  10299.54025   4295.55864  0.89571         4350.44179     18.77381   0.0033  55253.36587  2.61765  0.30542   314867.61982  45.78075  18.34103     55282.02    51.02986       44.58793   16.62216  21.85541   32.5    0.46371  -21.55619   0.9742 
   -8.40581  0.07734  3.71719     13.99267  1.60933  1.27328   2.0586  0.09333     0.02063   9556.70538   3899.02387  0.84952         4574.60442     17.95647   0.0005  55252.09019  1.12154  0.15922  2135763.38527  45.00551  18.35081  55282.11025     50.9787       44.52543    17.3149  22.11444   32.0    0.45645  -21.54048  0.98701 
   -7.14264  0.02044  4.35804     14.21168  2.03338  1.34236  5.39305  0.04259     0.01122  10070.33966   4267.49258  0.92863         4410.19212     18.25634    0.001  55253.35336  3.26249  0.11022  1352845.93914  45.16723  18.31786  55282.11025     51.0368       44.60782   14.69828  19.93153   31.5    0.48092  -21.58219  0.99131 
   -7.13491   0.0027  3.58982      14.0175   1.4824  0.88497  0.90289  0.17577     0.04507   9624.68594   4464.75832  0.93311          4512.3816     18.32988  0.00119  55253.36109  0.49892  0.00244  1636511.27896  45.11575  18.35195     55282.02    51.00143       44.55678   16.62216  21.85541   33.0    0.45813   -21.5402  0.99979 
   -8.16856  0.05922  3.69364     14.14323  1.68038  1.15983  3.39307  0.07488     0.01918   9608.03666   4339.18765  0.93054         4500.84952     17.12041    7e-05  55252.32744  1.86848  0.20093   1100697.8668  45.31768  18.33509     55282.02    51.00171       44.56412   14.69828  21.85541   31.5    0.45843   -21.5592  0.98498 
   -6.98689  0.00363   3.3368     14.00879  1.44264  0.84023  2.94262  0.05214     0.01281   9619.21895   4381.66092  0.80226         4670.59459     19.56438  0.02038  55253.50911  1.62421  0.01068  1432364.37403  45.22529  18.33404  55282.11025    50.99594       44.54348    17.3149  21.42322   32.5    0.47298   -21.5565  0.99916 
   -7.31595  0.00185  3.97393     13.95572   1.7086  1.54971  1.07408  0.16288      0.0355  10005.93863   3913.43312  1.01809         4318.21299     16.85272    4e-05  55253.18005  0.64147  0.00199  3072260.80929  44.81559  18.35717     55282.02    51.05684       44.61828   16.62216  19.93153   31.5     0.4866  -21.57952  0.99983 
   -8.48203  0.00926   4.3679     14.14211  1.91466  1.03581  2.67736  0.07622     0.01759   9913.11968   4326.96781  0.97131         4269.49485     16.28703    1e-05  55252.01397  1.56948  0.02479  1762949.05467  45.02415  18.31758  55282.11025    51.01828       44.56587   16.62704  21.85053   32.0     0.4583  -21.53786  0.99782 
   -8.45534  0.05678  3.24357     13.88081   1.3259  1.49945  3.34772  0.06516     0.01698  10226.21784   4063.46876   0.8867         4228.61393     16.25375    1e-05  55252.04066  2.08837  0.19007  2242609.51916  45.01856  18.35093  55282.11025    51.01374       44.56209   16.62216  21.85541   32.5    0.47067  -21.54156  0.98428 
   -7.11088  0.09619  4.39408     14.25798  1.92524  0.64416  1.17813  0.15083     0.03519  10421.93038   3797.11071  0.96169         4292.74086      16.2666    1e-05  55253.38512  0.76334  0.11332  1052171.15282  45.24551   18.3307  55282.11025    50.98555       44.53097    17.3149  22.11444   32.0    0.47792  -21.57094  0.99003 
   -7.59305  0.21426  3.91017      13.9308  1.62273  1.36468  1.37115  0.12308     0.03131  10423.66801   3998.50343  0.99839          4078.2463     16.73498    3e-05  55252.90295  0.88869  0.29378  3168427.15706  44.79386  18.35062     55282.02     51.0197        44.5773   16.62216  21.85541   33.0    0.46347  -21.54018  0.97395 
   -7.77768  0.13304    4.045     14.13215  1.83387  1.26955  1.28389  0.15272     0.04201   9790.56005   4365.48964  0.79301         4592.42607     17.22914    9e-05  55252.71832  0.73413  0.17081  1516082.92002  45.13766  18.34246     55282.02    51.03709        44.5962   15.39103  21.16266   33.0    0.46297  -21.52885   0.9865 
   -8.35801  0.00393  4.06875     14.11866  1.78713  1.48791  4.10958  0.06256     0.01506   9518.53181   4320.02107   1.0256         4350.98041     17.57998  0.00021  55252.13799  2.22108  0.01617   1590661.1742   45.1005  18.33237  55282.11025    51.01899       44.57916   14.70316  21.85053   32.0    0.44945  -21.53037  0.99864 
   -5.83025  0.13462  3.96299     14.62086  1.71334  0.31903  2.58477  0.08186     0.02974  10752.38643   4216.62856   0.8794           4216.938     17.48637  0.00017  55254.66575  1.78262  0.34796   143215.24703  46.15065  18.32701     55282.02    51.00165        44.5586    17.3149  21.16266   32.5    0.47794  -21.53784  0.97128 
   -7.46629  0.04721  4.01161     14.15416  1.80173  1.27728   3.3405  0.06801     0.01886   9736.78539   3975.78996  0.92001         4516.16344     16.47675    2e-05  55253.02971  1.88916  0.15771  1323807.93089  45.19607  18.35887     55280.57    51.00934       44.57079   15.39103  21.16266   32.0    0.47933  -21.55304  0.98742 
   -8.15626  0.02409  3.63085     13.99339  1.60005  0.86158  1.08665  0.16111     0.03108  10043.10289   4311.75159  0.83995          4495.9434     18.37107  0.00131  55252.33974  0.65381  0.02618  2019236.02453  45.04778  18.33246  55282.11025    51.03002       44.58172   14.69828  21.85541   32.0    0.48724  -21.57084   0.9979 
   -6.35368  0.06309  3.65939      14.1568  1.61008  1.23754   4.6657  0.05862     0.01753     9890.945   4186.01082  1.11079         4285.15057     17.34546  0.00012  55254.14232  2.72282  0.29434   972481.17011  45.36099  18.32252  55282.11025    51.06126       44.64006   16.62216  19.93153   31.0    0.49992  -21.55735   0.9772 
   -7.94358  0.10361  3.95225     14.28683  1.70857  0.62802  1.97872  0.11483     0.02695   9964.55659   4613.33387  0.94926         4423.58581     16.97016    5e-05  55252.55242    1.172  0.20502   661411.03638  45.48732  18.31989     55282.02    51.00073       44.55691   16.62704  21.85053   31.5    0.48283  -21.56906  0.98283 
   -7.01511  0.16215   4.0453     14.19526  1.72982   0.8355  0.99348  0.20843     0.06166  10670.49704   4559.71268  0.89819         4253.92218     17.67444  0.00026  55253.48089  0.67477  0.16109  1069534.96323  45.26375  18.33393  55282.11025    50.99166       44.53027    17.3149  22.11444   32.0    0.48995   -21.5555  0.98608 
   -6.85798  0.01401  3.08693      13.9404  1.28329  1.45328  1.21265  0.20573     0.05347      9520.21   4332.18484  1.02104         4524.74791     17.45058  0.00016  55253.63802  0.65562  0.01699  1494171.46033  45.22371  18.36159  55282.11025    50.99208       44.53127    17.3149  22.11444   31.0    0.48048  -21.56721  0.99865 
   -7.24601  0.00713  3.51963     14.58776  1.44696  0.21872  1.24911  0.15007     0.05033  10785.65646   4248.39866  0.80531         4336.06598      16.1598    1e-05  55253.24999   0.8668  0.00891   111108.17722  46.29056  18.30606  55282.11025    50.99657       44.51947   16.62704  23.61552   33.0    0.45262  -21.54262  0.99923 
   -8.12279  0.00485  3.61213     13.93036   1.5512  1.48372  4.09164   0.0441     0.01117  10045.60804   4487.18418  0.76802         4694.64532     17.08174    7e-05  55252.37321  2.46307  0.01983  2589968.60895  44.93069  18.35403     55282.02    51.03547       44.59775   15.39103  21.16266   32.5    0.44832  -21.55495  0.99836 
   -7.31618  0.07359   4.1767     14.10867  1.80891  1.15248  1.20506  0.15557     0.04455  10296.72485   4307.87841  0.89149         4376.26117     17.99772  0.00055  55253.17982  0.76214  0.08868  1776476.38877  45.03504   18.3252     55282.02    51.02059       44.58342   16.62216  19.93153   32.5    0.46381  -21.55008   0.9923 
   -8.67137   0.0336   3.5228      13.9004  1.46856   1.1281  1.09334  0.16959     0.03509   9747.90697   4267.61652  0.97627         4285.49471     16.01948    1e-05  55251.82463  0.61973  0.03674  2677178.90235  44.91428  18.33655     55282.02    51.05462       44.62679   16.62216  19.93153   32.5    0.46846  -21.54717  0.99686 
   -7.04074  0.00255  4.07794     14.15635  1.81205  1.00626  1.23557  0.16598     0.04534  10487.90469   4014.83219  0.85897         4339.88875     18.78837  0.00341  55253.45526  0.81072  0.00315  1361965.93245  45.17197  18.34355  55282.11025    51.00157       44.53754   16.62704  22.80231   31.5    0.48072  -21.56636  0.99974 
   -7.35917  0.00492  2.95902      13.7946  1.14721   1.1424  2.52854  0.07368     0.02099  10577.41587   4426.62954  0.85762         4342.13253     17.40622  0.00014  55253.13683  1.68755  0.01244  2401937.40903  45.00563  18.35049  55284.47604     51.0297        44.5623   16.62216  22.11596   32.0    0.46117  -21.55485  0.99892 
   -7.09655  0.37157   4.3883     14.30874  2.03119  0.81979  1.35718  0.14022     0.03638  10038.66769   4562.40137  0.78658         4664.60193     16.29525    1e-05  55253.39945  0.81586  0.50429   876341.57573  45.34933  18.31645     55282.02    51.02028       44.55535   16.62216  22.11596   32.0    0.48879  -21.56492  0.96078 
   -6.70378  0.10319  4.04414     14.00775  1.70526  1.48439  3.05825  0.05751     0.01493  10285.76314   4265.22213  0.91113         4415.21377      17.6162  0.00023  55253.79222  1.93007  0.31558  2498894.55318  44.88924  18.34901  55282.11025    51.03549       44.59364   16.62216  19.93153   32.0    0.47238  -21.55999  0.97241 
   -7.00187   0.0181  4.31758      14.4101  1.96517  0.63793  2.98937  0.06897     0.01787   9237.65908   4461.18364  1.05443         4435.12205     18.02536  0.00059  55253.49413   1.5217   0.0541    514627.4172  45.58027  18.35315  55282.11025    51.03111       44.57783   16.62216  21.85541   31.5    0.48872  -21.55685  0.99557 
   -8.14055   0.0022  3.87436     14.02004   1.7411  1.55106  1.34802  0.15169     0.02641   8911.73059   4452.38759   1.0888         4366.81459     19.75841  0.03185  55252.35545  0.63863  0.00296  2212888.57156  44.98831   18.3354     55282.02    51.03445       44.60441   16.62216  19.93153   31.0    0.47789  -21.58345  0.99976 
   -6.96929  0.00864  4.08509     14.06987  1.71351  1.09229  2.73476  0.06698     0.01934  10283.14344   4497.43374  0.95321          4344.4688     16.46987    2e-05  55253.52671  1.72503  0.02364  1924680.22005  44.99597  18.31738  55282.11025    51.00379       44.54132    17.3149  22.11444   33.0    0.46539   -21.5502  0.99785 
   -6.99976  0.00445   4.4539     14.12954  1.98298  1.44463  0.86695   0.2025     0.05285   9747.42246   4401.20875   0.9151         4430.85587     17.38378  0.00013  55253.49624  0.49136  0.00386  2011592.26422  44.96514  18.34221     55282.02    51.00942       44.56943   16.62704  21.85053   32.5    0.47579  -21.52804  0.99967 
   -7.75996  0.00231  3.90928     14.47969  1.66284   0.3185   3.2868  0.05854     0.01056   9028.77824   4424.12027  1.10146         4397.88548     16.81416    4e-05  55252.73604   1.5983  0.00758   259106.76849  45.89203   18.3373  55282.11025     51.0273        44.5926    17.3149  21.16266   31.5      0.495  -21.55183  0.99934 
   -7.69269  0.07862  4.30273     14.07402  1.86556  1.47297  2.81366  0.07012     0.01927   10518.3392   4354.41567  1.00155         4146.70696     19.58944  0.02159  55252.80331  1.85692   0.2212  2280732.47708  44.91409  18.35053  55282.11025    51.02467       44.57981   16.62216  21.85541   32.5    0.47515  -21.57761  0.98072 
   -6.97137  0.01163  3.95829     14.12958  1.77017  1.29066  2.70846  0.07325      0.0194   9244.82037   4330.67568   0.9338         4581.04105     16.45456    2e-05  55253.52463  1.38085   0.0315  1418059.02199  45.17015  18.33203     55282.02    51.03742       44.59056   16.62216  21.85541   32.5    0.47222  -21.53314  0.99746 
   -7.19805  0.01035  3.54129     14.36195  1.53762  0.38263  3.24106  0.05341     0.01136    9539.1346   4398.37619  0.90308         4510.17143     18.74654   0.0031  55253.29795  1.75927  0.03354   338125.41675  45.82829  18.33297  55282.11025    50.99192       44.51334    17.3149  23.08654   31.0    0.49464  -21.56744  0.99731 
    -7.1175   0.0017  4.15119     13.98921  1.81024  1.53866  1.59038  0.09846     0.02391   9961.37218   4307.61676  0.96114         4286.27756     16.75083    3e-05   55253.3785  0.94138  0.00271  3044169.60508  44.80677   18.3651  55282.11025    51.02269       44.56398   16.62216  21.85541   32.5    0.47191   -21.5425  0.99976 
   -7.83653  0.00551  3.85367     14.61124   1.6625  0.26411  2.46252  0.08249       0.018   9129.65092   4328.09863  1.02578         4537.52218       18.553  0.00198  55252.65947  1.22438  0.01356   137353.21471  46.18002  18.34958  55282.11025    51.02318       44.58082   16.62216  21.85541   31.5    0.47591  -21.56086  0.99886 
   -7.37837  0.48776  3.90836     13.94104  1.58464  1.21421  1.02844  0.18586     0.03816  10317.90959   4377.91483  1.13325         4008.97728     17.75754  0.00032  55253.11763  0.65311  0.50163  2948903.38909  44.81512  18.32062  55282.11025    51.02811       44.59341   14.69828  19.93153   31.5    0.49519  -21.55188  0.95484 
   -7.69497  0.40474  4.51938      14.1314  1.93131  1.37223  2.76917  0.07556     0.01758  10409.98348   4299.47617  0.87665         4308.33777     16.83927    4e-05  55252.80103   1.7901   1.1208  2000007.66739  44.94351  18.36002  55282.11025    51.00995       44.56249   16.62216  21.85541   32.0    0.48763  -21.54244  0.90567 
