 log(Bfield)      Mns    Pspin  cutoff_power  cutoff_wavelength  fnickel    kappa  kappagamma  mejecta  log(nhhost)  temperature  texplosion  thetaPB     vejecta      A_V        MJD_0   log(KE)     M_Ni  Peak_mag     Peak_MJD 
    13.61812  1.57343  2.74954       1.50434         5674.19906  0.00399  0.01017     0.14896  0.20891     20.26111   3269.23986   -26.12761  0.60276  1008.65242  0.10135  58043.37239   49.8147  0.04287  19.66888  58107.45238 
    13.94998  1.77203  3.24605       1.45672         5304.59599  0.00152  0.02893     0.45477  0.10095     18.44549   7895.07103   -36.14339  0.37831  1040.23248  0.00155  58033.35661  48.18384  0.00036  19.62468  58103.69048 
    13.61844  1.89312  3.17071       1.12705         5746.86619  0.02085  0.02594     0.36503  0.20081     19.52582   7798.31724   -40.16535  1.15394  1161.18477  0.01864  58029.33465  49.91329  0.21234  19.49425  58084.88095 
    13.64725  1.85372  3.30083       1.26409         5269.86222  0.00147  0.02533     0.38572  0.18108     16.44396   9122.16089   -34.80418  1.20806  1017.40663    2e-05  58034.69582   49.7295  0.01278  19.61022  58103.69048 
    13.58689  2.01773  3.31285       1.41163         5445.04607   0.0081  0.01896     0.23986  0.16431     17.27437   3992.70449    -57.0625  1.07693  1124.37682   0.0001   58012.4375  49.73969  0.05898  19.61816  58111.21429 
    13.49732  1.46369  3.13226       1.48064         5314.26796  0.01836  0.01568     0.40355  0.27526     18.81425    6058.0405   -16.54484  1.23348  1235.34875  0.00362  58052.95516   50.1278  0.27071  19.68003  58092.40476 
    14.04581   2.0045  3.70489       1.41741         5528.42894  0.00297  0.02133     0.44686  0.16667     17.34605   9760.92824   -29.95339  0.33443  1528.76823  0.00012  58039.54661  50.01868  0.02227  19.52818  58081.11905 
    13.60219  1.88506  3.36325       1.16104         5413.58764  0.00685  0.01004      0.1079   0.6795     16.02108   3949.04259    -52.2047  1.15544  1477.95506    1e-05   58017.2953  50.55918  0.19057  19.67159  58096.16667 
    13.54644  1.50987  2.83535          1.13         5278.15717  0.03984  0.03207     0.48863  0.23454     16.22445   8150.60226   -42.85886  1.14071  1210.83616    1e-05  58026.64114   50.0362  0.49513  19.69539  58107.45238 
    13.49792  1.52063  3.04475       1.21167         5523.76962  0.01522  0.01718     0.42848  0.38236      19.0884   8207.67129   -31.85433  0.93359  2120.32796  0.00681  58037.64567  50.71839  0.29667  19.61156  58099.92857 
    13.32759  1.33588  2.34924       1.37749         5442.39902  0.00829  0.01914     0.41496  0.11504     19.11129    9470.7728   -33.85307  1.05941  1202.08056  0.00718  58035.64693  49.26305  0.01762  19.64284  58103.69048 
    13.49892  1.69665   3.3515       1.19654         5281.82919  0.00145  0.01822      0.3508  0.36687     17.84223   3587.52982   -24.72445  1.31528  2102.76551  0.00039  58044.77555  50.69763  0.02744  19.67666  58103.69048 
    13.49561  1.77345   3.3735       1.52736         5510.16793  0.00976  0.01237     0.20741  0.23485     17.72941   4296.90675   -26.39261  1.52565   1234.3306   0.0003  58043.10739  50.05357  0.12146  19.52249  58092.40476 
    13.81322  1.30898  2.66561       1.35003          5367.0063  0.00397  0.01745     0.27284  0.23355     17.39749   6696.84313   -28.09282  0.35664  1238.63812  0.00014  58041.40718  50.05379  0.04909  19.58428  58107.45238 
    13.62568  1.80077  3.38315       1.70713         5457.59097  0.01776  0.01217     0.30895  0.14105     18.11553   7307.03044   -20.05269  0.90838  1050.23691  0.00072  58049.44731  49.52359  0.09011  19.58131      58099.5 
    13.52781    1.721   3.0761       1.45442         5442.48135  0.02098  0.02102     0.30274  0.11422     17.43012   8966.43333   -28.74151  0.87086  1185.71865  0.00015  58040.75849  49.22955  0.04245  19.67155  58084.88095 
    13.54596  1.88794  3.08375       0.89643         5372.47857  0.01503  0.02107     0.28506  0.34595     16.15697   7739.95127   -50.59922  1.16667  1748.29508    1e-05  58018.90078  50.51731  0.27121  19.66671  58103.69048 
    13.59861  1.95411  3.34023       1.26891         5345.08637  0.00197  0.02791     0.24573  0.14441     16.95994   7139.32781   -43.67393  1.23063  1044.67392    5e-05  58025.82607  49.54713  0.01068  19.56343  58103.69048 
    13.67976  1.56066  2.93199       1.62671         5447.30698  0.00401  0.01855     0.34137   0.1009     17.21318   6693.85067   -23.27872   0.5081  1164.26773    9e-05  58046.22128  48.26839  0.00092  19.62766  58099.92857 
    13.34997  1.16101  2.48196       1.51901         5352.14822  0.00158  0.01212     0.45541  0.24324     16.80467   5972.83775   -21.64051  0.96783  1333.96438    4e-05  58047.85949  50.13834  0.02048  19.64159  58088.64286 
    13.51644  1.57591  2.68368       1.29226         5259.89147  0.00897  0.03372     0.46842  0.14465     20.02431   3559.57018   -52.92104  1.04023  1043.58148  0.05875  58016.57896  49.54816  0.04878  19.53483  58088.64286 
    13.48318  1.70551  3.16376       1.18991         5897.70207  0.00143  0.01112     0.21058   0.4401     19.75033   7966.70175   -30.65821  1.40792  1591.26544  0.03126  58038.84179  50.51216  0.03069   19.6624  58111.21429 
      13.556  1.91964  3.75906       1.48011         5166.87874  0.00235  0.01786     0.46685  0.27702      17.2296   9574.22629   -29.24411  1.44878  1776.97503    9e-05  58040.25589   50.4463  0.03483  19.61464  58088.64286 
    13.44341  1.61439  2.94232        1.2838         5634.85764  0.01939  0.01902     0.29435  0.16489     16.60452     9756.777    -30.0973  1.53137  1133.99182    2e-05   58039.4027  49.75008  0.14219  19.41611  58073.59524 
     13.5393  1.79614  3.45144       1.05216         5288.44004  0.01039  0.01321     0.47073  0.63749     17.75456   7476.78482   -36.40501   1.4992  2147.59366  0.00032  58033.09499  50.86911  0.27931  19.68583  58107.45238 
    13.47471  1.69269  3.18834       1.37417         5614.79298  0.00958  0.01673     0.27981  0.24524     16.38372   6473.74401   -37.97036  1.25497  1465.01665    1e-05  58031.52964   50.2237  0.12524  19.41811  58062.30952 
    13.68796   1.7761  2.96824        1.4575         5658.84717   0.0013  0.01115     0.36217  0.14733     18.85493   4958.41695    -32.0816  0.60838  1072.49818  0.00398   58037.4184  49.59264  0.00741  19.54643  58088.64286 
    13.71146  1.68577  2.72858       1.08569         5513.94383  0.10812  0.03505      0.2936   0.2025     17.20102   9146.10856    -72.3769  0.69891  1174.52108    9e-05   57997.1231  49.92835  1.11407  19.68727  58103.69048 
    13.80964  1.78748  2.98411       1.01526         5780.91552  0.01922  0.03481     0.35808  0.17399     16.97994    3358.7234   -59.54512  0.49241  1386.41282    5e-05  58009.95488  49.96842  0.15585  19.64063      58099.5 
    13.32821  1.55036    2.614       1.25801         5186.80582  0.14466   0.0328     0.48851  0.14437     19.83701   6308.82408   -63.52603  1.43856   1511.0316  0.03817  58005.97397  49.86739  0.78266  19.41423  58077.35714 
    13.59802  1.78807  3.18903       1.39113         5293.16734  0.04016  0.02851     0.46864  0.12392     17.10792   7910.01535   -44.30411  0.98736    1085.064    7e-05  58025.19589  49.35184  0.12854  19.57089  58096.16667 
    13.46621  1.70336  3.11022       1.38875         5590.45077  0.00397  0.01186     0.16661  0.27517      19.5376   5865.02193   -28.90676  1.34652  1292.05672  0.01916  58040.59324  50.16664  0.05852  19.68877  58099.92857 
    13.60348  2.05665  3.69979       1.66804         5371.04492  0.03427  0.01505     0.33892  0.12401     16.13288   4004.58395   -22.57833  1.51882  1073.47332    1e-05  58046.92167  49.34393  0.11006  19.70422  58111.21429 
    13.67245   1.6909  2.77911       1.18239         5905.93782  0.01319  0.01968      0.2028  0.18352     17.19746   5147.27874   -57.82321  0.63362  1039.57873    9e-05  58011.67679   49.7578  0.11712  19.53283      58099.5 
    13.54222  1.81912  3.30254       1.29728         5714.00442  0.00502  0.03737     0.37044  0.10695      16.5237    9861.0367   -35.00886  1.37917  1104.65071    2e-05  58034.49114  48.89196  0.00537  19.62226  58107.45238 
    13.75468  1.66845  2.85641       1.42129         5168.79034   0.0022  0.02553     0.25237  0.14827     16.16937   9743.15055   -67.57553  0.51162  1062.81144    1e-05  58001.92447  49.59171  0.01276  19.50321  58088.64286 
    13.54585  1.78057  3.28686       1.53005         5202.94564  0.00446  0.01872     0.28993  0.17915     19.48278   4883.08196   -35.99442  1.10406  1363.47855  0.01689  58033.50558  49.97597  0.03804  19.48038  58088.64286 
    13.50341  1.63176  3.16834       1.54713          5446.5616  0.00254  0.01248     0.26732  0.28554     17.17664   9252.09299   -37.16587  1.06088  1376.01802    8e-05  58032.33413  50.23682   0.0388  19.55711  58088.64286 
    13.89945  1.77491  2.80815       1.09765         5776.58647   0.0133  0.01028     0.11982  0.47201     19.62034   9117.12065   -47.34884  0.46997  1031.06565  0.02318  58022.15116   50.1552  0.29985  19.72188  58096.16667 
    13.44659  1.47909  2.41481       1.09588         5966.85854   0.0022  0.01484     0.36465  0.27344     19.89495   8617.49203   -34.25165  1.46476  1009.08375  0.04362  58035.24835  49.94925  0.03218  19.54358  58096.16667 
    13.48173  1.67256  3.14824       1.45402         5561.22348   0.0021  0.01081      0.2328  0.30257     18.91885   7791.91033    -35.2465   1.4832  1291.75347  0.00461   58034.2535  50.20512  0.03386  19.67494      58099.5 
    13.39931  1.59067  2.71823       1.44612         5481.74041  0.16384  0.01859     0.32334  0.10134       17.576   9713.22374   -35.94623  1.20222  1000.85273  0.00021  58033.55377  48.24262  0.04794  19.70334  58107.45238 
    13.86389  1.61291   2.9641       1.08334         5460.20046  0.00358  0.01956     0.36109  0.30996     19.39874     5246.172   -30.24022  0.44915  1289.26048  0.01391  58039.25978  50.21275  0.05885   19.6361      58099.5 
    13.54653  1.75384  3.32244          1.47         5248.33996  0.00233  0.01695     0.40556  0.27554     19.43205   6701.77583   -33.90906  1.12683  1591.02208  0.01502  58035.59094  50.34801  0.03436  19.60726  58092.40476 
    13.58949  1.97102   3.5845       1.34541          5404.3181  0.11794  0.01755     0.27447  0.20173     17.59447   9441.72165     -29.451  1.45192  1206.00397  0.00022    58040.049  49.94901  1.20878  19.66755      58099.5 
    13.44526  1.62297  3.27967          1.36         5399.72164  0.00265  0.01183     0.34473  0.40191     17.65431   8041.42199   -22.56489  1.42335  1834.45544  0.00025  58046.93511  50.60837  0.05349  19.62234  58103.69048 
    13.80196  1.98667  3.58158        1.2784         5413.90238  0.02476   0.0292     0.44758  0.13752     17.60734   8079.25363   -29.74842  0.69228  1267.02001  0.00022  58039.75158  49.65396  0.11657  19.43015  58077.35714 
    13.66229   1.6613  2.93172       1.52053         5519.48809  0.00131  0.01307     0.38327  0.14835     19.22852   8051.32029    -31.0004  0.58741  1157.76205   0.0094   58038.4996  49.66657  0.00761   19.6858  58107.45238 
    13.98169  1.72549  2.96593       1.13761           5419.348  0.00652  0.01338     0.17666   0.3732     16.43183   6326.09713   -36.23316  0.39223  1133.33881    2e-05  58033.26684  50.16642  0.12491  19.53514  58084.88095 
     13.6006  1.81356  3.42573       1.30116         5415.75459  0.00535  0.01151      0.1768   0.4835     18.15308   5973.32283   -36.31479  0.97967  1657.14241  0.00079  58033.18521    50.574  0.12257  19.61575      58099.5 
    13.79272  1.68621   3.0131       1.19895         5350.52615  0.01453  0.01411     0.10481  0.38191     18.29269   6518.03424   -52.43498  0.49577  1181.10718  0.00109  58017.06502  50.20978   0.2831  19.62536  58107.45238 
    13.96644  1.64562   2.9194       1.27846         5440.76688  0.00413  0.01905     0.14353   0.2713     16.71683   6541.19132   -64.99781  0.32345  1037.10999    3e-05  58004.50219  49.96966  0.05999   19.6746  58107.45238 
    13.71221  1.93355  3.43467       0.41341         5466.04632  0.00189  0.01831     0.18696  1.22467     17.70309   9127.20567   -53.85676  0.94214  2347.38467  0.00028  58015.64324  51.07707  0.06855  19.34374   58039.7381 
    13.47699  1.78475  3.23253         1.339         5506.88342  0.01503  0.03161     0.42133  0.11514     16.83993   7626.28909   -35.89352  1.45884  1292.94919    4e-05  58033.60648  49.32884  0.03214  19.47983      58099.5 
    13.57281  1.60215   3.1352       0.60573         5954.84074  0.00311  0.01032     0.17602  1.69932     18.88113   3853.10421   -35.78762  0.78587  3351.00112  0.00423  58033.71238  51.43948  0.12782  19.62285  58092.40476 
    13.44697  1.47526  2.35647       1.08564         5395.94049  0.01705  0.03298     0.19459  0.20613     19.34787   8484.34136   -94.52031  0.87696  1210.29989  0.01238  57974.97969  49.96512  0.18011  19.80569  58107.45238 
    13.71827  1.66687   3.1946       1.46003         5424.71161  0.02616  0.02841     0.45524  0.11607     17.96952   3187.12938   -30.59116  0.57251  1272.24792  0.00052  58038.90884   49.3379  0.05899    19.712  58111.21429 
    13.53936   1.7516  2.98036       1.02921         5787.00679  0.00253  0.04713      0.4091   0.1375     16.17254   7813.83572   -55.69239  1.18158   1209.4189    1e-05  58013.80761  49.61335  0.01192  19.56872  58081.11905 
    13.65717   1.7013  2.70318       0.92808         5966.54779  0.08279  0.02767     0.45915   0.2532     17.53053   4111.84229   -68.90317  0.76564  1165.42663  0.00019  58000.59683  50.04008   1.1206  19.73556  58107.45238 
      13.701  1.90916  3.49843       1.45168         5156.44998   0.0015   0.0126     0.24834   0.2908     16.64686   3501.85804   -41.62792  0.83945  1042.27951    2e-05  58027.87208  50.00299  0.02326  19.55157  58088.64286 
    13.51735  1.74911    3.431       1.24116         5409.51372  0.00876  0.01468     0.21313  0.51339     16.44491   3627.35624   -36.55054  1.29295  1993.14011    2e-05  58032.94946  50.75051   0.2081  19.55968  58099.92857 
    13.54459  1.89655  3.61025        1.1875         5399.26659  0.00131  0.02171     0.41746  0.31358     19.04466   7267.45337   -32.08582  1.46314  2119.53081  0.00616  58037.41418  50.64896  0.02172  19.60779  58099.92857 
    13.49846  1.64167  3.04288       1.15961          5554.0614  0.00422   0.0337       0.477  0.16012      16.8218   8456.65224   -37.47644  1.20918   1373.2018    4e-05  58032.02356  49.89047  0.02916  19.49213  58077.35714 
    13.47317  1.68449  2.93046       1.48748         5546.67404  0.00145  0.01074     0.26859  0.17979     17.55187   8576.68552   -31.58829  1.25938  1019.34945   0.0002  58037.91171  49.72593  0.01249  19.65253  58092.40476 
    13.51594  1.78414  3.04911       1.12617         5624.05935  0.00206  0.01318     0.23308  0.34689     19.52175   8961.51926   -35.51704  1.09126  1526.42659  0.01847  58033.98296  50.40038  0.03723  19.63676      58099.5 
    13.58435  1.81869  3.31836       1.49931         5058.13414  0.00204  0.02415        0.29  0.22306      18.8309   7684.54125    -56.6951  1.48179  1104.85053  0.00376   58012.8049   49.9305  0.02388  19.56441      58099.5 
    13.45676  1.52671  2.81316       1.28867         5256.58604  0.00111  0.02678     0.36545   0.1609     18.64813   4573.91159   -45.89983   0.9487  1319.01968  0.00247  58023.60017  49.85989  0.00778   19.6613  58107.45238 
    13.47745  1.58941  2.70984       1.15987         5462.91515    0.006  0.02103     0.39586  0.19911     16.60859   6795.95157    -50.2171  1.46085  1097.18987    2e-05   58019.2829  49.85878  0.06033  19.48484  58092.40476 
    13.46411   1.3508  2.43851       1.62587         5479.18197  0.00865   0.0104     0.14641  0.16319     16.54742   4577.45063   -45.24112  0.62914  1004.10629    2e-05  58024.25888   49.6355  0.06214  19.50508  58084.88095 
    13.42677  1.56414  2.34972       1.03221         5560.29665  0.01896  0.04079     0.46102  0.10071     19.58388   5614.54622   -61.54817  1.30829  1002.31325  0.02131  58007.95183  48.08333  0.00383  19.65148  58096.16667 
     13.9097  1.72348   3.1593        1.5853           5219.278  0.03884  0.02469       0.421  0.11405     16.33174    5053.7455   -47.18714  0.37424  1177.43667    1e-05  58022.31286  49.21892  0.07775  19.59328  58088.64286 
    13.55715  1.86996  3.27189       1.27179         5496.26391  0.01493  0.02854     0.40403  0.13083     18.46445   9532.17409   -39.02183  1.08674  1311.17604  0.00162  58030.47817  49.61156   0.0595  19.68522  58111.21429 
     13.6234  1.81808  3.30809       1.24925          5484.2279  0.03952  0.01348     0.28438  0.31023     18.31242   3818.90638   -30.51176  1.22397   1041.3792  0.00114  58038.98824  50.02762  0.65109  19.52096  58073.59524 
    13.38616  1.49921  2.80829       1.49566         5460.98697   0.0026  0.01936     0.41289  0.10867     17.42987   9588.29838   -25.15961  1.14958  1186.93605  0.00015  58044.34039  49.03925  0.00339   19.5372  58088.64286 
    14.03678  1.96783  3.47857       1.02688         5699.68077  0.00199  0.05456     0.48923  0.11822     16.21347   9387.41789   -30.32991  0.40738  1346.29132    1e-05  58039.17009  49.43532    0.005  19.72105  58114.97619 
    13.47193  1.77276  2.96732       1.39949         5755.47883  0.00697  0.01682      0.4032  0.14517     18.37731   6269.84609   -43.22203  1.39844  1111.30293  0.00132  58026.27797  49.60692  0.03827  19.59894  58103.69048 
    13.39497  1.49517  2.51666       1.20968         5561.26302  0.00367  0.02088     0.30859  0.16025     18.70459   9376.09862    -51.3647   1.1759  1058.30118  0.00281   58018.1353  49.66496  0.02538  19.58031  58081.11905 
    13.86223  1.73772  2.93762       1.23312         4911.35614  0.03318  0.04184      0.4802  0.12126     19.90028   8329.51178   -40.56242  0.52877  1021.75424  0.04416  58028.93758  49.25485  0.09581  19.64951  58103.69048 
    13.70254  1.50718  2.82306       1.39793          5392.6938  0.00122    0.035     0.47987  0.11279     18.88861   9285.74641   -45.37555  0.45618  1459.24812   0.0043  58024.12445  49.36885  0.00224  19.52261      58099.5 
    13.41546  1.57225  2.50182       1.24505         5618.49321  0.00108  0.02202     0.41939  0.10085      20.0813   9362.40419     -27.012  0.89544  1227.15846  0.06699    58042.488  48.29947  0.00024  19.67838  58107.45238 
    13.55753  1.47848  2.25769       1.15594         5433.60239  0.00289  0.04191      0.4279  0.10552     20.33434   8995.77755   -65.36788  0.56856  1134.97294  0.11997  58004.13212  48.82867  0.00254  19.55732      58099.5 
    13.87232  1.67394  2.93626       1.50034         5334.43151  0.06346  0.01571     0.17592   0.2357     16.66309   7290.05096   -59.20993  0.37361  1226.38722    3e-05  58010.29007  50.04978  0.79323  19.57845  58096.16667 
    13.71044  1.81198  3.07232       1.16554         5367.91625  0.00409  0.01028     0.09287  0.44852     19.73179   6627.64302   -39.00108  0.66714  1179.53125  0.02996  58030.49892  50.25759  0.08911  19.57141  58096.16667 
    13.54289  1.67608  2.83337       1.31023         5334.11626  0.00317  0.01685     0.32611   0.3105     18.50501    7104.6729   -67.54041  1.11376  1215.98846  0.00178  58001.95959  50.16259  0.05228  19.54177  58062.30952 
    14.14521  1.81277  3.39461       1.61632         5360.18898  0.00402  0.01744     0.43379  0.14217     18.90519   6471.87408   -35.09193  0.25311  1013.39427  0.00447  58034.40807  49.50219  0.02086  19.64069  58092.40476 
     14.1078  2.00901  3.50458       1.23104         5261.74111  0.00132   0.0335     0.43301  0.14306     19.43403   5730.36397   -41.31401  0.30014  1210.82971  0.01509  58028.18599  49.66434  0.00698  19.49016  58077.35714 
    13.73722  1.69456  2.86337       1.08004         5732.41181  0.00115  0.02895     0.43763  0.15586     16.93255   5706.64951   -47.59734  0.50908  1391.73881    5e-05  58021.90266  49.87687  0.00747  19.58729  58092.40476 
    13.68031  1.77092  3.49451       1.41085         5120.35801  0.00316   0.0168     0.33279  0.50581     16.69372   5694.75945   -50.79168  0.79698  1891.23858    3e-05  58018.70832  50.70098  0.07436  19.60572  58103.69048 
    13.36738  1.54511  2.77327        1.4906         5535.18919  0.00292  0.01089     0.16475   0.2059      17.0964   4752.53676   -39.03965  1.32172  1102.43664    7e-05  58030.46035  49.88336  0.03076  19.50794  58099.92857 
    13.66657  1.80273  3.17905       0.99717         5448.48897  0.06543  0.03579     0.41908  0.19543     19.03924   4696.58293    -48.6169  0.81317  1442.86269  0.00608   58020.8831  50.08486  0.64054  19.66192  58088.64286 
    13.55021  1.29996  2.81268       1.31713         5649.37145  0.00902  0.01609     0.27998  0.28524     16.22098   3236.24988   -15.71895  0.80624  1205.13707    1e-05  58053.78105  50.12122  0.13762  19.69853  58103.69048 
    13.55942  1.49049  2.93196       1.05509         5488.47062  0.00955  0.01367     0.33465  0.52333     18.21164   5285.27131   -30.69903  0.75173  2304.73464   0.0009  58038.80097  50.88172  0.22956  19.51148  58103.69048 
    13.81667  1.55238  2.72213       1.25398          5550.5958  0.01003  0.02343      0.4328   0.1364     17.70626   6103.86103   -39.83195  0.35052  1268.46047  0.00028  58029.66805  49.64398  0.04602  19.48359      58069.5 
     13.5097  1.84453  3.24521       1.48298         5305.00565  0.00172  0.02472     0.39645  0.10606     19.76984   4277.67068   -29.26179  1.46854  1170.57365   0.0327  58040.23821  48.89041  0.00164  19.55112  58103.69048 
    14.19483  1.94649  3.68588       1.37392         5288.62889  0.00165  0.01321     0.26335  0.30243     17.92738   9577.76349   -17.22303   0.3141  1025.84044  0.00047  58052.27697  50.00475  0.02664  19.57716  58096.16667 
    13.61521  1.97205  3.31459       0.88005         5536.52622  0.00111   0.0252     0.38314  0.34007     18.94394   4499.16397   -57.37159   1.1331   1586.0732  0.00488  58012.12841  50.42673  0.01983  19.61336  58096.16667 
    13.35642   1.3686  2.68752       0.55512         5014.75596  0.00183  0.04316     0.46859  0.47661     19.28675    6706.3722   -51.37196  1.39986  2567.21641  0.01075  58018.12804  50.95025   0.0416  19.67475  58103.69048 
    13.55734  1.91464  3.49977       1.64797         5310.66877  0.03727  0.02274     0.48595  0.10859     18.73497   4700.52627   -38.81627  1.53838  1091.71194  0.00302  58030.68373  48.96301  0.04814  19.66362  58096.16667 
    13.47129  1.80953   3.2424       1.38434         5450.12696  0.02886  0.02505      0.4422  0.11523     17.02431   8243.79356   -27.37764  1.28242  1429.41727    6e-05  58042.12236  49.41854  0.06206  19.54005  58081.11905 
    13.49268  1.72825  3.17374       1.14132         5409.89105  0.00543  0.01962      0.4314  0.22841     18.35474   4629.21844   -23.22689   1.2717   1721.2017  0.00126  58046.27311   50.3281   0.0654  19.60437  58103.69048 
    13.48425  1.44742  2.70805       0.94987         5633.48697  0.00328  0.04263     0.42014  0.22466     18.09428   7476.31348   -62.49426  0.92468  1491.68862  0.00069  58007.00574  50.19507  0.03875  19.59369      58099.5 
    14.15124  1.61845  3.07854       1.39844         5429.03092  0.00183   0.0274     0.42438  0.16997     16.05162    8226.6216   -41.84608  0.23192  1189.87805    1e-05  58027.65392  49.81712  0.01422   19.5782  58088.64286 
    13.52596  1.51488  2.87353       1.17508         5394.20419  0.00112  0.02467      0.3613  0.20998     19.53953   8833.91526   -19.08242  1.39089  1149.69579  0.01924  58050.41758  49.93135  0.01211  19.63737  58088.64286 
    13.70117  1.49108  2.44803       1.08294         5340.55582  0.01294  0.03696     0.27354  0.15155     19.76407   6888.00673   -70.44243  0.48095  1058.60677  0.03227  57999.05757  49.61132  0.07907  19.53283      58099.5 
    13.74322   1.8436  3.49781       1.39579         5177.81704  0.00244  0.02473     0.39593  0.16709     16.26586   9101.26915   -22.44119  0.86011  1096.79561    1e-05  58047.05881  49.73232  0.01835   19.5037  58096.16667 
    13.55479  1.68571  2.84322       1.26905         5703.88566  0.00231  0.01473     0.19105  0.18739      18.3971   5425.42774   -38.42214  0.81457  1124.85987  0.00139  58031.07786  49.84078   0.0212  19.54453  58107.45238 
    13.93491  1.22393  2.43135        1.0437         5249.10174  0.00224  0.01184     0.34173  0.61257     17.29966   9034.64076    -26.9985  0.29949  1291.29534  0.00011   58042.5015  50.41784  0.05882   19.5945  58103.69048 
    13.56409  1.63055  3.01754       1.31112         5268.92026  0.00942  0.01525      0.2489  0.32574     17.37822    7874.7754   -43.95656  0.83567   1492.2522  0.00013  58025.54344  50.35831   0.1618  19.60894  58103.69048 
    13.46781  1.58808  3.31198       0.64816         5100.83104  0.00108  0.01645     0.23135  1.35317     18.90231    4561.6491   -29.63252  1.07649  3909.48487  0.00444  58039.86748  51.53706  0.04088  19.50762  58099.92857 
    13.35929  1.51418   2.9041       1.15527         5538.21179  0.00193  0.01384     0.25503  0.44799     19.25235   3968.90476   -37.32193  1.55214  1971.14346  0.00993  58032.17807  50.70327  0.04196  19.63188  58107.45238 
    13.49587  1.61864  3.37884       1.41215         5269.08494  0.00648    0.022     0.32921  0.21939     16.31259   5951.54315   -21.82826  1.20329  1608.63542    1e-05  58047.67174  50.24783  0.07433  19.67008      58099.5 
    13.56119  1.97888  3.33282       1.58899         5405.66835  0.13847  0.01926     0.39508  0.10399     19.72772   7294.65676   -39.70874  1.21786  1078.15415  0.02968  58029.79126   48.6647  0.09227  19.53435  58099.92857 
    13.46887  1.57359  2.98938       1.52751         5220.36556  0.00215  0.01977     0.45898  0.16146     16.12873   8612.18697    -38.7361  1.04183  1372.53263    1e-05   58030.7639  49.89754  0.01508  19.48388  58092.40476 
    13.56411  1.95138  3.45283       1.09682         5217.95891  0.00885  0.01159     0.19949   0.6688     16.01867   6723.58331   -54.82706  1.43772  1721.04862    1e-05  58014.67294  50.68784  0.24423   19.6618  58088.64286 
    13.78781  1.65895  2.83897       1.26056         5269.54942  0.01977  0.02699     0.28843  0.18654     19.53702   8631.59342   -67.69881  0.42363  1260.30543  0.01913  58001.80119  49.93642   0.1802   19.6874  58084.88095 
    13.51606   1.5208  2.80769       0.79365         5772.46031  0.00115  0.01227     0.21255  0.77628     17.32046    3831.3886   -48.21454  0.95459  1644.28132  0.00012  58021.28546  50.68088   0.0342  19.62838  58092.40476 
    13.61571  1.52455  2.71062        1.1587         5303.05457   0.0015  0.04103     0.47585  0.13008     16.66016   6534.51889   -54.39716  0.63103   1422.3022    3e-05  58015.10284    49.673  0.00586   19.5357  58096.16667 
    13.80288    1.848  3.35988       1.40046         5504.67733  0.02571  0.01736      0.3523  0.17155     17.63934    3159.8442   -27.21066  0.54251  1429.33601  0.00024  58042.28934  49.98382  0.20324   19.5581      58099.5 
    13.59754  1.89006  3.39657       1.47195          5423.9239  0.00161  0.02405     0.38716  0.11295     19.01868    7275.2498   -32.06723  0.97824  1179.45426   0.0058  58037.43277  49.18878    0.003   19.6536  58103.69048 
    13.49281  1.82197  3.02809       1.52664         5394.30323  0.00312  0.01377      0.1256  0.19151     17.25732   5379.30142   -59.79509  1.16144  1008.20409   0.0001  58009.70491  49.76031  0.02964  19.54126      58099.5 
    13.78985   1.8974  3.32268       1.28689           5826.693  0.00119  0.01589     0.28618  0.24675     16.02295   8618.38257    -37.8751  0.71807  1040.54971    1e-05   58031.6249  49.92948  0.01566  19.61714  58103.69048 
    14.00514   1.8641  3.24981       0.85376         5478.15664  0.00111  0.01673       0.236  0.64718     17.48168   7993.05614   -53.32846  0.37327  1705.62464  0.00017  58016.17154  50.67248  0.03006  19.44881  58062.30952 
    13.53467  1.90104  3.27565       1.31063         5964.18394  0.02181  0.02486     0.40939  0.13096      17.5209   3922.19216   -33.90181   1.4538  1351.84309  0.00018  58035.59819  49.63968  0.08725  19.60411  58096.16667 
    13.74736  1.91756  3.47005       1.42971         5582.77364  0.00222  0.02372      0.3744  0.10708     16.54963   9196.48798   -24.34032  0.69739  1096.05205    2e-05  58045.15968  48.89262  0.00242  19.62156  58088.64286 
    13.67923  2.01363  3.68601       1.36394         5321.77261  0.00162  0.02255     0.38777  0.25195     16.46166   5722.89997   -40.81476  0.89817  1769.18352    2e-05  58028.68524  50.40034  0.02186  19.51091  58084.88095 
    14.09799  2.07074  3.63727       1.24207         5633.73792  0.03483  0.01851     0.29221  0.34126     19.41802   9366.40009   -47.78167  0.32335  1750.96802  0.01455  58021.71833  50.51387  0.62178  19.65065  58088.64286 
    13.79843  1.90393  3.43428       1.09352         5464.11604  0.01151  0.01495     0.35883  0.53174     19.00629   7616.86761   -38.31519  0.77945  1338.75087  0.00564  58031.18481  50.41402  0.27919  19.46936  58081.11905 
    13.98955  1.43058  3.01338        1.4492          5175.5689  0.05703  0.03086      0.3597  0.16698     16.21029   7321.29478   -28.63255    0.313  1115.25835    1e-05  58040.86745  49.74631  0.42861  19.63096  58099.92857 
    13.77495  1.80888  3.63196       0.10919          5911.3858  0.00244  0.02187     0.38692  1.65269     16.23679   7770.76987   -32.76725  0.55267  4838.98406    1e-05  58036.73275  51.75436  0.09942  19.71325  58103.69048 
    13.73578  1.99088  3.63361       0.99812         5727.72304  0.00391  0.02753     0.49878  0.28062     17.01528    8680.1918   -36.60974   0.8463  1596.67016    6e-05  58032.89026  50.35879  0.05877  19.70191  58096.16667 
    13.54185   1.7295  2.80769        1.1926         5515.32423  0.02688  0.03412     0.39866  0.14218     18.92943   8027.09122   -70.12537  1.05214   1191.1604  0.00472  57999.37463  49.64274  0.13952   19.5075  58092.40476 
    13.54433  1.69597  3.02226       1.11229         5994.17532  0.00184  0.02725     0.25916  0.17063     18.53798   3823.24137   -35.93288  1.34981  1012.88783  0.00192  58033.56712  49.68039  0.01437  19.60603  58103.69048 
    13.48648  1.53742  3.11799       1.75483         5156.89404  0.10135  0.01648     0.39258  0.12213     17.33112   6691.56745   -21.13181  1.08641  1136.16674  0.00012  58048.36819  49.36238  0.30319   19.5878  58103.69048 
    14.05482  1.83965  3.01818       0.99001         5927.55842  0.01088  0.02482     0.30046  0.25287     18.93218   9991.00209   -56.03068  0.31686  1171.00309  0.00475  58013.46932   50.0436  0.14701  19.69735      58099.5 
    13.86103  2.17914   3.7856       1.42698         5250.20784  0.06345  0.03524     0.41313  0.10768     17.15277   6767.33998   -40.03492  0.64411  1236.26465    8e-05  58029.46508  49.02808  0.07425  19.53896  58092.40476 
    13.51209   1.8324  3.20435       1.42245         5710.63078  0.00163  0.02074      0.2942  0.11887     18.50142   6075.12368   -40.99841  1.17553  1028.19433  0.00176  58028.50159  49.21464  0.00423  19.58192      58099.5 
    13.91246  1.45637  2.85546        1.2922         5656.19264  0.00283  0.01526     0.29726  0.25175     18.94214   3963.44021   -14.67908  0.40041  1001.84827  0.00486  58054.82092  49.90602  0.03813  19.70001  58111.21429 
    13.57696  1.57229  2.82794       0.83973         5501.44334  0.00396  0.02141     0.45454  0.46219      19.0278   6775.86222   -49.49003  0.91314  1708.35884  0.00592  58020.00997  50.58789  0.08806  19.45799  58092.40476 
    13.48204  1.48769  2.94611       1.26002         5232.27939  0.00148  0.02837     0.36977  0.21544     19.01669   5470.71277   -43.44251  1.10975  1391.85939  0.00577  58026.05749  50.11204  0.01653   19.6575  58107.45238 
    13.68992  2.02686  3.25039       1.14607         5608.09292  0.00688  0.03388     0.46699  0.11432     17.06818   8632.43582   -46.38665  0.89839  1109.00932    6e-05  58023.11335  49.17419  0.01401  19.58123  58107.45238 
    13.60496  1.83638  3.23944       1.09939         5357.16074  0.00678  0.02398     0.23261  0.25972     18.89493   5716.29006   -40.76047  1.14725  1399.86936  0.00436  58028.73953  50.21091  0.09422  19.64718  58107.45238 
     13.6173  1.44525  2.25333       1.26956         5721.00458  0.00474  0.02171     0.28742  0.15584     19.89997   7297.68833   -61.98136  0.51205  1183.22319  0.04413  58007.51864  49.73576  0.03091  19.54453  58096.16667 
    13.47042  1.66062  3.00422       0.97177         5862.74623  0.00213   0.0177     0.37397  0.34798     16.27187   7354.51942   -36.21818   1.4825    1586.591    1e-05  58033.28182  50.43505  0.03858  19.63543  58096.16667 
    13.28113  1.19415  2.24717       1.41899           5602.186  0.00289  0.01978     0.45766  0.14347     16.32588   8103.20397   -49.86486  1.10085  1056.78673    1e-05  58019.63514  49.54957  0.01536  19.55264  58096.16667 
    13.65946  1.70155  3.44607       1.49678         5324.40784   0.0012  0.01825     0.32751   0.2165     18.97499   8695.57099   -21.91451  0.96196  1098.64033  0.00524  58047.58549   49.9093  0.01351  19.65933  58096.16667 
    13.49675  1.59558  3.16758       1.20717          5341.9736  0.00158  0.02019     0.38178  0.31173     19.30063    9991.3589   -28.03967  1.44297  1539.91915   0.0111  58041.46033  50.36923  0.02617  19.62964  58073.59524 
     13.6399  1.64957  3.20096       1.28536         5333.01143  0.00468  0.01799      0.2752  0.25382     18.62168   6083.57832   -23.63945  0.88719  1188.57243  0.00232  58045.86055  50.05829  0.06357  19.70378  58107.45238 
    13.50927  1.82219   2.7832       1.42237         5351.59442  0.00148  0.01648     0.14716  0.23505     19.14414   4064.02693   -88.92374  1.34387  1002.01905  0.00774  57980.57626  49.87288  0.01839  19.63249  58103.69048 
    13.51336  1.68544  3.33587       0.84229         5082.45934  0.00897  0.01748     0.42358  0.77341     16.63135   7447.34509   -33.44785  1.19677  2952.15523    2e-05  58036.05215  51.18843  0.26634  19.51552  58062.30952 
    13.60388  1.82553  3.60215       1.44402         5228.92865  0.00185  0.01358     0.22459    0.322     19.48009   8905.70566   -25.02918  1.36895  1141.78943  0.01678  58044.47082  50.12155  0.03144  19.66105  58099.92857 
