# Wavelength Flux
# STATUS = PUBLIC
# OBJECT = 2019aamx
# TELESCOPE = P200
# INSTRUMENT =
# DATE-OBS = 2019.0902
# MJD =
# EXPTIME =
# SLIT =
# DISPERSER =
# SOURCE = 2023ApJ...943...41C
# FILTER =
# FLUX_STANDARD =
# EXTINCTION_CORRECTED = False
# PHOTOMETRY_CALIBRATED =
# FLUX_UNITS = erg/s/cm^2/Angstroms
# QUALITY =
# MIN_WAVE =
# MAX_WAVE =
# COMMENT =
3400.0 2.0897e-17
3401.525 -1.866e-17
3403.05 6.4745e-18
3404.575 -1.3646e-17
3406.1 -4.6922e-18
3407.625 6.1941e-17
3409.15 3.9705e-17
3410.675 -7.5735e-18
3412.2 7.8118e-18
3413.725 3.6998e-17
3415.25 -1.1422e-17
3416.775 3.6647e-17
3418.3 5.5595e-17
3419.825 4.1416e-17
3421.35 7.5176e-18
3422.875 2.7276e-18
3424.4 1.3159e-17
3425.925 1.4757e-17
3427.45 -2.4882e-17
3428.975 6.0308e-17
3430.5 3.8052e-17
3432.025 3.6409e-17
3433.55 4.5617e-17
3435.075 5.3706e-17
3436.6 9.7937e-17
3438.125 7.1073e-17
3439.65 -1.5055e-17
3441.175 -3.9829e-17
3442.7 -1.1308e-17
3444.225 3.7793e-17
3445.75 3.7583e-17
3447.275 5.4853e-17
3448.8 1.9069e-17
3450.325 -1.6466e-17
3451.85 5.7972e-17
3453.375 2.7827e-17
3454.9 -1.7897e-17
3456.425 1.8055e-17
3457.95 6.5791e-17
3459.475 1.9833e-17
3461.0 -1.2532e-17
3462.525 4.8826e-17
3464.05 3.9466e-17
3465.575 2.9835e-17
3467.1 3.0124e-17
3468.625 3.5937e-17
3470.15 1.7104e-17
3471.675 3.7288e-17
3473.2 1.0921e-17
3474.725 2.6764e-17
3476.25 1.8957e-17
3477.775 2.9562e-17
3479.3 3.7231e-17
3480.825 2.4837e-17
3482.35 1.0299e-17
3483.875 3.2509e-17
3485.4 2.6957e-17
3486.925 2.0327e-17
3488.45 6.8887e-17
3489.975 -2.3344e-17
3491.5 6.6383e-17
3493.025 7.5196e-17
3494.55 1.9379e-17
3496.075 1.448e-17
3497.6 4.1239e-17
3499.125 3.0209e-17
3500.65 4.4037e-17
3502.175 3.5454e-17
3503.7 4.4605e-17
3505.225 4.2728e-17
3506.75 6.3155e-17
3508.275 9.0312e-17
3509.8 6.3241e-17
3511.325 1.8803e-17
3512.85 2.1075e-17
3514.375 1.6557e-17
3515.9 6.485e-17
3517.425 3.8819e-17
3518.95 6.5181e-17
3520.475 7.5559e-17
3522.0 5.4386e-17
3523.525 5.2538e-17
3525.05 3.8746e-17
3526.575 -2.94e-18
3528.1 3.3719e-17
3529.625 8.2179e-17
3531.15 5.1936e-17
3532.675 5.2526e-17
3534.2 4.9646e-17
3535.725 5.2244e-17
3537.25 5.1885e-17
3538.775 4.22e-17
3540.3 5.2911e-17
3541.825 4.8826e-17
3543.35 6.1718e-17
3544.875 1.4538e-17
3546.4 3.136e-17
3547.925 4.1012e-17
3549.45 2.5207e-17
3550.975 6.3557e-17
3552.5 5.8428e-17
3554.025 4.7274e-17
3555.55 4.0379e-17
3557.075 2.7582e-17
3558.6 -1.5447e-17
3560.125 4.0775e-17
3561.65 7.5112e-18
3563.175 3.0594e-18
3564.7 -4.3443e-18
3566.225 4.1108e-17
3567.75 4.2425e-17
3569.275 1.8736e-17
3570.8 1.9575e-17
3572.325 3.6682e-17
3573.85 8.8715e-17
3575.375 2.6994e-17
3576.9 3.671e-17
3578.425 3.2771e-17
3579.95 4.7367e-17
3581.475 7.3346e-17
3583.0 6.3641e-17
3584.525 3.4139e-17
3586.05 3.5307e-17
3587.575 5.8155e-17
3589.1 5.4447e-17
3590.625 4.8188e-17
3592.15 4.056e-17
3593.675 3.1966e-17
3595.2 3.4509e-17
3596.725 4.0822e-17
3598.25 5.608e-17
3599.775 5.2445e-17
3601.3 3.3965e-17
3602.825 3.8626e-17
3604.35 5.3817e-17
3605.875 4.0546e-17
3607.4 3.7087e-17
3608.925 1.5846e-17
3610.45 4.0039e-17
3611.975 4.5439e-17
3613.5 3.5653e-17
3615.025 3.6908e-17
3616.55 1.1037e-17
3618.075 3.1204e-17
3619.6 3.41e-17
3621.125 6.4393e-18
3622.65 -4.3475e-18
3624.175 6.5111e-17
3625.7 7.4321e-17
3627.225 3.3323e-17
3628.75 2.2796e-17
3630.275 2.3771e-17
3631.8 2.7022e-17
3633.325 3.4899e-17
3634.85 2.9663e-17
3636.375 3.8652e-17
3637.9 5.8436e-17
3639.425 6.881e-17
3640.95 5.8861e-17
3642.475 3.9326e-17
3644.0 1.8225e-17
3645.525 2.8927e-17
3647.05 4.7305e-17
3648.575 3.004e-17
3650.1 2.4184e-17
3651.625 3.3822e-17
3653.15 4.5672e-17
3654.675 4.7698e-17
3656.2 -9.4689e-18
3657.725 2.5936e-17
3659.25 3.4944e-17
3660.775 2.6792e-17
3662.3 3.9942e-17
3663.825 3.4519e-17
3665.35 7.4402e-18
3666.875 1.5865e-17
3668.4 2.372e-17
3669.925 2.9662e-17
3671.45 3.4185e-17
3672.975 4.7006e-17
3674.5 5.9062e-17
3676.025 3.5185e-17
3677.55 2.5422e-17
3679.075 3.0372e-17
3680.6 1.5006e-17
3682.125 2.3677e-17
3683.65 2.6472e-17
3685.175 2.1495e-17
3686.7 6.0823e-18
3688.225 3.7703e-17
3689.75 3.3518e-17
3691.275 3.6e-17
3692.8 3.4324e-17
3694.325 4.9668e-17
3695.85 5.0008e-17
3697.375 1.8596e-17
3698.9 6.2984e-18
3700.425 2.4008e-18
3701.95 3.192e-18
3703.475 6.4293e-18
3705.0 2.6798e-17
3706.525 2.2666e-17
3708.05 3.3654e-17
3709.575 2.5813e-17
3711.1 2.0409e-17
3712.625 2.6292e-17
3714.15 5.1247e-17
3715.675 3.5199e-17
3717.2 3.9639e-17
3718.725 2.991e-17
3720.25 3.3314e-17
3721.775 1.1027e-17
3723.3 2.0872e-17
3724.825 1.7214e-17
3726.35 2.6344e-17
3727.875 1.2846e-17
3729.4 2.3778e-17
3730.925 2.2129e-17
3732.45 3.1956e-17
3733.975 3.6671e-17
3735.5 2.3522e-17
3737.025 2.6833e-17
3738.55 3.7076e-17
3740.075 1.7605e-17
3741.6 -1.0402e-17
3743.125 8.9699e-18
3744.65 3.3602e-17
3746.175 2.6201e-17
3747.7 -7.2784e-18
3749.225 7.7622e-18
3750.75 4.1393e-17
3752.275 2.7345e-17
3753.8 9.3276e-18
3755.325 5.2681e-17
3756.85 1.891e-17
3758.375 1.1268e-17
3759.9 2.2585e-17
3761.425 3.306e-17
3762.95 2.7774e-17
3764.475 4.6473e-17
3766.0 2.9796e-17
3767.525 3.1796e-17
3769.05 2.7811e-17
3770.575 2.6732e-17
3772.1 2.7123e-17
3773.625 2.136e-17
3775.15 1.2429e-17
3776.675 3.3351e-17
3778.2 2.432e-17
3779.725 3.6052e-17
3781.25 4.9838e-17
3782.775 5.3233e-17
3784.3 6.0233e-17
3785.825 5.0276e-17
3787.35 5.0113e-17
3788.875 3.3372e-17
3790.4 3.675e-17
3791.925 5.0256e-17
3793.45 6.8719e-17
3794.975 5.051e-17
3796.5 2.2369e-17
3798.025 4.3261e-17
3799.55 2.9606e-17
3801.075 3.9973e-17
3802.6 4.2314e-17
3804.125 4.2163e-17
3805.65 3.2932e-17
3807.175 5.3215e-17
3808.7 5.5334e-17
3810.225 5.2796e-17
3811.75 5.4257e-17
3813.275 3.3949e-17
3814.8 3.2473e-17
3816.325 5.8334e-17
3817.85 7.6186e-17
3819.375 6.9057e-17
3820.9 4.8384e-17
3822.425 4.2537e-17
3823.95 4.1656e-17
3825.475 5.7436e-17
3827.0 5.1735e-17
3828.525 6.3977e-17
3830.05 6.8248e-17
3831.575 5.0458e-17
3833.1 6.5244e-17
3834.625 7.0514e-17
3836.15 5.7396e-17
3837.675 8.1714e-17
3839.2 6.4577e-17
3840.725 4.8772e-17
3842.25 6.0489e-17
3843.775 6.2848e-17
3845.3 6.5458e-17
3846.825 7.8367e-17
3848.35 8.7823e-17
3849.875 8.518e-17
3851.4 7.9074e-17
3852.925 7.3065e-17
3854.45 8.517e-17
3855.975 8.3073e-17
3857.5 6.7695e-17
3859.025 5.0829e-17
3860.55 6.7065e-17
3862.075 7.0285e-17
3863.6 5.9523e-17
3865.125 6.8437e-17
3866.65 8.9633e-17
3868.175 8.5905e-17
3869.7 9.5832e-17
3871.225 8.4831e-17
3872.75 7.8263e-17
3874.275 9.3237e-17
3875.8 1.0121e-16
3877.325 8.6986e-17
3878.85 6.2733e-17
3880.375 5.6519e-17
3881.9 7.9923e-17
3883.425 7.926e-17
3884.95 8.0031e-17
3886.475 8.861e-17
3888.0 9.357e-17
3889.525 1.0681e-16
3891.05 9.2691e-17
3892.575 7.455e-17
3894.1 9.2386e-17
3895.625 8.5579e-17
3897.15 7.0839e-17
3898.675 8.1892e-17
3900.2 8.9233e-17
3901.725 8.3745e-17
3903.25 7.8023e-17
3904.775 9.3686e-17
3906.3 1.0691e-16
3907.825 1.0823e-16
3909.35 8.6474e-17
3910.875 1.0613e-16
3912.4 1.1052e-16
3913.925 7.9307e-17
3915.45 8.4995e-17
3916.975 1.1504e-16
3918.5 8.1382e-17
3920.025 9.2965e-17
3921.55 9.3725e-17
3923.075 6.3165e-17
3924.6 9.0235e-17
3926.125 7.4811e-17
3927.65 8.1582e-17
3929.175 7.3826e-17
3930.7 8.7112e-17
3932.225 6.5286e-17
3933.75 5.4809e-17
3935.275 5.7316e-17
3936.8 5.6508e-17
3938.325 7.6433e-17
3939.85 7.0814e-17
3941.375 8.8535e-17
3942.9 1.0713e-16
3944.425 8.3454e-17
3945.95 7.0759e-17
3947.475 7.984e-17
3949.0 7.6597e-17
3950.525 9.5938e-17
3952.05 7.6858e-17
3953.575 8.9424e-17
3955.1 9.5674e-17
3956.625 9.5594e-17
3958.15 9.6021e-17
3959.675 1.1138e-16
3961.2 7.7718e-17
3962.725 7.9089e-17
3964.25 9.9602e-17
3965.775 8.2645e-17
3967.3 9.5061e-17
3968.825 7.5427e-17
3970.35 6.9922e-17
3971.875 8.601e-17
3973.4 8.5457e-17
3974.925 8.5053e-17
3976.45 9.9878e-17
3977.975 1.131e-16
3979.5 7.273e-17
3981.025 1.0908e-16
3982.55 9.552e-17
3984.075 9.4366e-17
3985.6 9.4548e-17
3987.125 9.6476e-17
3988.65 8.6153e-17
3990.175 7.6987e-17
3991.7 7.1781e-17
3993.225 8.9168e-17
3994.75 8.5956e-17
3996.275 7.6115e-17
3997.8 9.2452e-17
3999.325 1.1086e-16
4000.85 1.0427e-16
4002.375 9.6304e-17
4003.9 6.2357e-17
4005.425 7.1383e-17
4006.95 7.178e-17
4008.475 7.1536e-17
4010.0 7.163e-17
4011.525 7.6923e-17
4013.05 1.0206e-16
4014.575 8.5173e-17
4016.1 9.0442e-17
4017.625 7.5317e-17
4019.15 7.0345e-17
4020.675 9.318e-17
4022.2 9.3927e-17
4023.725 6.6955e-17
4025.25 9.7893e-17
4026.775 8.964e-17
4028.3 9.4982e-17
4029.825 1.1309e-16
4031.35 1.0964e-16
4032.875 9.6623e-17
4034.4 9.2281e-17
4035.925 8.7195e-17
4037.45 1.0692e-16
4038.975 8.1371e-17
4040.5 8.0549e-17
4042.025 7.4482e-17
4043.55 1.1807e-16
4045.075 1.3915e-16
4046.6 1.286e-16
4048.125 1.2097e-16
4049.65 8.9405e-17
4051.175 7.5654e-17
4052.7 8.5304e-17
4054.225 8.6255e-17
4055.75 8.9379e-17
4057.275 9.7899e-17
4058.8 6.9741e-17
4060.325 9.344e-17
4061.85 1.3636e-16
4063.375 1.1951e-16
4064.9 1.0955e-16
4066.425 1.0102e-16
4067.95 1.0039e-16
4069.475 9.7712e-17
4071.0 9.6951e-17
4072.525 1.1789e-16
4074.05 9.8628e-17
4075.575 1.0283e-16
4077.1 1.1745e-16
4078.625 1.1495e-16
4080.15 1.2339e-16
4081.675 9.3471e-17
4083.2 1.0213e-16
4084.725 1.2363e-16
4086.25 1.138e-16
4087.775 1.0826e-16
4089.3 1.0768e-16
4090.825 1.1962e-16
4092.35 1.1613e-16
4093.875 1.0482e-16
4095.4 9.418e-17
4096.925 9.0453e-17
4098.45 9.0434e-17
4099.975 8.0713e-17
4101.5 9.9299e-17
4103.025 1.1827e-16
4104.55 1.1439e-16
4106.075 9.6929e-17
4107.6 9.9061e-17
4109.125 1.0003e-16
4110.65 1.0756e-16
4112.175 1.0759e-16
4113.7 1.2222e-16
4115.225 1.1341e-16
4116.75 9.9175e-17
4118.275 1.0451e-16
4119.8 1.1441e-16
4121.325 1.0439e-16
4122.85 9.8559e-17
4124.375 1.0909e-16
4125.9 1.0389e-16
4127.425 1.0988e-16
4128.95 9.5925e-17
4130.475 8.6569e-17
4132.0 1.1637e-16
4133.525 1.0853e-16
4135.05 1.2202e-16
4136.575 1.0255e-16
4138.1 1.0126e-16
4139.625 9.8005e-17
4141.15 1.0571e-16
4142.675 6.942e-17
4144.2 1.1375e-16
4145.725 1.3462e-16
4147.25 1.2312e-16
4148.775 1.2337e-16
4150.3 1.0736e-16
4151.825 1.1163e-16
4153.35 1.191e-16
4154.875 1.0841e-16
4156.4 1.0915e-16
4157.925 1.1281e-16
4159.45 1.1111e-16
4160.975 1.1863e-16
4162.5 9.4727e-17
4164.025 1.1683e-16
4165.55 1.1439e-16
4167.075 9.8763e-17
4168.6 9.7833e-17
4170.125 7.9753e-17
4171.65 7.3682e-17
4173.175 6.7922e-17
4174.7 8.099e-17
4176.225 8.8855e-17
4177.75 8.6372e-17
4179.275 8.2996e-17
4180.8 1.0331e-16
4182.325 8.1697e-17
4183.85 8.0934e-17
4185.375 9.1835e-17
4186.9 8.1782e-17
4188.425 7.9068e-17
4189.95 9.2287e-17
4191.475 9.8737e-17
4193.0 7.6001e-17
4194.525 6.99e-17
4196.05 8.7058e-17
4197.575 8.3959e-17
4199.1 7.4782e-17
4200.625 8.9429e-17
4202.15 7.4597e-17
4203.675 7.8394e-17
4205.2 8.9675e-17
4206.725 8.9167e-17
4208.25 8.2765e-17
4209.775 7.3159e-17
4211.3 7.8604e-17
4212.825 7.2224e-17
4214.35 7.3901e-17
4215.875 6.3031e-17
4217.4 6.1357e-17
4218.925 7.2921e-17
4220.45 8.1808e-17
4221.975 8.781e-17
4223.5 8.0273e-17
4225.025 5.9741e-17
4226.55 6.8465e-17
4228.075 6.2485e-17
4229.6 5.1004e-17
4231.125 7.5336e-17
4232.65 6.9765e-17
4234.175 8.0133e-17
4235.7 6.1774e-17
4237.225 6.8058e-17
4238.75 8.4158e-17
4240.275 5.8693e-17
4241.8 6.6576e-17
4243.325 6.3523e-17
4244.85 7.7329e-17
4246.375 8.2127e-17
4247.9 6.249e-17
4249.425 7.9992e-17
4250.95 6.8536e-17
4252.475 3.4773e-17
4254.0 3.7257e-17
4255.525 8.3084e-17
4257.05 8.815e-17
4258.575 6.8054e-17
4260.1 6.6626e-17
4261.625 7.0794e-17
4263.15 6.967e-17
4264.675 7.2034e-17
4266.2 6.2013e-17
4267.725 8.0454e-17
4269.25 8.4943e-17
4270.775 7.2036e-17
4272.3 6.7612e-17
4273.825 8.8384e-17
4275.35 7.6885e-17
4276.875 8.4584e-17
4278.4 8.6826e-17
4279.925 7.4323e-17
4281.45 9.1176e-17
4282.975 9.3453e-17
4284.5 7.6151e-17
4286.025 5.9084e-17
4287.55 7.1075e-17
4289.075 7.5271e-17
4290.6 5.9318e-17
4292.125 4.4227e-17
4293.65 6.1775e-17
4295.175 6.1048e-17
4296.7 6.3332e-17
4298.225 6.0501e-17
4299.75 7.4691e-17
4301.275 6.661e-17
4302.8 6.9167e-17
4304.325 9.2488e-17
4305.85 1.0203e-16
4307.375 9.3348e-17
4308.9 9.6471e-17
4310.425 8.6555e-17
4311.95 9.5722e-17
4313.475 7.3042e-17
4315.0 7.3761e-17
4316.525 8.0651e-17
4318.05 7.8241e-17
4319.575 7.4677e-17
4321.1 8.5634e-17
4322.625 7.9758e-17
4324.15 7.3364e-17
4325.675 8.4425e-17
4327.2 7.9926e-17
4328.725 8.9176e-17
4330.25 7.1938e-17
4331.775 7.3943e-17
4333.3 8.4658e-17
4334.825 7.6584e-17
4336.35 6.0971e-17
4337.875 7.0609e-17
4339.4 7.5931e-17
4340.925 7.7929e-17
4342.45 7.124e-17
4343.975 5.2822e-17
4345.5 6.5151e-17
4347.025 8.814e-17
4348.55 6.8756e-17
4350.075 7.1786e-17
4351.6 6.7754e-17
4353.125 6.574e-17
4354.65 7.057e-17
4356.175 6.5431e-17
4357.7 1.4145e-16
4359.225 1.0372e-16
4360.75 5.3423e-17
4362.275 6.3275e-17
4363.8 7.3589e-17
4365.325 8.031e-17
4366.85 7.0839e-17
4368.375 4.3136e-17
4369.9 5.7335e-17
4371.425 6.3637e-17
4372.95 1.0656e-16
4374.475 9.5409e-17
4376.0 8.0601e-17
4377.525 8.4179e-17
4379.05 9.3503e-17
4380.575 1.0734e-16
4382.1 8.2127e-17
4383.625 9.9499e-17
4385.15 1.0808e-16
4386.675 1.0395e-16
4388.2 1.2199e-16
4389.725 1.1333e-16
4391.25 1.0958e-16
4392.775 1.136e-16
4394.3 1.3193e-16
4395.825 1.0498e-16
4397.35 7.8991e-17
4398.875 8.0504e-17
4400.4 9.4915e-17
4401.925 9.414e-17
4403.45 8.5896e-17
4404.975 1.0095e-16
4406.5 1.2966e-16
4408.025 1.2601e-16
4409.55 8.1032e-17
4411.075 8.0313e-17
4412.6 9.4578e-17
4414.125 8.4585e-17
4415.65 7.7518e-17
4417.175 1.0736e-16
4418.7 9.3839e-17
4420.225 6.6309e-17
4421.75 5.3177e-17
4423.275 1.0709e-16
4424.8 9.69e-17
4426.325 9.5154e-17
4427.85 9.3986e-17
4429.375 1.116e-16
4430.9 9.3438e-17
4432.425 1.064e-16
4433.95 1.056e-16
4435.475 9.7579e-17
4437.0 8.4874e-17
4438.525 9.1236e-17
4440.05 9.7296e-17
4441.575 1.1168e-16
4443.1 1.0258e-16
4444.625 1.1165e-16
4446.15 8.8064e-17
4447.675 5.8302e-17
4449.2 5.3035e-17
4450.725 8.8315e-17
4452.25 7.4827e-17
4453.775 9.2176e-17
4455.3 9.2213e-17
4456.825 1.1025e-16
4458.35 9.6407e-17
4459.875 8.7163e-17
4461.4 8.8219e-17
4462.925 9.0424e-17
4464.45 9.3977e-17
4465.975 8.2562e-17
4467.5 9.03e-17
4469.025 8.5584e-17
4470.55 7.5847e-17
4472.075 9.3049e-17
4473.6 8.4499e-17
4475.125 8.1016e-17
4476.65 8.8708e-17
4478.175 9.3633e-17
4479.7 9.5153e-17
4481.225 9.4073e-17
4482.75 1.0626e-16
4484.275 1.0239e-16
4485.8 7.3234e-17
4487.325 5.4654e-17
4488.85 7.1111e-17
4490.375 8.3194e-17
4491.9 9.6647e-17
4493.425 8.433e-17
4494.95 6.9698e-17
4496.475 8.345e-17
4498.0 8.4866e-17
4499.525 9.3627e-17
4501.05 6.2453e-17
4502.575 8.1538e-17
4504.1 6.2661e-17
4505.625 7.5497e-17
4507.15 8.0508e-17
4508.675 8.0423e-17
4510.2 1.0601e-16
4511.725 5.5963e-17
4513.25 6.7865e-17
4514.775 8.7852e-17
4516.3 6.5453e-17
4517.825 7.5373e-17
4519.35 8.3207e-17
4520.875 9.7769e-17
4522.4 5.9209e-17
4523.925 4.9131e-17
4525.45 5.3737e-17
4526.975 8.4798e-17
4528.5 1.0195e-16
4530.025 8.0141e-17
4531.55 1.1074e-16
4533.075 1.0107e-16
4534.6 9.8056e-17
4536.125 1.2322e-16
4537.65 1.197e-16
4539.175 1.0212e-16
4540.7 8.3446e-17
4542.225 6.9923e-17
4543.75 8.7738e-17
4545.275 1.3159e-16
4546.8 1.0468e-16
4548.325 9.0808e-17
4549.85 7.5892e-17
4551.375 7.8825e-17
4552.9 1.055e-16
4554.425 8.9496e-17
4555.95 5.7961e-17
4557.475 6.1678e-17
4559.0 8.237e-17
4560.525 6.6457e-17
4562.05 7.8625e-17
4563.575 7.6743e-17
4565.1 6.677e-17
4566.625 6.4364e-17
4568.15 6.2922e-17
4569.675 8.5016e-17
4571.2 9.4872e-17
4572.725 5.7214e-17
4574.25 8.3201e-17
4575.775 1.0309e-16
4577.3 7.5139e-17
4578.825 7.4798e-17
4580.35 7.5098e-17
4581.875 7.6427e-17
4583.4 9.0911e-17
4584.925 8.7115e-17
4586.45 7.5208e-17
4587.975 6.5867e-17
4589.5 7.2837e-17
4591.025 3.9164e-17
4592.55 6.4463e-17
4594.075 7.5784e-17
4595.6 6.1405e-17
4597.125 6.4822e-17
4598.65 4.2301e-17
4600.175 6.5536e-17
4601.7 9.6351e-17
4603.225 6.964e-17
4604.75 5.0787e-17
4606.275 7.421e-17
4607.8 1.0464e-16
4609.325 9.4573e-17
4610.85 7.5216e-17
4612.375 7.7196e-17
4613.9 7.5364e-17
4615.425 9.1328e-17
4616.95 8.5356e-17
4618.475 6.3166e-17
4620.0 6.1758e-17
4621.525 1.0246e-16
4623.05 8.3313e-17
4624.575 7.347e-17
4626.1 8.7712e-17
4627.625 9.4657e-17
4629.15 6.3958e-17
4630.675 7.0686e-17
4632.2 6.8246e-17
4633.725 8.1381e-17
4635.25 5.8479e-17
4636.775 6.7365e-17
4638.3 7.1805e-17
4639.825 7.5192e-17
4641.35 8.7003e-17
4642.875 9.0354e-17
4644.4 8.0197e-17
4645.925 7.1832e-17
4647.45 7.8178e-17
4648.975 6.7123e-17
4650.5 7.9221e-17
4652.025 5.4793e-17
4653.55 6.1506e-17
4655.075 7.4339e-17
4656.6 7.4534e-17
4658.125 7.4945e-17
4659.65 9.273e-17
4661.175 7.9132e-17
4662.7 8.952e-17
4664.225 6.1363e-17
4665.75 7.3639e-17
4667.275 8.7298e-17
4668.8 1.0875e-16
4670.325 9.0906e-17
4671.85 7.488e-17
4673.375 7.2949e-17
4674.9 7.1232e-17
4676.425 6.9073e-17
4677.95 7.9139e-17
4679.475 9.1383e-17
4681.0 1.1179e-16
4682.525 1.001e-16
4684.05 7.3806e-17
4685.575 9.1403e-17
4687.1 7.1706e-17
4688.625 8.2729e-17
4690.15 9.4422e-17
4691.675 8.2833e-17
4693.2 7.2831e-17
4694.725 6.2279e-17
4696.25 9.5636e-17
4697.775 9.1695e-17
4699.3 8.6674e-17
4700.825 6.5877e-17
4702.35 7.5309e-17
4703.875 7.5956e-17
4705.4 6.5992e-17
4706.925 6.1812e-17
4708.45 6.7927e-17
4709.975 5.9363e-17
4711.5 4.4253e-17
4713.025 8.7414e-17
4714.55 7.2198e-17
4716.075 5.7854e-17
4717.6 5.9311e-17
4719.125 8.1482e-17
4720.65 7.635e-17
4722.175 7.6273e-17
4723.7 8.3886e-17
4725.225 7.5677e-17
4726.75 5.8124e-17
4728.275 7.7057e-17
4729.8 5.8225e-17
4731.325 7.6307e-17
4732.85 7.98e-17
4734.375 7.9568e-17
4735.9 9.1178e-17
4737.425 6.1747e-17
4738.95 7.6603e-17
4740.475 9.4123e-17
4742.0 7.8954e-17
4743.525 6.122e-17
4745.05 7.8029e-17
4746.575 8.4633e-17
4748.1 7.9843e-17
4749.625 8.3252e-17
4751.15 6.497e-17
4752.675 7.5708e-17
4754.2 8.151e-17
4755.725 7.2707e-17
4757.25 7.0012e-17
4758.775 8.8456e-17
4760.3 7.5948e-17
4761.825 5.9083e-17
4763.35 6.1202e-17
4764.875 8.2444e-17
4766.4 8.9401e-17
4767.925 8.9627e-17
4769.45 5.6687e-17
4770.975 5.7838e-17
4772.5 7.5798e-17
4774.025 8.6398e-17
4775.55 9.1961e-17
4777.075 7.033e-17
4778.6 7.7081e-17
4780.125 7.2984e-17
4781.65 6.1702e-17
4783.175 8.5719e-17
4784.7 9.1054e-17
4786.225 8.7862e-17
4787.75 7.8632e-17
4789.275 6.4691e-17
4790.8 7.8521e-17
4792.325 7.2342e-17
4793.85 6.1904e-17
4795.375 6.1112e-17
4796.9 7.7913e-17
4798.425 8.5963e-17
4799.95 9.2656e-17
4801.475 6.8883e-17
4803.0 7.985e-17
4804.525 9.1695e-17
4806.05 7.7474e-17
4807.575 7.3524e-17
4809.1 8.1157e-17
4810.625 7.3093e-17
4812.15 8.2639e-17
4813.675 9.0841e-17
4815.2 6.059e-17
4816.725 7.3585e-17
4818.25 7.1537e-17
4819.775 6.9457e-17
4821.3 1.0195e-16
4822.825 7.4335e-17
4824.35 6.4431e-17
4825.875 7.2068e-17
4827.4 6.5389e-17
4828.925 6.7945e-17
4830.45 7.9814e-17
4831.975 1.0923e-16
4833.5 8.7777e-17
4835.025 6.8202e-17
4836.55 9.4962e-17
4838.075 8.698e-17
4839.6 8.2167e-17
4841.125 9.3617e-17
4842.65 8.3232e-17
4844.175 6.632e-17
4845.7 8.8089e-17
4847.225 9.5403e-17
4848.75 1.0186e-16
4850.275 9.5922e-17
4851.8 8.7517e-17
4853.325 1.1187e-16
4854.85 1.1406e-16
4856.375 1.0714e-16
4857.9 9.1795e-17
4859.425 9.2116e-17
4860.95 1.1502e-16
4862.475 9.5471e-17
4864.0 8.708e-17
4865.525 9.527e-17
4867.05 9.874e-17
4868.575 8.2294e-17
4870.1 8.2628e-17
4871.625 8.7862e-17
4873.15 9.8386e-17
4874.675 7.7421e-17
4876.2 8.7726e-17
4877.725 1.0152e-16
4879.25 1.0226e-16
4880.775 9.7555e-17
4882.3 8.7028e-17
4883.825 5.7435e-17
4885.35 8.333e-17
4886.875 8.6729e-17
4888.4 6.0874e-17
4889.925 8.3206e-17
4891.45 1.0025e-16
4892.975 8.4771e-17
4894.5 1.0466e-16
4896.025 1.0569e-16
4897.55 1.0605e-16
4899.075 8.6399e-17
4900.6 9.9592e-17
4902.125 9.5314e-17
4903.65 9.1345e-17
4905.175 1.0377e-16
4906.7 9.2271e-17
4908.225 9.9954e-17
4909.75 8.7447e-17
4911.275 8.8138e-17
4912.8 1.0519e-16
4914.325 1.1953e-16
4915.85 1.0676e-16
4917.375 9.8521e-17
4918.9 7.879e-17
4920.425 9.4706e-17
4921.95 8.2752e-17
4923.475 9.0261e-17
4925.0 9.0797e-17
4926.525 9.0569e-17
4928.05 8.1323e-17
4929.575 9.4653e-17
4931.1 1.1863e-16
4932.625 1.2597e-16
4934.15 1.1354e-16
4935.675 1.0881e-16
4937.2 1.0668e-16
4938.725 8.7937e-17
4940.25 9.6488e-17
4941.775 1.0568e-16
4943.3 9.6208e-17
4944.825 8.0424e-17
4946.35 9.7545e-17
4947.875 1.0282e-16
4949.4 9.2174e-17
4950.925 1.0542e-16
4952.45 1.0031e-16
4953.975 1.0205e-16
4955.5 9.9072e-17
4957.025 9.2765e-17
4958.55 9.1399e-17
4960.075 8.1333e-17
4961.6 8.4343e-17
4963.125 8.2386e-17
4964.65 1.1092e-16
4966.175 1.0465e-16
4967.7 9.0793e-17
4969.225 8.9732e-17
4970.75 1.1942e-16
4972.275 1.2009e-16
4973.8 1.0199e-16
4975.325 9.5989e-17
4976.85 1.0054e-16
4978.375 1.2228e-16
4979.9 1.1723e-16
4981.425 1.1093e-16
4982.95 1.0362e-16
4984.475 1.0145e-16
4986.0 1.2116e-16
4987.525 1.0471e-16
4989.05 1.0265e-16
4990.575 8.9482e-17
4992.1 8.4559e-17
4993.625 8.9907e-17
4995.15 1.0412e-16
4996.675 1.1209e-16
4998.2 1.0428e-16
4999.725 1.0178e-16
5001.25 1.1085e-16
5002.775 9.592e-17
5004.3 1.0717e-16
5005.825 9.6868e-17
5007.35 9.7162e-17
5008.875 1.064e-16
5010.4 7.8752e-17
5011.925 8.5781e-17
5013.45 1.0453e-16
5014.975 9.6964e-17
5016.5 9.957e-17
5018.025 9.6221e-17
5019.55 9.7094e-17
5021.075 1.0069e-16
5022.6 1.2193e-16
5024.125 9.9638e-17
5025.65 8.4206e-17
5027.175 9.1036e-17
5028.7 1.118e-16
5030.225 1.1296e-16
5031.75 1.1753e-16
5033.275 1.247e-16
5034.8 9.8263e-17
5036.325 7.735e-17
5037.85 1.0105e-16
5039.375 7.9951e-17
5040.9 9.4541e-17
5042.425 1.003e-16
5043.95 1.0654e-16
5045.475 1.1461e-16
5047.0 9.2589e-17
5048.525 8.2845e-17
5050.05 1.1521e-16
5051.575 1.1443e-16
5053.1 1.279e-16
5054.625 1.2063e-16
5056.15 1.0084e-16
5057.675 9.4892e-17
5059.2 1.0275e-16
5060.725 8.5032e-17
5062.25 1.0407e-16
5063.775 1.1926e-16
5065.3 1.1211e-16
5066.825 1.0043e-16
5068.35 9.6712e-17
5069.875 1.1108e-16
5071.4 9.4866e-17
5072.925 7.8521e-17
5074.45 8.2483e-17
5075.975 1.0581e-16
5077.5 9.1194e-17
5079.025 1.0039e-16
5080.55 1.1196e-16
5082.075 1.0221e-16
5083.6 1.1033e-16
5085.125 1.1206e-16
5086.65 1.0464e-16
5088.175 1.1833e-16
5089.7 1.1098e-16
5091.225 9.448e-17
5092.75 9.458e-17
5094.275 9.149e-17
5095.8 8.734e-17
5097.325 8.295e-17
5098.85 8.9705e-17
5100.375 1.215e-16
5101.9 1.0706e-16
5103.425 9.1883e-17
5104.95 9.5412e-17
5106.475 1.0875e-16
5108.0 9.9563e-17
5109.525 1.0557e-16
5111.05 1.1665e-16
5112.575 9.707e-17
5114.1 7.9847e-17
5115.625 1.1395e-16
5117.15 1.2183e-16
5118.675 1.0921e-16
5120.2 1.19e-16
5121.725 1.1266e-16
5123.25 1.0155e-16
5124.775 1.1049e-16
5126.3 1.1654e-16
5127.825 1.2556e-16
5129.35 1.3359e-16
5130.875 1.1818e-16
5132.4 8.6167e-17
5133.925 1.0304e-16
5135.45 1.104e-16
5136.975 1.1494e-16
5138.5 1.1641e-16
5140.025 1.1802e-16
5141.55 1.0416e-16
5143.075 8.9681e-17
5144.6 9.6147e-17
5146.125 1.1437e-16
5147.65 1.0951e-16
5149.175 9.4456e-17
5150.7 8.5189e-17
5152.225 1.0824e-16
5153.75 1.1717e-16
5155.275 9.4213e-17
5156.8 9.5856e-17
5158.325 1.2882e-16
5159.85 1.1517e-16
5161.375 9.2811e-17
5162.9 8.8167e-17
5164.425 8.3557e-17
5165.95 1.0309e-16
5167.475 1.0508e-16
5169.0 8.1872e-17
5170.525 8.1103e-17
5172.05 1.1704e-16
5173.575 9.2107e-17
5175.1 9.3163e-17
5176.625 1.0581e-16
5178.15 9.297e-17
5179.675 1.1451e-16
5181.2 1.1312e-16
5182.725 1.2005e-16
5184.25 1.3286e-16
5185.775 1.2298e-16
5187.3 9.3178e-17
5188.825 7.8193e-17
5190.35 9.151e-17
5191.875 9.1935e-17
5193.4 1.1046e-16
5194.925 1.1777e-16
5196.45 8.7575e-17
5197.975 6.993e-17
5199.5 9.1719e-17
5201.025 8.7848e-17
5202.55 6.7085e-17
5204.075 8.8468e-17
5205.6 1.1563e-16
5207.125 1.0031e-16
5208.65 9.6539e-17
5210.175 1.1032e-16
5211.7 1.0765e-16
5213.225 8.3975e-17
5214.75 1.1034e-16
5216.275 1.2557e-16
5217.8 7.2172e-17
5219.325 7.7958e-17
5220.85 9.3477e-17
5222.375 7.4346e-17
5223.9 1.0687e-16
5225.425 1.0361e-16
5226.95 1.0407e-16
5228.475 1.2324e-16
5230.0 1.0976e-16
5231.525 8.939e-17
5233.05 8.755e-17
5234.575 1.3438e-16
5236.1 1.2065e-16
5237.625 1.0385e-16
5239.15 1.0341e-16
5240.675 1.2304e-16
5242.2 1.2787e-16
5243.725 9.9204e-17
5245.25 8.8185e-17
5246.775 9.3454e-17
5248.3 1.1822e-16
5249.825 1.1435e-16
5251.35 9.8506e-17
5252.875 1.1749e-16
5254.4 1.1374e-16
5255.925 8.1077e-17
5257.45 9.6332e-17
5258.975 1.3143e-16
5260.5 1.0583e-16
5262.025 9.3157e-17
5263.55 1.1109e-16
5265.075 1.0912e-16
5266.6 8.2343e-17
5268.125 1.13e-16
5269.65 9.089e-17
5271.175 8.0027e-17
5272.7 1.1425e-16
5274.225 1.0239e-16
5275.75 8.8448e-17
5277.275 1.1557e-16
5278.8 7.6654e-17
5280.325 7.8392e-17
5281.85 8.8916e-17
5283.375 9.6939e-17
5284.9 1.1342e-16
5286.425 1.0727e-16
5287.95 8.7883e-17
5289.475 6.0882e-17
5291.0 6.8185e-17
5292.525 6.7808e-17
5294.05 7.1955e-17
5295.575 8.3171e-17
5297.1 1.1215e-16
5298.625 9.1024e-17
5300.15 6.6248e-17
5301.675 8.5993e-17
5303.2 9.6909e-17
5304.725 8.036e-17
5306.25 8.4621e-17
5307.775 9.3852e-17
5309.3 8.3695e-17
5310.825 8.9834e-17
5312.35 1.0294e-16
5313.875 1.2313e-16
5315.4 1.1281e-16
5316.925 8.3381e-17
5318.45 9.1906e-17
5319.975 1.0407e-16
5321.5 8.6306e-17
5323.025 9.2158e-17
5324.55 9.381e-17
5326.075 1.0892e-16
5327.6 1.052e-16
5329.125 9.4688e-17
5330.65 9.8687e-17
5332.175 1.0999e-16
5333.7 7.8802e-17
5335.225 9.1296e-17
5336.75 1.0173e-16
5338.275 1.0572e-16
5339.8 1.0934e-16
5341.325 1.1513e-16
5342.85 1.0617e-16
5344.375 9.9032e-17
5345.9 8.6683e-17
5347.425 1.1416e-16
5348.95 9.8389e-17
5350.475 1.0895e-16
5352.0 9.4428e-17
5353.525 1.1085e-16
5355.05 9.1701e-17
5356.575 8.2566e-17
5358.1 7.6189e-17
5359.625 7.8148e-17
5361.15 8.3929e-17
5362.675 9.6901e-17
5364.2 9.3583e-17
5365.725 6.9401e-17
5367.25 8.0452e-17
5368.775 9.4831e-17
5370.3 9.64e-17
5371.825 9.7188e-17
5373.35 7.8982e-17
5374.875 5.9608e-17
5376.4 6.5793e-17
5377.925 1.146e-16
5379.45 9.5013e-17
5380.975 7.3904e-17
5382.5 1.0867e-16
5384.025 9.2507e-17
5385.55 9.9362e-17
5387.075 9.5621e-17
5388.6 9.7574e-17
5390.125 7.2106e-17
5391.65 8.6428e-17
5393.175 1.0423e-16
5394.7 8.3085e-17
5396.225 9.8107e-17
5397.75 1.0518e-16
5399.275 1.0936e-16
5400.8 1.0896e-16
5402.325 1.0919e-16
5403.85 1.0934e-16
5405.375 1.2648e-16
5406.9 1.1145e-16
5408.425 1.0486e-16
5409.95 8.9089e-17
5411.475 8.1595e-17
5413.0 9.1842e-17
5414.525 1.0681e-16
5416.05 1.0741e-16
5417.575 1.0439e-16
5419.1 1.2383e-16
5420.625 1.385e-16
5422.15 1.1304e-16
5423.675 9.4882e-17
5425.2 9.4519e-17
5426.725 9.5951e-17
5428.25 1.3934e-16
5429.775 1.3132e-16
5431.3 8.2514e-17
5432.825 1.0747e-16
5434.35 1.0809e-16
5435.875 9.9757e-17
5437.4 7.5736e-17
5438.925 8.3305e-17
5440.45 7.846e-17
5441.975 1.0153e-16
5443.5 7.7997e-17
5445.025 8.2709e-17
5446.55 9.0911e-17
5448.075 1.0524e-16
5449.6 1.1136e-16
5451.125 9.899e-17
5452.65 8.1369e-17
5454.175 9.26e-17
5455.7 9.4938e-17
5457.225 8.7475e-17
5458.75 1.3059e-16
5460.275 1.5529e-16
5461.8 8.1799e-17
5463.325 8.0672e-17
5464.85 1.273e-16
5466.375 1.6724e-16
5467.9 9.6071e-17
5469.425 1.2495e-16
5470.95 9.2543e-17
5472.475 9.6053e-17
5474.0 1.2574e-16
5475.525 1.1155e-16
5477.05 8.6201e-17
5478.575 9.2662e-17
5480.1 1.0327e-16
5481.625 1.2596e-16
5483.15 1.4117e-16
5484.675 1.1694e-16
5486.2 9.107e-17
5487.725 1.3312e-16
5489.25 1.3343e-16
5490.775 1.1352e-16
5492.3 1.1385e-16
5493.825 1.1779e-16
5495.35 9.9642e-17
5496.875 6.9487e-17
5498.4 6.1822e-17
5499.925 1.0558e-16
5501.45 9.9155e-17
5502.975 1.0859e-16
5504.5 9.6587e-17
5506.025 1.3161e-16
5507.55 1.3487e-16
5509.075 1.1261e-16
5510.6 1.1197e-16
5512.125 1.2018e-16
5513.65 1.035e-16
5515.175 1.147e-16
5516.7 1.2277e-16
5518.225 1.1775e-16
5519.75 9.4388e-17
5521.275 7.8e-17
5522.8 1.1315e-16
5524.325 1.1428e-16
5525.85 1.0122e-16
5527.375 1.0348e-16
5528.9 1.0158e-16
5530.425 1.1727e-16
5531.95 1.2226e-16
5533.475 1.3657e-16
5535.0 1.3317e-16
5536.525 1.0789e-16
5538.05 1.2076e-16
5539.575 1.3337e-16
5541.1 1.1974e-16
5542.625 1.1994e-16
5544.15 1.3581e-16
5545.675 1.0287e-16
5547.2 9.2056e-17
5548.725 8.6795e-17
5550.25 6.6363e-17
5551.775 7.6736e-17
5553.3 1.1815e-16
5554.825 1.2647e-16
5556.35 1.2884e-16
5557.875 1.4673e-16
5559.4 1.3116e-16
5560.925 1.1025e-16
5562.45 1.1152e-16
5563.975 1.3066e-16
5565.5 1.2238e-16
5567.025 1.0248e-16
5568.55 1.0553e-16
5570.075 1.0586e-16
5571.6 8.6422e-17
5573.125 1.0335e-16
5574.65 1.1984e-16
5576.175 1.4948e-16
5577.7 9.9763e-17
5579.225 1.0723e-16
5580.75 1.2985e-16
5582.275 1.0495e-16
5583.8 1.2355e-16
5585.325 1.0301e-16
5586.85 9.2539e-17
5588.375 1.1713e-16
5589.9 1.0426e-16
5591.425 1.2786e-16
5592.95 1.2145e-16
5594.475 8.404e-17
5596.0 1.1479e-16
5597.525 1.1732e-16
5599.05 1.1192e-16
5600.575 8.2037e-17
5602.1 6.839e-17
5603.625 7.0436e-17
5605.15 9.069e-17
5606.675 8.8465e-17
5608.2 7.8351e-17
5609.725 7.9594e-17
5611.25 9.4407e-17
5612.775 8.5529e-17
5614.3 9.4388e-17
5615.825 1.0868e-16
5617.35 1.0976e-16
5618.875 8.4232e-17
5620.4 8.9207e-17
5621.925 1.1287e-16
5623.45 1.2378e-16
5624.975 1.0545e-16
5626.5 1.0599e-16
5628.025 1.1083e-16
5629.55 8.755e-17
5631.075 1.0605e-16
5632.6 9.3736e-17
5634.125 8.868e-17
5635.65 1.1885e-16
5637.175 9.7247e-17
5638.7 1.091e-16
5640.225 9.5392e-17
5641.75 8.0836e-17
5643.275 9.9453e-17
5644.8 9.452e-17
5646.325 9.0689e-17
5647.85 8.682e-17
5649.375 6.6248e-17
5650.9 7.3995e-17
5652.425 1.0751e-16
5653.95 1.0763e-16
5655.475 9.2508e-17
5657.0 9.9195e-17
5658.525 1.0724e-16
5660.05 1.0588e-16
5661.575 8.9911e-17
5663.1 8.46e-17
5664.625 1.0139e-16
5666.15 9.6614e-17
5667.675 9.3101e-17
5669.2 9.2566e-17
5670.725 9.5548e-17
5672.25 8.5579e-17
5673.775 8.6799e-17
5675.3 1.048e-16
5676.825 1.1801e-16
5678.35 9.389e-17
5679.875 7.4897e-17
5681.4 8.8866e-17
5682.925 1.0405e-16
5684.45 8.0818e-17
5685.975 1.053e-16
5687.5 1.16e-16
5689.025 9.5914e-17
5690.55 8.9816e-17
5692.075 9.1241e-17
5693.6 9.7454e-17
5695.125 1.1404e-16
5696.65 1.0399e-16
5698.175 9.599e-17
5699.7 9.9378e-17
5701.225 9.7366e-17
5702.75 1.0168e-16
5704.275 1.0821e-16
5705.8 9.074e-17
5707.325 9.1013e-17
5708.85 1.009e-16
5710.375 1.0949e-16
5711.9 9.9806e-17
5713.425 9.1695e-17
5714.95 8.692e-17
5716.475 9.8731e-17
5718.0 1.1318e-16
5719.525 1.2813e-16
5721.05 1.2458e-16
5722.575 1.0333e-16
5724.1 7.7107e-17
5725.625 7.8346e-17
5727.15 1.0514e-16
5728.675 1.0333e-16
5730.2 9.1609e-17
5731.725 8.7938e-17
5733.25 1.0465e-16
5734.775 1.0451e-16
5736.3 1.0071e-16
5737.825 9.6146e-17
5739.35 9.146e-17
5740.875 9.9174e-17
5742.4 1.1277e-16
5743.925 1.0847e-16
5745.45 1.0902e-16
5746.975 1.1195e-16
5748.5 1.0338e-16
5750.025 9.6431e-17
5751.55 1.0878e-16
5753.075 1.1864e-16
5754.6 1.1432e-16
5756.125 1.0059e-16
5757.65 8.438e-17
5759.175 9.5224e-17
5760.7 1.0747e-16
5762.225 8.4596e-17
5763.75 9.0587e-17
5765.275 1.2428e-16
5766.8 1.2652e-16
5768.325 1.1628e-16
5769.85 1.0132e-16
5771.375 1.1299e-16
5772.9 1.2123e-16
5774.425 1.1377e-16
5775.95 1.0907e-16
5777.475 1.1661e-16
5779.0 1.0579e-16
5780.525 9.5446e-17
5782.05 9.8129e-17
5783.575 9.5157e-17
5785.1 1.0355e-16
5786.625 9.2825e-17
5788.15 7.0296e-17
5789.675 8.8896e-17
5791.2 9.9128e-17
5792.725 1.0711e-16
5794.25 1.0831e-16
5795.775 1.0148e-16
5797.3 9.7981e-17
5798.825 1.0408e-16
5800.35 9.078e-17
5801.875 8.4527e-17
5803.4 1.0044e-16
5804.925 1.0224e-16
5806.45 8.9226e-17
5807.975 1.0361e-16
5809.5 1.1733e-16
5811.025 1.1442e-16
5812.55 1.0487e-16
5814.075 9.0686e-17
5815.6 9.4861e-17
5817.125 1.1444e-16
5818.65 1.2191e-16
5820.175 1.2234e-16
5821.7 1.1738e-16
5823.225 1.0479e-16
5824.75 1.0403e-16
5826.275 1.1112e-16
5827.8 1.0529e-16
5829.325 1.0439e-16
5830.85 1.0485e-16
5832.375 9.9818e-17
5833.9 9.684e-17
5835.425 1.0934e-16
5836.95 1.1512e-16
5838.475 1.1216e-16
5840.0 1.175e-16
5841.525 1.1942e-16
5843.05 1.0209e-16
5844.575 8.1591e-17
5846.1 9.0156e-17
5847.625 9.4738e-17
5849.15 9.6172e-17
5850.675 1.2071e-16
5852.2 1.1839e-16
5853.725 1.0786e-16
5855.25 1.1742e-16
5856.775 1.0172e-16
5858.3 9.5199e-17
5859.825 9.9772e-17
5861.35 8.7476e-17
5862.875 9.1435e-17
5864.4 9.6855e-17
5865.925 8.4698e-17
5867.45 9.2965e-17
5868.975 9.7329e-17
5870.5 1.0351e-16
5872.025 1.1201e-16
5873.55 1.0567e-16
5875.075 9.8996e-17
5876.6 1.0448e-16
5878.125 1.0432e-16
5879.65 9.814e-17
5881.175 1.028e-16
5882.7 1.0267e-16
5884.225 7.8056e-17
5885.75 6.8331e-17
5887.275 8.116e-17
5888.8 1.1958e-16
5890.325 1.6174e-16
5891.85 1.4716e-16
5893.375 1.5413e-16
5894.9 1.5829e-16
5896.425 1.074e-16
5897.95 8.4092e-17
5899.475 8.1068e-17
5901.0 8.7683e-17
5902.525 9.9925e-17
5904.05 1.0327e-16
5905.575 9.4748e-17
5907.1 9.3968e-17
5908.625 8.3596e-17
5910.15 8.1296e-17
5911.675 1.0649e-16
5913.2 1.0859e-16
5914.725 9.1806e-17
5916.25 1.0782e-16
5917.775 1.1869e-16
5919.3 1.0653e-16
5920.825 1.0523e-16
5922.35 9.7165e-17
5923.875 9.6137e-17
5925.4 1.1607e-16
5926.925 1.1263e-16
5928.45 8.8923e-17
5929.975 8.1925e-17
5931.5 9.3423e-17
5933.025 1.0032e-16
5934.55 8.4913e-17
5936.075 8.0867e-17
5937.6 8.8377e-17
5939.125 8.5026e-17
5940.65 8.3059e-17
5942.175 9.9045e-17
5943.7 9.3351e-17
5945.225 8.7669e-17
5946.75 9.682e-17
5948.275 9.8721e-17
5949.8 9.5906e-17
5951.325 9.9132e-17
5952.85 9.6988e-17
5954.375 9.5672e-17
5955.9 8.1966e-17
5957.425 7.3369e-17
5958.95 8.5281e-17
5960.475 8.7745e-17
5962.0 7.6252e-17
5963.525 7.5385e-17
5965.05 7.8477e-17
5966.575 9.5052e-17
5968.1 1.0743e-16
5969.625 7.9154e-17
5971.15 7.627e-17
5972.675 9.0855e-17
5974.2 8.816e-17
5975.725 9.2352e-17
5977.25 8.7973e-17
5978.775 6.4549e-17
5980.3 6.1054e-17
5981.825 8.4997e-17
5983.35 9.022e-17
5984.875 8.3796e-17
5986.4 8.3791e-17
5987.925 9.2393e-17
5989.45 9.5895e-17
5990.975 7.6752e-17
5992.5 7.1781e-17
5994.025 7.59e-17
5995.55 7.2222e-17
5997.075 7.9736e-17
5998.6 9.8617e-17
6000.125 9.8446e-17
6001.65 8.7935e-17
6003.175 7.7268e-17
6004.7 6.6601e-17
6006.225 7.486e-17
6007.75 6.5912e-17
6009.275 5.5479e-17
6010.8 7.0937e-17
6012.325 6.4316e-17
6013.85 6.7846e-17
6015.375 8.4566e-17
6016.9 8.6387e-17
6018.425 8.4044e-17
6019.95 7.7658e-17
6021.475 5.7221e-17
6023.0 7.8112e-17
6024.525 1.1101e-16
6026.05 8.8953e-17
6027.575 7.6292e-17
6029.1 7.5657e-17
6030.625 7.0218e-17
6032.15 8.007e-17
6033.675 8.8866e-17
6035.2 8.9003e-17
6036.725 9.3044e-17
6038.25 9.0891e-17
6039.775 8.1883e-17
6041.3 6.8292e-17
6042.825 6.5415e-17
6044.35 7.2507e-17
6045.875 6.626e-17
6047.4 6.944e-17
6048.925 6.7092e-17
6050.45 6.6826e-17
6051.975 8.0831e-17
6053.5 8.9222e-17
6055.025 8.7266e-17
6056.55 7.4943e-17
6058.075 7.3964e-17
6059.6 8.6471e-17
6061.125 9.1831e-17
6062.65 7.064e-17
6064.175 6.3926e-17
6065.7 8.0245e-17
6067.225 9.9743e-17
6068.75 8.3446e-17
6070.275 7.0374e-17
6071.8 8.3886e-17
6073.325 7.4422e-17
6074.85 6.2792e-17
6076.375 6.8566e-17
6077.9 7.6432e-17
6079.425 7.297e-17
6080.95 7.9113e-17
6082.475 8.3126e-17
6084.0 8.6068e-17
6085.525 8.3143e-17
6087.05 8.2308e-17
6088.575 8.8183e-17
6090.1 7.9657e-17
6091.625 7.2683e-17
6093.15 6.9419e-17
6094.675 6.2403e-17
6096.2 8.1212e-17
6097.725 9.0656e-17
6099.25 7.6382e-17
6100.775 7.9837e-17
6102.3 8.9367e-17
6103.825 8.5886e-17
6105.35 7.4857e-17
6106.875 8.2978e-17
6108.4 8.1844e-17
6109.925 6.2186e-17
6111.45 6.078e-17
6112.975 6.3956e-17
6114.5 7.0225e-17
6116.025 8.0876e-17
6117.55 9.1342e-17
6119.075 9.7409e-17
6120.6 1.0044e-16
6122.125 8.7052e-17
6123.65 7.609e-17
6125.175 7.9026e-17
6126.7 8.6991e-17
6128.225 9.4957e-17
6129.75 9.2786e-17
6131.275 9.0563e-17
6132.8 9.6281e-17
6134.325 8.8058e-17
6135.85 6.7948e-17
6137.375 6.8524e-17
6138.9 7.3474e-17
6140.425 8.2888e-17
6141.95 7.9771e-17
6143.475 7.8538e-17
6145.0 7.0901e-17
6146.525 5.8749e-17
6148.05 6.5022e-17
6149.575 8.3547e-17
6151.1 8.7938e-17
6152.625 9.0001e-17
6154.15 1.0131e-16
6155.675 7.7327e-17
6157.2 6.7241e-17
6158.725 8.2499e-17
6160.25 9.0857e-17
6161.775 9.2202e-17
6163.3 9.4894e-17
6164.825 8.1266e-17
6166.35 8.5869e-17
6167.875 1.0547e-16
6169.4 9.2591e-17
6170.925 8.0149e-17
6172.45 9.3693e-17
6173.975 9.4942e-17
6175.5 7.8318e-17
6177.025 6.8241e-17
6178.55 7.8872e-17
6180.075 8.81e-17
6181.6 8.3613e-17
6183.125 7.5759e-17
6184.65 8.4982e-17
6186.175 9.2447e-17
6187.7 8.9363e-17
6189.225 7.7926e-17
6190.75 7.6027e-17
6192.275 9.3654e-17
6193.8 9.8472e-17
6195.325 9.7029e-17
6196.85 9.9422e-17
6198.375 8.673e-17
6199.9 8.1838e-17
6201.425 9.5227e-17
6202.95 9.2963e-17
6204.475 8.4763e-17
6206.0 8.8111e-17
6207.525 9.5979e-17
6209.05 1.0546e-16
6210.575 1.092e-16
6212.1 1.008e-16
6213.625 9.136e-17
6215.15 9.0987e-17
6216.675 8.5517e-17
6218.2 8.9701e-17
6219.725 1.0599e-16
6221.25 9.5473e-17
6222.775 8.6024e-17
6224.3 9.4618e-17
6225.825 1.0025e-16
6227.35 1.007e-16
6228.875 9.7156e-17
6230.4 8.586e-17
6231.925 9.0156e-17
6233.45 9.998e-17
6234.975 1.0412e-16
6236.5 1.0639e-16
6238.025 9.8512e-17
6239.55 1.1792e-16
6241.075 1.2789e-16
6242.6 1.0461e-16
6244.125 8.0175e-17
6245.65 8.0892e-17
6247.175 8.9777e-17
6248.7 8.8474e-17
6250.225 1.0469e-16
6251.75 1.0626e-16
6253.275 8.9731e-17
6254.8 9.3396e-17
6256.325 1.0144e-16
6257.85 9.3208e-17
6259.375 9.9488e-17
6260.9 1.1112e-16
6262.425 1.1395e-16
6263.95 1.0007e-16
6265.475 9.5223e-17
6267.0 1.0168e-16
6268.525 9.3492e-17
6270.05 8.4077e-17
6271.575 8.9085e-17
6273.1 9.4676e-17
6274.625 8.9126e-17
6276.15 9.5221e-17
6277.675 9.7766e-17
6279.2 9.7484e-17
6280.725 9.9255e-17
6282.25 1.008e-16
6283.775 9.7611e-17
6285.3 9.749e-17
6286.825 1.0101e-16
6288.35 1.0104e-16
6289.875 9.1234e-17
6291.4 8.456e-17
6292.925 8.6037e-17
6294.45 8.8525e-17
6295.975 1.0046e-16
6297.5 1.2284e-16
6299.025 1.3104e-16
6300.55 1.0785e-16
6302.075 9.2104e-17
6303.6 1.0659e-16
6305.125 1.1888e-16
6306.65 1.0474e-16
6308.175 1.0478e-16
6309.7 1.1864e-16
6311.225 1.1934e-16
6312.75 1.124e-16
6314.275 9.7794e-17
6315.8 9.6194e-17
6317.325 9.9701e-17
6318.85 9.6012e-17
6320.375 8.8444e-17
6321.9 8.9909e-17
6323.425 1.0005e-16
6324.95 1.0398e-16
6326.475 1.0009e-16
6328.0 1.104e-16
6329.525 1.1051e-16
6331.05 1.123e-16
6332.575 1.2994e-16
6334.1 1.1462e-16
6335.625 1.0263e-16
6337.15 1.1216e-16
6338.675 1.1444e-16
6340.2 1.1589e-16
6341.725 1.1491e-16
6343.25 1.0824e-16
6344.775 1.1155e-16
6346.3 1.1617e-16
6347.825 1.1257e-16
6349.35 1.2348e-16
6350.875 1.1945e-16
6352.4 1.1211e-16
6353.925 1.1981e-16
6355.45 1.2435e-16
6356.975 1.1725e-16
6358.5 1.0764e-16
6360.025 1.1143e-16
6361.55 1.2462e-16
6363.075 1.2373e-16
6364.6 1.1726e-16
6366.125 1.1763e-16
6367.65 1.204e-16
6369.175 1.1966e-16
6370.7 1.1009e-16
6372.225 1.0503e-16
6373.75 9.5957e-17
6375.275 9.3456e-17
6376.8 9.8542e-17
6378.325 9.7692e-17
6379.85 1.094e-16
6381.375 1.0189e-16
6382.9 8.8049e-17
6384.425 1.0231e-16
6385.95 1.1853e-16
6387.475 1.1986e-16
6389.0 1.0862e-16
6390.525 9.5763e-17
6392.05 9.838e-17
6393.575 1.1002e-16
6395.1 1.0104e-16
6396.625 9.2819e-17
6398.15 1.0036e-16
6399.675 1.0205e-16
6401.2 9.1571e-17
6402.725 9.2857e-17
6404.25 1.1092e-16
6405.775 1.1633e-16
6407.3 1.0758e-16
6408.825 1.031e-16
6410.35 1.0846e-16
6411.875 1.1485e-16
6413.4 1.1924e-16
6414.925 1.1558e-16
6416.45 1.1002e-16
6417.975 1.0643e-16
6419.5 1.0757e-16
6421.025 1.0423e-16
6422.55 9.3627e-17
6424.075 9.5571e-17
6425.6 1.0084e-16
6427.125 1.0437e-16
6428.65 1.0857e-16
6430.175 1.107e-16
6431.7 1.097e-16
6433.225 1.0488e-16
6434.75 1.0398e-16
6436.275 1.0671e-16
6437.8 1.0719e-16
6439.325 1.037e-16
6440.85 9.6374e-17
6442.375 9.4404e-17
6443.9 9.6904e-17
6445.425 1.0503e-16
6446.95 9.6973e-17
6448.475 8.9947e-17
6450.0 1.0654e-16
6451.525 1.1011e-16
6453.05 1.0137e-16
6454.575 9.6121e-17
6456.1 9.714e-17
6457.625 9.5655e-17
6459.15 9.1622e-17
6460.675 8.9986e-17
6462.2 9.8845e-17
6463.725 1.1141e-16
6465.25 9.5239e-17
6466.775 9.1207e-17
6468.3 1.1207e-16
6469.825 1.1034e-16
6471.35 9.3971e-17
6472.875 9.6377e-17
6474.4 9.9902e-17
6475.925 9.8541e-17
6477.45 1.1072e-16
6478.975 1.0793e-16
6480.5 9.8303e-17
6482.025 1.0352e-16
6483.55 1.0289e-16
6485.075 1.022e-16
6486.6 1.0118e-16
6488.125 1.0011e-16
6489.65 9.9469e-17
6491.175 9.8132e-17
6492.7 9.8476e-17
6494.225 9.992e-17
6495.75 1.0904e-16
6497.275 1.0746e-16
6498.8 1.0126e-16
6500.325 9.8186e-17
6501.85 9.9634e-17
6503.375 9.7231e-17
6504.9 8.9268e-17
6506.425 8.9033e-17
6507.95 8.9575e-17
6509.475 8.8486e-17
6511.0 8.7147e-17
6512.525 8.9945e-17
6514.05 8.9969e-17
6515.575 1.0333e-16
6517.1 1.04e-16
6518.625 9.8878e-17
6520.15 8.703e-17
6521.675 8.1325e-17
6523.2 9.706e-17
6524.725 1.0859e-16
6526.25 9.4865e-17
6527.775 8.88e-17
6529.3 9.7949e-17
6530.825 9.8212e-17
6532.35 8.868e-17
6533.875 1.0054e-16
6535.4 9.7233e-17
6536.925 8.5778e-17
6538.45 8.3349e-17
6539.975 8.0483e-17
6541.5 8.7191e-17
6543.025 8.4454e-17
6544.55 7.825e-17
6546.075 8.7477e-17
6547.6 8.7163e-17
6549.125 9.752e-17
6550.65 1.0468e-16
6552.175 1.0126e-16
6553.7 1.0563e-16
6555.225 1.1897e-16
6556.75 1.1255e-16
6558.275 1.0037e-16
6559.8 1.0157e-16
6561.325 9.635e-17
6562.85 1.0565e-16
6564.375 1.0709e-16
6565.9 9.227e-17
6567.425 9.6515e-17
6568.95 9.83e-17
6570.475 8.729e-17
6572.0 8.6618e-17
6573.525 9.1241e-17
6575.05 9.9577e-17
6576.575 8.3668e-17
6578.1 5.3823e-17
6579.625 5.9028e-17
6581.15 8.1678e-17
6582.675 8.8982e-17
6584.2 9.22e-17
6585.725 8.7278e-17
6587.25 7.8448e-17
6588.775 8.2385e-17
6590.3 9.7299e-17
6591.825 9.4508e-17
6593.35 7.6415e-17
6594.875 7.5875e-17
6596.4 8.2772e-17
6597.925 8.7084e-17
6599.45 8.99e-17
6600.975 7.8062e-17
6602.5 8.076e-17
6604.025 8.1065e-17
6605.55 8.2199e-17
6607.075 9.4413e-17
6608.6 8.7257e-17
6610.125 7.9555e-17
6611.65 7.6972e-17
6613.175 6.8283e-17
6614.7 7.176e-17
6616.225 7.7499e-17
6617.75 6.8655e-17
6619.275 7.3729e-17
6620.8 8.8247e-17
6622.325 8.7036e-17
6623.85 8.3086e-17
6625.375 7.7663e-17
6626.9 7.5456e-17
6628.425 7.9005e-17
6629.95 7.9214e-17
6631.475 7.509e-17
6633.0 7.5723e-17
6634.525 7.183e-17
6636.05 7.9133e-17
6637.575 8.5611e-17
6639.1 8.3195e-17
6640.625 7.4806e-17
6642.15 7.4399e-17
6643.675 7.1916e-17
6645.2 7.7391e-17
6646.725 7.8627e-17
6648.25 7.8577e-17
6649.775 8.4578e-17
6651.3 7.5611e-17
6652.825 7.1243e-17
6654.35 8.3843e-17
6655.875 7.771e-17
6657.4 7.0999e-17
6658.925 7.9098e-17
6660.45 7.4213e-17
6661.975 6.6768e-17
6663.5 8.1973e-17
6665.025 9.1105e-17
6666.55 7.7969e-17
6668.075 7.2742e-17
6669.6 8.0666e-17
6671.125 8.4746e-17
6672.65 8.7027e-17
6674.175 8.3664e-17
6675.7 8.0067e-17
6677.225 7.8594e-17
6678.75 7.2353e-17
6680.275 7.6687e-17
6681.8 7.7379e-17
6683.325 7.5831e-17
6684.85 7.43e-17
6686.375 7.0526e-17
6687.9 6.8817e-17
6689.425 6.9918e-17
6690.95 7.8612e-17
6692.475 8.9557e-17
6694.0 9.3405e-17
6695.525 8.0622e-17
6697.05 6.7846e-17
6698.575 6.555e-17
6700.1 6.8795e-17
6701.625 6.6822e-17
6703.15 7.4437e-17
6704.675 7.655e-17
6706.2 7.5259e-17
6707.725 8.1497e-17
6709.25 8.3437e-17
6710.775 7.7534e-17
6712.3 7.6244e-17
6713.825 7.043e-17
6715.35 7.303e-17
6716.875 8.0287e-17
6718.4 7.374e-17
6719.925 8.3494e-17
6721.45 8.6775e-17
6722.975 7.9597e-17
6724.5 8.5799e-17
6726.025 8.1536e-17
6727.55 7.8011e-17
6729.075 8.0068e-17
6730.6 7.687e-17
6732.125 7.7133e-17
6733.65 8.1127e-17
6735.175 7.4839e-17
6736.7 7.3213e-17
6738.225 7.7147e-17
6739.75 7.0473e-17
6741.275 7.2347e-17
6742.8 7.398e-17
6744.325 6.8679e-17
6745.85 7.497e-17
6747.375 7.2845e-17
6748.9 7.158e-17
6750.425 8.1888e-17
6751.95 8.3053e-17
6753.475 7.772e-17
6755.0 6.9754e-17
6756.525 6.2291e-17
6758.05 6.974e-17
6759.575 7.6315e-17
6761.1 6.5876e-17
6762.625 6.2774e-17
6764.15 7.8789e-17
6765.675 8.1621e-17
6767.2 7.6393e-17
6768.725 7.4468e-17
6770.25 7.0649e-17
6771.775 6.5023e-17
6773.3 5.8889e-17
6774.825 6.6667e-17
6776.35 6.7341e-17
6777.875 6.375e-17
6779.4 7.524e-17
6780.925 7.7041e-17
6782.45 7.0351e-17
6783.975 6.8783e-17
6785.5 7.1194e-17
6787.025 7.132e-17
6788.55 6.6525e-17
6790.075 7.141e-17
6791.6 7.5258e-17
6793.125 7.3725e-17
6794.65 7.9013e-17
6796.175 7.6875e-17
6797.7 7.5923e-17
6799.225 7.7779e-17
6800.75 6.92e-17
6802.275 6.6481e-17
6803.8 7.189e-17
6805.325 7.5027e-17
6806.85 7.8586e-17
6808.375 7.7758e-17
6809.9 7.7717e-17
6811.425 7.3579e-17
6812.95 7.0308e-17
6814.475 7.8595e-17
6816.0 7.9032e-17
6817.525 6.6528e-17
6819.05 6.383e-17
6820.575 7.3413e-17
6822.1 7.0652e-17
6823.625 6.555e-17
6825.15 7.095e-17
6826.675 7.9125e-17
6828.2 7.1734e-17
6829.725 7.2874e-17
6831.25 7.8181e-17
6832.775 7.0683e-17
6834.3 6.8846e-17
6835.825 6.5275e-17
6837.35 6.7005e-17
6838.875 7.136e-17
6840.4 6.7608e-17
6841.925 6.6253e-17
6843.45 7.1062e-17
6844.975 6.5864e-17
6846.5 6.5133e-17
6848.025 7.2149e-17
6849.55 7.6687e-17
6851.075 7.7061e-17
6852.6 6.7526e-17
6854.125 7.3315e-17
6855.65 7.5752e-17
6857.175 6.8957e-17
6858.7 6.6302e-17
6860.225 6.3729e-17
6861.75 6.8466e-17
6863.275 6.9613e-17
6864.8 5.549e-17
6866.325 5.4637e-17
6867.85 7.0234e-17
6869.375 7.8119e-17
6870.9 7.4982e-17
6872.425 7.2183e-17
6873.95 6.5463e-17
6875.475 6.3151e-17
6877.0 6.8125e-17
6878.525 7.0032e-17
6880.05 7.823e-17
6881.575 8.0508e-17
6883.1 7.6007e-17
6884.625 7.2203e-17
6886.15 7.3884e-17
6887.675 7.1611e-17
6889.2 7.0078e-17
6890.725 7.4861e-17
6892.25 6.9418e-17
6893.775 6.1704e-17
6895.3 5.626e-17
6896.825 6.1127e-17
6898.35 6.994e-17
6899.875 5.7814e-17
6901.4 5.8688e-17
6902.925 7.1673e-17
6904.45 6.8697e-17
6905.975 6.7428e-17
6907.5 6.7415e-17
6909.025 6.2042e-17
6910.55 5.564e-17
6912.075 6.3477e-17
6913.6 6.5328e-17
6915.125 7.3063e-17
6916.65 7.7138e-17
6918.175 7.5235e-17
6919.7 8.4491e-17
6921.225 8.0386e-17
6922.75 7.3287e-17
6924.275 7.8125e-17
6925.8 7.56e-17
6927.325 7.0656e-17
6928.85 7.0517e-17
6930.375 6.8629e-17
6931.9 7.0463e-17
6933.425 6.8191e-17
6934.95 6.1855e-17
6936.475 6.3546e-17
6938.0 7.575e-17
6939.525 6.8695e-17
6941.05 6.482e-17
6942.575 6.3642e-17
6944.1 6.1423e-17
6945.625 6.6928e-17
6947.15 7.0357e-17
6948.675 7.2782e-17
6950.2 7.2215e-17
6951.725 5.768e-17
6953.25 5.6122e-17
6954.775 7.1062e-17
6956.3 6.9634e-17
6957.825 6.599e-17
6959.35 6.9162e-17
6960.875 6.3577e-17
6962.4 6.4833e-17
6963.925 7.0987e-17
6965.45 6.8969e-17
6966.975 7.4181e-17
6968.5 7.5521e-17
6970.025 7.9241e-17
6971.55 7.9193e-17
6973.075 6.9349e-17
6974.6 5.982e-17
6976.125 5.2413e-17
6977.65 6.26e-17
6979.175 6.773e-17
6980.7 5.7377e-17
6982.225 6.1364e-17
6983.75 6.8484e-17
6985.275 6.7916e-17
6986.8 7.3753e-17
6988.325 7.1598e-17
6989.85 6.8012e-17
6991.375 6.8913e-17
6992.9 6.5727e-17
6994.425 5.9076e-17
6995.95 6.4017e-17
6997.475 7.0788e-17
6999.0 7.0764e-17
7000.525 6.3273e-17
7002.05 6.218e-17
7003.575 6.8476e-17
7005.1 6.9895e-17
7006.625 6.7781e-17
7008.15 6.4917e-17
7009.675 5.9567e-17
7011.2 6.1549e-17
7012.725 7.1994e-17
7014.25 7.5e-17
7015.775 6.5934e-17
7017.3 6.4484e-17
7018.825 7.3276e-17
7020.35 7.7824e-17
7021.875 7.4422e-17
7023.4 7.4558e-17
7024.925 7.7064e-17
7026.45 7.6394e-17
7027.975 7.362e-17
7029.5 7.4411e-17
7031.025 7.342e-17
7032.55 6.6182e-17
7034.075 6.2809e-17
7035.6 6.1091e-17
7037.125 6.1097e-17
7038.65 6.4576e-17
7040.175 6.2346e-17
7041.7 6.6263e-17
7043.225 7.4423e-17
7044.75 6.8284e-17
7046.275 7.1689e-17
7047.8 7.615e-17
7049.325 6.6461e-17
7050.85 6.5501e-17
7052.375 7.4004e-17
7053.9 6.8457e-17
7055.425 6.4276e-17
7056.95 6.7739e-17
7058.475 6.7331e-17
7060.0 7.191e-17
7061.525 6.569e-17
7063.05 6.3954e-17
7064.575 7.0973e-17
7066.1 7.2186e-17
7067.625 6.9797e-17
7069.15 7.1965e-17
7070.675 7.2348e-17
7072.2 6.3714e-17
7073.725 7.0116e-17
7075.25 8.0577e-17
7076.775 8.3779e-17
7078.3 8.2505e-17
7079.825 8.0903e-17
7081.35 7.6163e-17
7082.875 7.5971e-17
7084.4 6.884e-17
7085.925 6.7949e-17
7087.45 6.9855e-17
7088.975 7.3597e-17
7090.5 7.1401e-17
7092.025 7.0324e-17
7093.55 7.1751e-17
7095.075 7.0042e-17
7096.6 6.7278e-17
7098.125 6.6101e-17
7099.65 6.8858e-17
7101.175 7.1583e-17
7102.7 6.9132e-17
7104.225 6.7691e-17
7105.75 6.9879e-17
7107.275 7.0402e-17
7108.8 7.904e-17
7110.325 7.1189e-17
7111.85 5.6257e-17
7113.375 6.4379e-17
7114.9 6.8825e-17
7116.425 7.6424e-17
7117.95 7.6959e-17
7119.475 6.7365e-17
7121.0 7.0838e-17
7122.525 7.6346e-17
7124.05 7.7933e-17
7125.575 7.925e-17
7127.1 7.6902e-17
7128.625 7.4234e-17
7130.15 7.1449e-17
7131.675 6.7931e-17
7133.2 7.1914e-17
7134.725 7.2941e-17
7136.25 7.7101e-17
7137.775 7.8696e-17
7139.3 8.3793e-17
7140.825 7.4542e-17
7142.35 7.0428e-17
7143.875 7.58e-17
7145.4 7.9963e-17
7146.925 7.5803e-17
7148.45 7.2107e-17
7149.975 7.3606e-17
7151.5 7.3653e-17
7153.025 7.4458e-17
7154.55 7.5789e-17
7156.075 8.8476e-17
7157.6 8.5342e-17
7159.125 8.0792e-17
7160.65 7.9271e-17
7162.175 7.6297e-17
7163.7 7.276e-17
7165.225 6.9536e-17
7166.75 6.8125e-17
7168.275 7.6987e-17
7169.8 8.7473e-17
7171.325 8.8108e-17
7172.85 8.1675e-17
7174.375 7.8927e-17
7175.9 8.3763e-17
7177.425 9.0489e-17
7178.95 8.9187e-17
7180.475 8.0146e-17
7182.0 7.7451e-17
7183.525 8.9801e-17
7185.05 9.1531e-17
7186.575 8.984e-17
7188.1 8.0382e-17
7189.625 7.8912e-17
7191.15 8.642e-17
7192.675 9.2279e-17
7194.2 8.818e-17
7195.725 8.1227e-17
7197.25 9.0492e-17
7198.775 9.6619e-17
7200.3 9.7083e-17
7201.825 1.0063e-16
7203.35 9.3778e-17
7204.875 8.5326e-17
7206.4 8.8303e-17
7207.925 9.3271e-17
7209.45 9.1387e-17
7210.975 9.3474e-17
7212.5 9.2074e-17
7214.025 7.8867e-17
7215.55 6.9093e-17
7217.075 7.427e-17
7218.6 8.2464e-17
7220.125 8.1954e-17
7221.65 8.0208e-17
7223.175 8.002e-17
7224.7 8.6453e-17
7226.225 8.5794e-17
7227.75 8.2584e-17
7229.275 9.0264e-17
7230.8 9.4413e-17
7232.325 8.6874e-17
7233.85 7.5555e-17
7235.375 8.4523e-17
7236.9 9.7326e-17
7238.425 1.013e-16
7239.95 1.0461e-16
7241.475 1.0407e-16
7243.0 9.3526e-17
7244.525 8.9262e-17
7246.05 8.8741e-17
7247.575 8.7063e-17
7249.1 8.0421e-17
7250.625 8.9776e-17
7252.15 1.0633e-16
7253.675 1.0076e-16
7255.2 8.414e-17
7256.725 9.1445e-17
7258.25 9.0405e-17
7259.775 8.9297e-17
7261.3 9.2252e-17
7262.825 8.8446e-17
7264.35 8.2141e-17
7265.875 9.7274e-17
7267.4 9.9535e-17
7268.925 8.9636e-17
7270.45 8.0026e-17
7271.975 7.6421e-17
7273.5 8.8662e-17
7275.025 9.7819e-17
7276.55 8.9485e-17
7278.075 9.3314e-17
7279.6 8.2368e-17
7281.125 7.8591e-17
7282.65 9.24e-17
7284.175 9.34e-17
7285.7 7.0141e-17
7287.225 6.805e-17
7288.75 7.7216e-17
7290.275 8.6754e-17
7291.8 9.0207e-17
7293.325 9.1271e-17
7294.85 8.4763e-17
7296.375 7.3639e-17
7297.9 7.0287e-17
7299.425 7.7483e-17
7300.95 8.3949e-17
7302.475 8.4499e-17
7304.0 7.7669e-17
7305.525 8.3517e-17
7307.05 7.6636e-17
7308.575 7.3534e-17
7310.1 8.2829e-17
7311.625 1.0537e-16
7313.15 1.0478e-16
7314.675 9.0821e-17
7316.2 7.5822e-17
7317.725 7.7755e-17
7319.25 7.2429e-17
7320.775 7.8798e-17
7322.3 8.5812e-17
7323.825 8.1583e-17
7325.35 7.4961e-17
7326.875 8.4294e-17
7328.4 8.8872e-17
7329.925 8.1209e-17
7331.45 8.4923e-17
7332.975 8.9186e-17
7334.5 9.5961e-17
7336.025 9.6506e-17
7337.55 7.731e-17
7339.075 7.3763e-17
7340.6 7.8053e-17
7342.125 7.348e-17
7343.65 7.4801e-17
7345.175 8.4884e-17
7346.7 8.6348e-17
7348.225 8.7136e-17
7349.75 9.0186e-17
7351.275 9.3179e-17
7352.8 9.0986e-17
7354.325 8.3494e-17
7355.85 8.5386e-17
7357.375 8.1433e-17
7358.9 7.8061e-17
7360.425 7.659e-17
7361.95 7.7704e-17
7363.475 8.279e-17
7365.0 9.2161e-17
7366.525 8.7224e-17
7368.05 7.972e-17
7369.575 8.3598e-17
7371.1 8.7404e-17
7372.625 8.0868e-17
7374.15 7.7779e-17
7375.675 8.2937e-17
7377.2 8.3404e-17
7378.725 8.3077e-17
7380.25 8.3919e-17
7381.775 7.9133e-17
7383.3 7.9202e-17
7384.825 8.3506e-17
7386.35 8.318e-17
7387.875 8.144e-17
7389.4 8.1155e-17
7390.925 7.7881e-17
7392.45 7.6556e-17
7393.975 8.508e-17
7395.5 9.1861e-17
7397.025 8.0597e-17
7398.55 7.1923e-17
7400.075 8.6351e-17
7401.6 9.0277e-17
7403.125 7.9065e-17
7404.65 7.6105e-17
7406.175 7.3275e-17
7407.7 7.7975e-17
7409.225 8.3619e-17
7410.75 8.4371e-17
7412.275 8.0401e-17
7413.8 8.0532e-17
7415.325 8.2877e-17
7416.85 7.9175e-17
7418.375 8.1035e-17
7419.9 7.8417e-17
7421.425 7.2282e-17
7422.95 7.6226e-17
7424.475 7.8682e-17
7426.0 8.1133e-17
7427.525 8.5281e-17
7429.05 8.3213e-17
7430.575 7.4696e-17
7432.1 7.1296e-17
7433.625 6.8885e-17
7435.15 6.9132e-17
7436.675 6.9424e-17
7438.2 6.2199e-17
7439.725 7.192e-17
7441.25 8.0239e-17
7442.775 8.6609e-17
7444.3 8.9052e-17
7445.825 7.6711e-17
7447.35 6.3277e-17
7448.875 6.4911e-17
7450.4 7.5241e-17
7451.925 7.0806e-17
7453.45 7.3221e-17
7454.975 7.5735e-17
7456.5 7.1539e-17
7458.025 7.8971e-17
7459.55 7.2947e-17
7461.075 7.8142e-17
7462.6 8.3269e-17
7464.125 7.1377e-17
7465.65 6.6469e-17
7467.175 6.3583e-17
7468.7 6.6326e-17
7470.225 6.7452e-17
7471.75 6.8816e-17
7473.275 7.2209e-17
7474.8 8.2353e-17
7476.325 7.9867e-17
7477.85 6.5382e-17
7479.375 6.5115e-17
7480.9 5.7173e-17
7482.425 4.8379e-17
7483.95 6.2028e-17
7485.475 6.9996e-17
7487.0 6.7847e-17
7488.525 6.7649e-17
7490.05 6.9688e-17
7491.575 6.699e-17
7493.1 6.8813e-17
7494.625 7.2401e-17
7496.15 7.54e-17
7497.675 7.8627e-17
7499.2 7.4422e-17
7500.725 7.2162e-17
7502.25 8.3195e-17
7503.775 8.1251e-17
7505.3 6.9383e-17
7506.825 7.463e-17
7508.35 7.893e-17
7509.875 7.457e-17
7511.4 7.8717e-17
7512.925 7.7256e-17
7514.45 7.934e-17
7515.975 7.8376e-17
7517.5 7.2123e-17
7519.025 7.6064e-17
7520.55 7.2725e-17
7522.075 7.1429e-17
7523.6 8.3452e-17
7525.125 8.424e-17
7526.65 6.9838e-17
7528.175 6.8864e-17
7529.7 7.1405e-17
7531.225 7.2482e-17
7532.75 7.9163e-17
7534.275 8.3466e-17
7535.8 8.3266e-17
7537.325 7.9941e-17
7538.85 7.192e-17
7540.375 7.3791e-17
7541.9 7.6816e-17
7543.425 6.949e-17
7544.95 6.7694e-17
7546.475 7.457e-17
7548.0 7.6294e-17
7549.525 7.389e-17
7551.05 7.456e-17
7552.575 7.6873e-17
7554.1 7.7468e-17
7555.625 7.2832e-17
7557.15 7.1185e-17
7558.675 7.9784e-17
7560.2 8.1699e-17
7561.725 6.999e-17
7563.25 6.6993e-17
7564.775 6.9655e-17
7566.3 6.8355e-17
7567.825 7.5785e-17
7569.35 8.4856e-17
7570.875 8.7015e-17
7572.4 8.947e-17
7573.925 8.0376e-17
7575.45 7.4935e-17
7576.975 7.7586e-17
7578.5 8.1116e-17
7580.025 8.2703e-17
7581.55 8.1732e-17
7583.075 6.5549e-17
7584.6 7.1075e-17
7586.125 8.7013e-17
7587.65 7.8828e-17
7589.175 7.4371e-17
7590.7 8.051e-17
7592.225 8.2299e-17
7593.75 8.851e-17
7595.275 9.2074e-17
7596.8 8.1789e-17
7598.325 9.3792e-17
7599.85 8.776e-17
7601.375 9.1773e-17
7602.9 1.1494e-16
7604.425 6.7166e-17
7605.95 4.0761e-17
7607.475 9.6783e-17
7609.0 9.5322e-17
7610.525 7.2203e-17
7612.05 8.123e-17
7613.575 8.6631e-17
7615.1 7.9992e-17
7616.625 8.0838e-17
7618.15 7.3456e-17
7619.675 8.4596e-17
7621.2 9.2481e-17
7622.725 8.3692e-17
7624.25 8.8217e-17
7625.775 1.0727e-16
7627.3 1.0922e-16
7628.825 7.707e-17
7630.35 5.2248e-17
7631.875 6.1768e-17
7633.4 6.4666e-17
7634.925 5.8034e-17
7636.45 6.4262e-17
7637.975 8.393e-17
7639.5 8.1352e-17
7641.025 5.6619e-17
7642.55 6.3477e-17
7644.075 7.8975e-17
7645.6 8.7989e-17
7647.125 7.1925e-17
7648.65 5.8243e-17
7650.175 6.617e-17
7651.7 7.2485e-17
7653.225 7.9531e-17
7654.75 7.9275e-17
7656.275 7.8703e-17
7657.8 7.5984e-17
7659.325 7.8361e-17
7660.85 7.8034e-17
7662.375 6.9481e-17
7663.9 7.0826e-17
7665.425 7.2051e-17
7666.95 7.0772e-17
7668.475 7.0733e-17
7670.0 6.3568e-17
7671.525 5.8923e-17
7673.05 6.7301e-17
7674.575 6.0902e-17
7676.1 5.597e-17
7677.625 6.0027e-17
7679.15 5.8076e-17
7680.675 6.321e-17
7682.2 7.2108e-17
7683.725 6.9239e-17
7685.25 6.5101e-17
7686.775 5.9202e-17
7688.3 5.4964e-17
7689.825 5.865e-17
7691.35 6.3034e-17
7692.875 7.1917e-17
7694.4 6.7988e-17
7695.925 5.267e-17
7697.45 5.6245e-17
7698.975 7.2237e-17
7700.5 7.6852e-17
7702.025 6.4932e-17
7703.55 6.3328e-17
7705.075 7.0062e-17
7706.6 7.5749e-17
7708.125 8.1403e-17
7709.65 7.589e-17
7711.175 7.7026e-17
7712.7 7.2399e-17
7714.225 6.5451e-17
7715.75 6.4936e-17
7717.275 5.9381e-17
7718.8 6.596e-17
7720.325 5.863e-17
7721.85 7.4937e-17
7723.375 8.3228e-17
7724.9 7.8029e-17
7726.425 7.8498e-17
7727.95 7.0418e-17
7729.475 7.3057e-17
7731.0 7.6321e-17
7732.525 7.0517e-17
7734.05 6.6964e-17
7735.575 5.9181e-17
7737.1 5.9234e-17
7738.625 6.548e-17
7740.15 6.9419e-17
7741.675 6.8346e-17
7743.2 6.5956e-17
7744.725 6.284e-17
7746.25 5.971e-17
7747.775 7.1204e-17
7749.3 6.787e-17
7750.825 6.7182e-17
7752.35 7.5346e-17
7753.875 6.9153e-17
7755.4 6.4619e-17
7756.925 5.4086e-17
7758.45 5.4966e-17
7759.975 6.5624e-17
7761.5 6.4477e-17
7763.025 6.6966e-17
7764.55 6.7475e-17
7766.075 6.504e-17
7767.6 7.0716e-17
7769.125 7.2067e-17
7770.65 7.7014e-17
7772.175 6.62e-17
7773.7 6.0677e-17
7775.225 6.9371e-17
7776.75 6.5415e-17
7778.275 6.9838e-17
7779.8 6.6609e-17
7781.325 7.3467e-17
7782.85 7.4581e-17
7784.375 6.4062e-17
7785.9 6.377e-17
7787.425 7.5735e-17
7788.95 8.7435e-17
7790.475 7.9292e-17
7792.0 8.5505e-17
7793.525 7.3407e-17
7795.05 6.3214e-17
7796.575 6.725e-17
7798.1 6.5495e-17
7799.625 7.0553e-17
7801.15 7.3132e-17
7802.675 7.0628e-17
7804.2 6.2079e-17
7805.725 5.9992e-17
7807.25 6.867e-17
7808.775 7.4925e-17
7810.3 7.0044e-17
7811.825 6.84e-17
7813.35 7.2022e-17
7814.875 7.0312e-17
7816.4 7.3898e-17
7817.925 8.4374e-17
7819.45 9.8213e-17
7820.975 8.0187e-17
7822.5 6.0018e-17
7824.025 5.8965e-17
7825.55 6.6991e-17
7827.075 8.0598e-17
7828.6 7.4225e-17
7830.125 6.2993e-17
7831.65 6.2887e-17
7833.175 6.5364e-17
7834.7 6.0845e-17
7836.225 5.8123e-17
7837.75 6.2328e-17
7839.275 6.1208e-17
7840.8 6.1126e-17
7842.325 6.4447e-17
7843.85 7.2021e-17
7845.375 7.2507e-17
7846.9 7.0146e-17
7848.425 7.6391e-17
7849.95 7.2132e-17
7851.475 6.7723e-17
7853.0 7.3318e-17
7854.525 7.1559e-17
7856.05 7.2946e-17
7857.575 7.2576e-17
7859.1 5.6523e-17
7860.625 6.7355e-17
7862.15 6.6395e-17
7863.675 5.3416e-17
7865.2 6.7112e-17
7866.725 9.7979e-17
7868.25 8.9112e-17
7869.775 7.1107e-17
7871.3 6.3645e-17
7872.825 5.974e-17
7874.35 6.5907e-17
7875.875 6.4451e-17
7877.4 5.948e-17
7878.925 5.2427e-17
7880.45 5.7147e-17
7881.975 6.4418e-17
7883.5 6.4025e-17
7885.025 7.5695e-17
7886.55 8.0317e-17
7888.075 8.3042e-17
7889.6 7.1036e-17
7891.125 5.9229e-17
7892.65 5.8694e-17
7894.175 5.8644e-17
7895.7 6.6502e-17
7897.225 7.3704e-17
7898.75 6.1462e-17
7900.275 6.8762e-17
7901.8 7.3121e-17
7903.325 6.3564e-17
7904.85 6.207e-17
7906.375 5.5942e-17
7907.9 4.7542e-17
7909.425 4.2523e-17
7910.95 5.0957e-17
7912.475 7.3133e-17
7914.0 7.8237e-17
7915.525 5.5796e-17
7917.05 6.9916e-17
7918.575 4.5046e-17
7920.1 5.3221e-17
7921.625 6.6636e-17
7923.15 7.701e-17
7924.675 7.4429e-17
7926.2 6.6727e-17
7927.725 4.7608e-17
7929.25 5.2784e-17
7930.775 5.1972e-17
7932.3 4.7735e-17
7933.825 5.3862e-17
7935.35 6.7018e-17
7936.875 7.3674e-17
7938.4 6.5178e-17
7939.925 6.4264e-17
7941.45 6.2789e-17
7942.975 5.6006e-17
7944.5 5.5053e-17
7946.025 6.6209e-17
7947.55 6.3966e-17
7949.075 6.1078e-17
7950.6 6.0788e-17
7952.125 6.0653e-17
7953.65 7.3375e-17
7955.175 7.4773e-17
7956.7 6.2252e-17
7958.225 5.5643e-17
7959.75 4.5238e-17
7961.275 5.5185e-17
7962.8 8.769e-17
7964.325 8.3572e-17
7965.85 6.2391e-17
7967.375 6.6831e-17
7968.9 6.6187e-17
7970.425 5.1585e-17
7971.95 4.7689e-17
7973.475 6.5775e-17
7975.0 8.0176e-17
7976.525 6.8248e-17
7978.05 7.0428e-17
7979.575 8.096e-17
7981.1 6.766e-17
7982.625 5.6312e-17
7984.15 6.0283e-17
7985.675 5.795e-17
7987.2 4.4641e-17
7988.725 5.1601e-17
7990.25 7.2943e-17
7991.775 8.7769e-17
7993.3 8.5056e-17
7994.825 7.2192e-17
7996.35 6.862e-17
7997.875 7.3174e-17
7999.4 7.0994e-17
8000.925 7.0554e-17
8002.45 6.5637e-17
8003.975 5.8751e-17
8005.5 5.1796e-17
8007.025 6.3761e-17
8008.55 6.2638e-17
8010.075 6.6095e-17
8011.6 5.8354e-17
8013.125 4.9121e-17
8014.65 6.0989e-17
8016.175 6.5122e-17
8017.7 5.5343e-17
8019.225 6.0555e-17
8020.75 6.5843e-17
8022.275 6.3978e-17
8023.8 5.7014e-17
8025.325 7.3713e-17
8026.85 8.7865e-17
8028.375 7.6e-17
8029.9 6.1618e-17
8031.425 5.5659e-17
8032.95 6.6329e-17
8034.475 6.9391e-17
8036.0 7.0737e-17
8037.525 7.0392e-17
8039.05 6.3747e-17
8040.575 5.8294e-17
8042.1 6.4531e-17
8043.625 6.9219e-17
8045.15 6.0453e-17
8046.675 5.435e-17
8048.2 5.8944e-17
8049.725 7.4184e-17
8051.25 6.8488e-17
8052.775 5.8709e-17
8054.3 6.3604e-17
8055.825 6.6259e-17
8057.35 5.8359e-17
8058.875 5.1928e-17
8060.4 5.2757e-17
8061.925 4.5497e-17
8063.45 5.0546e-17
8064.975 6.0494e-17
8066.5 5.7569e-17
8068.025 5.7381e-17
8069.55 5.6317e-17
8071.075 5.8851e-17
8072.6 6.2801e-17
8074.125 6.1333e-17
8075.65 5.6698e-17
8077.175 6.0878e-17
8078.7 6.4836e-17
8080.225 5.8129e-17
8081.75 5.4619e-17
8083.275 5.2594e-17
8084.8 6.0252e-17
8086.325 6.5804e-17
8087.85 5.4236e-17
8089.375 4.8936e-17
8090.9 5.618e-17
8092.425 6.1421e-17
8093.95 6.2936e-17
8095.475 5.652e-17
8097.0 4.4985e-17
8098.525 5.4751e-17
8100.05 6.6609e-17
8101.575 6.4702e-17
8103.1 6.4083e-17
8104.625 5.9207e-17
8106.15 6.4747e-17
8107.675 7.0978e-17
8109.2 6.8194e-17
8110.725 6.2157e-17
8112.25 6.259e-17
8113.775 6.6585e-17
8115.3 6.5361e-17
8116.825 6.4959e-17
8118.35 5.6653e-17
8119.875 5.7473e-17
8121.4 5.9479e-17
8122.925 5.5878e-17
8124.45 5.9069e-17
8125.975 6.0429e-17
8127.5 5.3634e-17
8129.025 5.2128e-17
8130.55 5.4111e-17
8132.075 5.9296e-17
8133.6 6.4364e-17
8135.125 6.6844e-17
8136.65 5.978e-17
8138.175 6.4423e-17
8139.7 6.4025e-17
8141.225 5.969e-17
8142.75 6.2807e-17
8144.275 5.711e-17
8145.8 5.3385e-17
8147.325 5.5415e-17
8148.85 4.5809e-17
8150.375 4.6401e-17
8151.9 5.0435e-17
8153.425 4.6515e-17
8154.95 5.2562e-17
8156.475 5.1771e-17
8158.0 5.2922e-17
8159.525 4.4536e-17
8161.05 3.9928e-17
8162.575 6.1761e-17
8164.1 8.01e-17
8165.625 6.7137e-17
8167.15 5.5041e-17
8168.675 6.4288e-17
8170.2 6.104e-17
8171.725 5.2404e-17
8173.25 6.0383e-17
8174.775 5.9599e-17
8176.3 5.031e-17
8177.825 5.4623e-17
8179.35 6.7766e-17
8180.875 6.9017e-17
8182.4 6.9728e-17
8183.925 5.758e-17
8185.45 5.5101e-17
8186.975 6.2816e-17
8188.5 6.461e-17
8190.025 6.3059e-17
8191.55 4.9043e-17
8193.075 4.2757e-17
8194.6 4.522e-17
8196.125 5.2957e-17
8197.65 5.7398e-17
8199.175 5.5619e-17
8200.7 5.4056e-17
8202.225 5.7407e-17
8203.75 5.8028e-17
8205.275 5.4907e-17
8206.8 5.2059e-17
8208.325 6.0585e-17
8209.85 6.0398e-17
8211.375 5.025e-17
8212.9 5.5296e-17
8214.425 5.7965e-17
8215.95 5.5602e-17
8217.475 5.3973e-17
8219.0 5.0571e-17
8220.525 5.5261e-17
8222.05 5.2975e-17
8223.575 4.6695e-17
8225.1 5.1025e-17
8226.625 5.7577e-17
8228.15 6.756e-17
8229.675 6.2879e-17
8231.2 5.8943e-17
8232.725 5.6164e-17
8234.25 6.4825e-17
8235.775 6.8502e-17
8237.3 5.7438e-17
8238.825 5.9314e-17
8240.35 6.2636e-17
8241.875 4.9538e-17
8243.4 5.4334e-17
8244.925 5.7302e-17
8246.45 5.465e-17
8247.975 6.1288e-17
8249.5 5.686e-17
8251.025 4.8267e-17
8252.55 5.4503e-17
8254.075 5.7872e-17
8255.6 5.0124e-17
8257.125 5.5146e-17
8258.65 6.0103e-17
8260.175 5.7995e-17
8261.7 5.7686e-17
8263.225 5.4511e-17
8264.75 5.9057e-17
8266.275 6.4026e-17
8267.8 5.4409e-17
8269.325 5.6484e-17
8270.85 5.8727e-17
8272.375 5.8612e-17
8273.9 6.375e-17
8275.425 7.3656e-17
8276.95 7.1847e-17
8278.475 8.1142e-17
8280.0 7.3428e-17
8281.525 4.8914e-17
8283.05 5.7354e-17
8284.575 6.5137e-17
8286.1 4.0858e-17
8287.625 4.8466e-17
8289.15 5.1131e-17
8290.675 4.2246e-17
8292.2 4.5758e-17
8293.725 6.0377e-17
8295.25 7.8932e-17
8296.775 9.7077e-17
8298.3 7.5827e-17
8299.825 5.5053e-17
8301.35 6.3849e-17
8302.875 5.783e-17
8304.4 5.5619e-17
8305.925 6.416e-17
8307.45 5.6231e-17
8308.975 4.8962e-17
8310.5 5.7423e-17
8312.025 6.0103e-17
8313.55 5.2951e-17
8315.075 4.9642e-17
8316.6 5.098e-17
8318.125 5.9689e-17
8319.65 5.8402e-17
8321.175 5.0112e-17
8322.7 5.1091e-17
8324.225 5.9811e-17
8325.75 6.0253e-17
8327.275 5.2562e-17
8328.8 4.7121e-17
8330.325 4.7548e-17
8331.85 5.3808e-17
8333.375 5.4494e-17
8334.9 5.0439e-17
8336.425 4.5375e-17
8337.95 4.1427e-17
8339.475 7.0778e-17
8341.0 8.2349e-17
8342.525 5.6245e-17
8344.05 5.8679e-17
8345.575 5.2567e-17
8347.1 3.3926e-17
8348.625 3.5798e-17
8350.15 4.7776e-17
8351.675 4.9023e-17
8353.2 4.5117e-17
8354.725 5.2394e-17
8356.25 5.0736e-17
8357.775 4.5291e-17
8359.3 5.4955e-17
8360.825 6.1768e-17
8362.35 6.2846e-17
8363.875 6.377e-17
8365.4 5.5171e-17
8366.925 5.1355e-17
8368.45 4.4593e-17
8369.975 5.2061e-17
8371.5 5.5293e-17
8373.025 5.2365e-17
8374.55 5.5249e-17
8376.075 5.391e-17
8377.6 4.5851e-17
8379.125 6.0141e-17
8380.65 5.6417e-17
8382.175 5.4861e-17
8383.7 5.4358e-17
8385.225 4.8174e-17
8386.75 5.0297e-17
8388.275 5.2484e-17
8389.8 5.792e-17
8391.325 5.8929e-17
8392.85 5.817e-17
8394.375 6.6994e-17
8395.9 5.6829e-17
8397.425 4.7612e-17
8398.95 3.8609e-17
8400.475 5.176e-17
8402.0 6.0573e-17
8403.525 5.9762e-17
8405.05 4.9957e-17
8406.575 5.561e-17
8408.1 4.3925e-17
8409.625 3.4064e-17
8411.15 4.9109e-17
8412.675 5.5461e-17
8414.2 6.1433e-17
8415.725 6.5942e-17
8417.25 5.5242e-17
8418.775 5.3931e-17
8420.3 6.3032e-17
8421.825 6.0419e-17
8423.35 6.6097e-17
8424.875 6.7855e-17
8426.4 8.9231e-17
8427.925 8.2353e-17
8429.45 5.5535e-17
8430.975 4.0721e-17
8432.5 4.9252e-17
8434.025 4.9164e-17
8435.55 4.8866e-17
8437.075 5.7447e-17
8438.6 5.8509e-17
8440.125 5.5526e-17
8441.65 5.0094e-17
8443.175 4.1866e-17
8444.7 4.6822e-17
8446.225 5.7113e-17
8447.75 5.8695e-17
8449.275 6.1512e-17
8450.8 5.2509e-17
8452.325 3.8654e-17
8453.85 4.7202e-17
8455.375 5.3901e-17
8456.9 5.0206e-17
8458.425 5.5464e-17
8459.95 5.2364e-17
8461.475 3.4547e-17
8463.0 3.5056e-17
8464.525 5.6276e-17
8466.05 5.6541e-17
8467.575 4.3902e-17
8469.1 4.3503e-17
8470.625 4.2668e-17
8472.15 5.1612e-17
8473.675 5.4957e-17
8475.2 5.0224e-17
8476.725 5.3011e-17
8478.25 5.096e-17
8479.775 5.0899e-17
8481.3 5.6986e-17
8482.825 4.9025e-17
8484.35 4.6144e-17
8485.875 5.1035e-17
8487.4 4.7863e-17
8488.925 4.9525e-17
8490.45 5.1526e-17
8491.975 5.2338e-17
8493.5 5.2169e-17
8495.025 4.8549e-17
8496.55 5.3247e-17
8498.075 6.2005e-17
8499.6 6.4669e-17
8501.125 5.692e-17
8502.65 6.1e-17
8504.175 7.327e-17
8505.7 6.5606e-17
8507.225 5.5413e-17
8508.75 4.5297e-17
8510.275 5.3353e-17
8511.8 5.5806e-17
8513.325 5.126e-17
8514.85 4.6786e-17
8516.375 4.793e-17
8517.9 5.5557e-17
8519.425 5.6431e-17
8520.95 5.2487e-17
8522.475 4.9974e-17
8524.0 5.0034e-17
8525.525 5.4066e-17
8527.05 5.8907e-17
8528.575 5.3834e-17
8530.1 4.9403e-17
8531.625 5.2793e-17
8533.15 5.4545e-17
8534.675 4.4294e-17
8536.2 4.9316e-17
8537.725 5.8961e-17
8539.25 6.9511e-17
8540.775 6.2088e-17
8542.3 5.3823e-17
8543.825 5.1693e-17
8545.35 3.937e-17
8546.875 5.3328e-17
8548.4 5.8109e-17
8549.925 4.6824e-17
8551.45 5.0918e-17
8552.975 5.6282e-17
8554.5 5.4021e-17
8556.025 4.9873e-17
8557.55 4.568e-17
8559.075 5.1149e-17
8560.6 5.6692e-17
8562.125 4.9483e-17
8563.65 4.1622e-17
8565.175 4.109e-17
8566.7 4.1634e-17
8568.225 4.8702e-17
8569.75 5.2286e-17
8571.275 3.9096e-17
8572.8 3.3121e-17
8574.325 3.4138e-17
8575.85 3.6771e-17
8577.375 4.739e-17
8578.9 5.0433e-17
8580.425 4.5287e-17
8581.95 4.8854e-17
8583.475 4.4129e-17
8585.0 2.7149e-17
8586.525 3.0177e-17
8588.05 3.9214e-17
8589.575 3.8478e-17
8591.1 4.6756e-17
8592.625 5.4682e-17
8594.15 5.1361e-17
8595.675 4.3119e-17
8597.2 3.9948e-17
8598.725 4.4995e-17
8600.25 5.3278e-17
8601.775 3.8307e-17
8603.3 2.8569e-17
8604.825 4.0578e-17
8606.35 3.7795e-17
8607.875 3.4079e-17
8609.4 3.2274e-17
8610.925 4.2751e-17
8612.45 5.7622e-17
8613.975 5.603e-17
8615.5 3.9858e-17
8617.025 4.0553e-17
8618.55 4.2845e-17
8620.075 3.7736e-17
8621.6 1.6333e-17
8623.125 2.7716e-17
8624.65 3.9626e-17
8626.175 5.0253e-17
8627.7 4.1957e-17
8629.225 3.9759e-17
8630.75 5.7482e-17
8632.275 4.4356e-17
8633.8 4.1215e-17
8635.325 4.9107e-17
8636.85 3.9984e-17
8638.375 3.1674e-17
8639.9 3.6538e-17
8641.425 3.7385e-17
8642.95 3.7047e-17
8644.475 3.2018e-17
8646.0 4.8099e-17
8647.525 7.2495e-17
8649.05 5.8076e-17
8650.575 4.6267e-17
8652.1 5.6228e-17
8653.625 4.8917e-17
8655.15 4.1021e-17
8656.675 3.9874e-17
8658.2 4.053e-17
8659.725 4.868e-17
8661.25 5.6916e-17
8662.775 5.0589e-17
8664.3 3.8912e-17
8665.825 4.8998e-17
8667.35 5.3036e-17
8668.875 5.5817e-17
8670.4 6.0756e-17
8671.925 3.7026e-17
8673.45 3.0096e-17
8674.975 3.5391e-17
8676.5 3.5477e-17
8678.025 5.7914e-17
8679.55 6.2675e-17
8681.075 4.4743e-17
8682.6 4.3731e-17
8684.125 5.1799e-17
8685.65 4.9232e-17
8687.175 4.4603e-17
8688.7 4.4611e-17
8690.225 4.4886e-17
8691.75 4.6572e-17
8693.275 4.3668e-17
8694.8 4.5428e-17
8696.325 4.9924e-17
8697.85 4.4687e-17
8699.375 4.1222e-17
8700.9 4.6351e-17
8702.425 4.3228e-17
8703.95 3.6056e-17
8705.475 3.9394e-17
8707.0 3.9726e-17
8708.525 4.3485e-17
8710.05 4.6431e-17
8711.575 3.9485e-17
8713.1 4.3431e-17
8714.625 4.0437e-17
8716.15 3.8398e-17
8717.675 4.2468e-17
8719.2 4.8933e-17
8720.725 4.9785e-17
8722.25 4.0862e-17
8723.775 4.2417e-17
8725.3 3.9565e-17
8726.825 4.7932e-17
8728.35 5.0637e-17
8729.875 3.991e-17
8731.4 4.4004e-17
8732.925 4.5919e-17
8734.45 4.0006e-17
8735.975 3.528e-17
8737.5 3.1842e-17
8739.025 2.9459e-17
8740.55 4.3453e-17
8742.075 5.5252e-17
8743.6 5.4799e-17
8745.125 5.5442e-17
8746.65 4.0961e-17
8748.175 3.4199e-17
8749.7 4.671e-17
8751.225 4.8402e-17
8752.75 4.8178e-17
8754.275 4.9746e-17
8755.8 3.5394e-17
8757.325 4.7115e-17
8758.85 6.844e-17
8760.375 7.495e-17
8761.9 5.894e-17
8763.425 6.4529e-17
8764.95 6.3642e-17
8766.475 5.9961e-17
8768.0 5.1292e-17
8769.525 5.5343e-17
8771.05 5.9025e-17
8772.575 3.9003e-17
8774.1 3.475e-17
8775.625 5.2151e-17
8777.15 5.3059e-17
8778.675 4.354e-17
8780.2 3.7091e-17
8781.725 4.2233e-17
8783.25 6.022e-17
8784.775 5.6083e-17
8786.3 3.9221e-17
8787.825 5.2615e-17
8789.35 6.3942e-17
8790.875 4.5039e-17
8792.4 3.9533e-17
8793.925 5.2957e-17
8795.45 4.9825e-17
8796.975 4.1345e-17
8798.5 4.3743e-17
8800.025 5.2374e-17
8801.55 6.5597e-17
8803.075 5.5614e-17
8804.6 3.8748e-17
8806.125 4.4237e-17
8807.65 5.1645e-17
8809.175 4.9749e-17
8810.7 5.7129e-17
8812.225 6.2755e-17
8813.75 5.4796e-17
8815.275 5.3442e-17
8816.8 5.0531e-17
8818.325 4.7282e-17
8819.85 4.8468e-17
8821.375 5.6677e-17
8822.9 4.9552e-17
8824.425 3.905e-17
8825.95 6.1097e-17
8827.475 8.2056e-17
8829.0 8.4228e-17
8830.525 5.4455e-17
8832.05 6.4283e-17
8833.575 9.484e-17
8835.1 7.9604e-17
8836.625 6.2286e-17
8838.15 6.0872e-17
8839.675 6.3543e-17
8841.2 7.0048e-17
8842.725 6.1675e-17
8844.25 5.06e-17
8845.775 5.5763e-17
8847.3 4.6647e-17
8848.825 4.5612e-17
8850.35 5.9473e-17
8851.875 6.5175e-17
8853.4 4.7885e-17
8854.925 5.0248e-17
8856.45 4.7837e-17
8857.975 4.5785e-17
8859.5 5.3799e-17
8861.025 5.5496e-17
8862.55 7.5548e-17
8864.075 7.8588e-17
8865.6 5.7411e-17
8867.125 6.1732e-17
8868.65 5.7713e-17
8870.175 4.8948e-17
8871.7 5.3161e-17
8873.225 6.1022e-17
8874.75 5.7727e-17
8876.275 6.1642e-17
8877.8 6.6163e-17
8879.325 5.125e-17
8880.85 3.0195e-17
8882.375 4.8971e-17
8883.9 7.9537e-17
8885.425 6.4822e-17
8886.95 3.7961e-17
8888.475 3.8798e-17
8890.0 4.0865e-17
8891.525 4.7618e-17
8893.05 6.5534e-17
8894.575 7.0556e-17
8896.1 5.9028e-17
8897.625 5.6619e-17
8899.15 6.2882e-17
8900.675 6.006e-17
8902.2 4.9657e-17
8903.725 4.6699e-17
8905.25 4.6831e-17
8906.775 4.9747e-17
8908.3 6.0455e-17
8909.825 5.761e-17
8911.35 6.162e-17
8912.875 5.5506e-17
8914.4 4.7108e-17
8915.925 6.7765e-17
8917.45 7.5108e-17
8918.975 6.6055e-17
8920.5 5.8585e-17
8922.025 5.6613e-17
8923.55 6.4526e-17
8925.075 6.2547e-17
8926.6 4.7827e-17
8928.125 4.5513e-17
8929.65 6.0461e-17
8931.175 5.8323e-17
8932.7 5.5335e-17
8934.225 5.7607e-17
8935.75 5.0116e-17
8937.275 4.3944e-17
8938.8 3.5942e-17
8940.325 4.3907e-17
8941.85 6.2253e-17
8943.375 5.4442e-17
8944.9 4.1758e-17
8946.425 4.6527e-17
8947.95 5.5766e-17
8949.475 5.1525e-17
8951.0 4.8361e-17
8952.525 4.0189e-17
8954.05 4.9406e-17
8955.575 7.8061e-17
8957.1 7.7208e-17
8958.625 3.0536e-17
8960.15 3.8238e-17
8961.675 6.2126e-17
8963.2 6.4615e-17
8964.725 7.2871e-17
8966.25 6.0585e-17
8967.775 4.899e-17
8969.3 5.662e-17
8970.825 6.3418e-17
8972.35 5.1429e-17
8973.875 4.6527e-17
8975.4 4.889e-17
8976.925 5.484e-17
8978.45 5.8212e-17
8979.975 5.0118e-17
8981.5 4.6612e-17
8983.025 5.4149e-17
8984.55 5.2624e-17
8986.075 4.852e-17
8987.6 7.2423e-17
8989.125 6.4109e-17
8990.65 5.2583e-17
8992.175 5.5646e-17
8993.7 5.6787e-17
8995.225 5.0071e-17
8996.75 6.136e-17
8998.275 5.9036e-17
8999.8 5.8398e-17
9001.325 6.0756e-17
9002.85 4.6967e-17
9004.375 5.4365e-17
9005.9 5.6851e-17
9007.425 4.8295e-17
9008.95 5.2726e-17
9010.475 4.921e-17
9012.0 4.6064e-17
9013.525 5.362e-17
9015.05 4.913e-17
9016.575 4.9989e-17
9018.1 5.7326e-17
9019.625 5.927e-17
9021.15 5.7743e-17
9022.675 5.5593e-17
9024.2 5.508e-17
9025.725 4.6506e-17
9027.25 4.3128e-17
9028.775 4.4929e-17
9030.3 5.0945e-17
9031.825 5.1915e-17
9033.35 5.3188e-17
9034.875 6.7331e-17
9036.4 6.1388e-17
9037.925 3.6709e-17
9039.45 3.1332e-17
9040.975 4.625e-17
9042.5 4.8894e-17
9044.025 4.9029e-17
9045.55 5.4975e-17
9047.075 4.8306e-17
9048.6 5.111e-17
9050.125 4.4031e-17
9051.65 5.3858e-17
9053.175 5.9811e-17
9054.7 5.5406e-17
9056.225 4.9598e-17
9057.75 4.7237e-17
9059.275 4.6952e-17
9060.8 3.9837e-17
9062.325 4.4989e-17
9063.85 4.8741e-17
9065.375 4.6851e-17
9066.9 5.3651e-17
9068.425 5.2065e-17
9069.95 5.5842e-17
9071.475 6.876e-17
9073.0 5.9569e-17
9074.525 5.2152e-17
9076.05 4.7636e-17
9077.575 4.8803e-17
9079.1 6.2666e-17
9080.625 5.9732e-17
9082.15 5.2936e-17
9083.675 5.2741e-17
9085.2 5.6671e-17
9086.725 6.0271e-17
9088.25 5.6961e-17
9089.775 4.5804e-17
9091.3 5.0393e-17
9092.825 6.4043e-17
9094.35 5.7836e-17
9095.875 4.9609e-17
9097.4 3.6568e-17
9098.925 3.9113e-17
9100.45 6.2109e-17
9101.975 6.0072e-17
9103.5 3.7412e-17
9105.025 3.7934e-17
9106.55 5.2792e-17
9108.075 5.5318e-17
9109.6 5.2416e-17
9111.125 5.2484e-17
9112.65 4.753e-17
9114.175 4.1171e-17
9115.7 4.3258e-17
9117.225 4.6495e-17
9118.75 5.0185e-17
9120.275 5.0622e-17
9121.8 5.1169e-17
9123.325 5.5623e-17
9124.85 4.9483e-17
9126.375 4.2117e-17
9127.9 5.329e-17
9129.425 5.9366e-17
9130.95 5.633e-17
9132.475 5.4906e-17
9134.0 4.4417e-17
9135.525 3.9587e-17
9137.05 4.8689e-17
9138.575 3.8083e-17
9140.1 3.3397e-17
9141.625 4.8456e-17
9143.15 4.7363e-17
9144.675 3.9799e-17
9146.2 4.5012e-17
9147.725 3.8843e-17
9149.25 3.4114e-17
9150.775 4.8379e-17
9152.3 4.7103e-17
9153.825 4.5275e-17
9155.35 5.19e-17
9156.875 4.742e-17
9158.4 4.594e-17
9159.925 3.8561e-17
9161.45 4.058e-17
9162.975 5.048e-17
9164.5 4.9819e-17
9166.025 4.8493e-17
9167.55 5.3859e-17
9169.075 4.1787e-17
9170.6 3.6547e-17
9172.125 4.6828e-17
9173.65 5.7053e-17
9175.175 5.4054e-17
9176.7 5.0495e-17
9178.225 4.9645e-17
9179.75 5.4256e-17
9181.275 5.0346e-17
9182.8 4.5923e-17
9184.325 5.0205e-17
9185.85 5.078e-17
9187.375 4.8205e-17
9188.9 4.8028e-17
9190.425 4.6346e-17
9191.95 4.7657e-17
9193.475 6.0109e-17
9195.0 5.5565e-17
9196.525 4.9989e-17
9198.05 5.624e-17
9199.575 5.9443e-17
9201.1 4.9053e-17
9202.625 4.7821e-17
9204.15 4.9693e-17
9205.675 5.6041e-17
9207.2 6.1752e-17
9208.725 5.6766e-17
9210.25 4.8424e-17
9211.775 4.665e-17
9213.3 4.7716e-17
9214.825 5.3488e-17
9216.35 4.9815e-17
9217.875 3.3486e-17
9219.4 2.9203e-17
9220.925 4.4216e-17
9222.45 5.5634e-17
9223.975 5.6934e-17
9225.5 5.3829e-17
9227.025 4.7205e-17
9228.55 4.3718e-17
9230.075 4.7036e-17
9231.6 4.837e-17
9233.125 4.2971e-17
9234.65 4.3467e-17
9236.175 4.8243e-17
9237.7 5.264e-17
9239.225 4.6803e-17
9240.75 3.9099e-17
9242.275 4.6024e-17
9243.8 4.7081e-17
9245.325 4.4534e-17
9246.85 4.5618e-17
9248.375 5.3068e-17
9249.9 5.6569e-17
9251.425 5.1257e-17
9252.95 4.0945e-17
9254.475 4.5066e-17
9256.0 5.0621e-17
9257.525 5.0268e-17
9259.05 4.9199e-17
9260.575 4.9345e-17
9262.1 4.825e-17
9263.625 5.5733e-17
9265.15 5.3988e-17
9266.675 5.0268e-17
9268.2 4.5003e-17
9269.725 4.2544e-17
9271.25 4.099e-17
9272.775 4.6662e-17
9274.3 4.6135e-17
9275.825 3.3779e-17
9277.35 4.48e-17
9278.875 5.3446e-17
9280.4 5.6556e-17
9281.925 4.9442e-17
9283.45 4.6671e-17
9284.975 4.7195e-17
9286.5 5.1801e-17
9288.025 4.9164e-17
9289.55 4.6482e-17
9291.075 5.0188e-17
9292.6 3.9604e-17
9294.125 3.7068e-17
9295.65 5.2209e-17
9297.175 4.562e-17
9298.7 3.6142e-17
9300.225 2.6206e-17
9301.75 9.2763e-17
9303.275 1.289e-16
9304.8 4.9134e-17
9306.325 -1.3171e-17
9307.85 4.0491e-17
9309.375 1.1691e-16
9310.9 1.5173e-16
9312.425 1.7043e-16
9313.95 7.404e-17
9315.475 -1.9019e-17
9317.0 3.1213e-17
9318.525 3.4519e-17
9320.05 2.7763e-17
9321.575 6.9927e-17
9323.1 7.2004e-17
9324.625 5.1239e-17
9326.15 7.183e-17
9327.675 6.0843e-17
9329.2 4.2599e-17
9330.725 4.4395e-17
9332.25 5.1492e-17
9333.775 1.1527e-16
9335.3 8.7686e-17
9336.825 1.0053e-17
9338.35 4.7894e-17
9339.875 5.9003e-17
9341.4 9.7289e-17
9342.925 2.3582e-16
9344.45 1.3887e-16
9345.975 3.1878e-17
9347.5 4.2072e-17
9349.025 5.9135e-17
9350.55 4.7265e-17
9352.075 4.1877e-17
9353.6 4.2104e-17
9355.125 2.921e-17
9356.65 5.1987e-17
9358.175 5.9662e-17
9359.7 5.65e-17
9361.225 4.5785e-17
9362.75 1.9836e-17
9364.275 3.483e-17
9365.8 9.2517e-17
9367.325 6.3828e-17
9368.85 -8.8133e-18
9370.375 -8.6447e-17
9371.9 -3.9466e-17
9373.425 8.5252e-17
9374.95 6.9554e-17
9376.475 -1.1546e-16
9378.0 -5.3167e-17
9379.525 5.244e-17
9381.05 6.2448e-17
9382.575 6.1324e-17
9384.1 5.7568e-17
9385.625 4.0731e-17
9387.15 3.1675e-17
9388.675 2.9593e-17
9390.2 3.5495e-17
9391.725 4.2108e-17
9393.25 3.472e-17
9394.775 2.8359e-17
9396.3 3.6415e-17
9397.825 3.4722e-17
9399.35 3.5191e-17
9400.875 3.2536e-17
9402.4 4.0083e-17
9403.925 3.4836e-17
9405.45 2.9599e-17
9406.975 2.5724e-17
9408.5 3.5866e-17
9410.025 4.3093e-17
9411.55 2.5479e-17
9413.075 2.9284e-17
9414.6 5.5416e-17
9416.125 4.8562e-17
9417.65 4.35e-17
9419.175 2.0538e-17
9420.7 1.2061e-17
9422.225 2.1815e-17
9423.75 2.2221e-17
9425.275 2.7818e-17
9426.8 3.7688e-17
9428.325 6.1109e-17
9429.85 4.68e-17
9431.375 3.278e-17
9432.9 2.7078e-17
9434.425 3.5932e-17
9435.95 7.321e-17
9437.475 9.0774e-17
9439.0 7.5585e-17
9440.525 6.2352e-17
9442.05 3.7625e-17
9443.575 3.4806e-17
9445.1 3.5604e-17
9446.625 3.0976e-17
9448.15 3.1091e-17
9449.675 3.3012e-17
9451.2 2.34e-17
9452.725 6.3863e-18
9454.25 2.7318e-17
9455.775 6.7404e-17
9457.3 8.462e-17
9458.825 7.6963e-17
9460.35 3.3737e-17
9461.875 1.7289e-17
9463.4 1.3863e-17
9464.925 1.4255e-17
9466.45 2.3349e-17
9467.975 3.354e-17
9469.5 2.8269e-17
9471.025 2.9542e-17
9472.55 5.6131e-17
9474.075 7.3013e-17
9475.6 6.6592e-17
9477.125 4.029e-17
9478.65 1.8893e-17
9480.175 5.9955e-17
9481.7 3.8658e-17
9483.225 2.0899e-17
9484.75 1.9025e-17
9486.275 1.2905e-17
9487.8 1.6829e-17
9489.325 2.3382e-17
9490.85 2.0349e-17
9492.375 2.1957e-17
9493.9 2.3634e-17
9495.425 1.7024e-17
9496.95 5.5566e-18
9498.475 1.4228e-17
9500.0 3.7972e-17
9501.525 5.3395e-17
9503.05 3.5645e-17
9504.575 1.774e-17
9506.1 2.0025e-17
9507.625 2.45e-17
9509.15 2.4229e-17
9510.675 2.2357e-17
9512.2 1.8717e-17
9513.725 1.0822e-17
9515.25 2.3898e-17
9516.775 2.4897e-17
9518.3 1.6396e-17
9519.825 2.5952e-17
9521.35 3.3633e-17
9522.875 2.6472e-17
9524.4 1.4593e-17
9525.925 1.8307e-17
9527.45 3.7535e-17
9528.975 4.096e-17
9530.5 2.3019e-17
9532.025 1.8345e-17
9533.55 2.1678e-17
9535.075 3.1854e-17
9536.6 3.8034e-17
9538.125 2.4445e-17
9539.65 1.8897e-17
9541.175 3.6945e-17
9542.7 3.0857e-17
9544.225 5.4966e-18
9545.75 2.0794e-17
9547.275 2.5721e-17
9548.8 2.3834e-17
9550.325 5.2193e-17
9551.85 7.0817e-17
9553.375 4.9092e-17
9554.9 3.6757e-17
9556.425 2.8255e-17
9557.95 3.7831e-17
9559.475 3.4885e-17
9561.0 5.6396e-18
9562.525 2.8459e-17
9564.05 6.4823e-17
9565.575 6.8886e-17
9567.1 6.9316e-17
9568.625 4.3368e-17
9570.15 4.4473e-17
9571.675 4.7704e-17
9573.2 3.6469e-17
9574.725 2.8863e-17
9576.25 2.8919e-17
9577.775 1.8477e-17
9579.3 2.1283e-17
9580.825 3.7191e-17
9582.35 3.1749e-17
9583.875 2.9028e-17
9585.4 3.5921e-17
9586.925 2.022e-17
9588.45 2.0555e-18
9589.975 3.2908e-17
9591.5 4.5437e-17
9593.025 3.8527e-17
9594.55 4.4452e-17
9596.075 3.7667e-17
9597.6 1.9472e-17
9599.125 1.854e-17
9600.65 2.0387e-17
9602.175 3.2274e-17
9603.7 4.4177e-17
9605.225 2.6883e-17
9606.75 3.0654e-17
9608.275 4.9181e-17
9609.8 3.9993e-17
9611.325 2.649e-17
9612.85 2.1288e-17
9614.375 2.4578e-17
9615.9 3.7951e-17
9617.425 5.8558e-17
9618.95 6.9889e-17
9620.475 5.909e-17
9622.0 3.9937e-17
9623.525 2.7078e-17
9625.05 2.8746e-17
9626.575 3.6547e-17
9628.1 3.8627e-17
9629.625 4.0167e-17
9631.15 3.2422e-17
9632.675 3.4741e-17
9634.2 3.8551e-17
9635.725 7.9604e-18
9637.25 2.5265e-17
9638.775 4.3375e-17
9640.3 2.7929e-17
9641.825 1.5119e-17
9643.35 2.6916e-17
9644.875 3.4789e-17
9646.4 4.7351e-17
9647.925 4.6238e-17
9649.45 3.5667e-17
9650.975 3.9595e-17
9652.5 2.7551e-17
9654.025 8.5197e-18
9655.55 2.7833e-17
9657.075 5.9332e-17
9658.6 6.7389e-17
9660.125 6.2429e-17
9661.65 4.6352e-17
9663.175 4.4769e-17
9664.7 5.0706e-17
9666.225 4.8684e-17
9667.75 5.7931e-17
9669.275 4.8249e-17
9670.8 3.166e-17
9672.325 3.7754e-17
9673.85 4.5977e-17
9675.375 4.4168e-17
9676.9 5.5428e-17
9678.425 4.4982e-17
9679.95 -2.4566e-18
9681.475 1.3096e-17
9683.0 3.6918e-17
9684.525 2.4925e-17
9686.05 2.9997e-17
9687.575 3.8103e-17
9689.1 3.3767e-17
9690.625 3.6191e-17
9692.15 3.8769e-17
9693.675 3.0555e-17
9695.2 4.5886e-17
9696.725 6.1617e-17
9698.25 3.3791e-17
9699.775 2.9581e-17
9701.3 3.934e-17
9702.825 2.6385e-17
9704.35 3.3346e-17
9705.875 3.4944e-17
9707.4 4.5768e-17
9708.925 5.9199e-17
9710.45 6.4034e-17
9711.975 6.3255e-17
9713.5 1.5269e-17
9715.025 7.6678e-18
9716.55 6.0926e-17
9718.075 8.3697e-17
9719.6 3.6514e-17
9721.125 2.7421e-17
9722.65 2.9459e-17
9724.175 2.7275e-17
9725.7 4.4597e-17
9727.225 5.3868e-17
9728.75 4.4546e-17
9730.275 4.4621e-17
9731.8 3.324e-17
9733.325 5.0914e-17
9734.85 6.2121e-17
9736.375 1.1092e-16
9737.9 8.4224e-17
9739.425 4.581e-17
9740.95 4.852e-17
9742.475 6.375e-17
9744.0 6.6313e-17
9745.525 6.4535e-17
9747.05 8.1292e-17
9748.575 9.01e-17
9750.1 6.8895e-17
9751.625 6.3157e-17
9753.15 5.4608e-17
9754.675 5.6998e-17
9756.2 6.3544e-17
9757.725 4.7873e-17
9759.25 3.5229e-17
9760.775 4.9157e-17
9762.3 6.5823e-17
9763.825 5.3856e-17
9765.35 4.4638e-17
9766.875 3.8271e-17
9768.4 3.3812e-17
9769.925 3.7505e-17
9771.45 3.3466e-17
9772.975 3.3163e-17
9774.5 4.0999e-17
9776.025 2.2765e-17
9777.55 2.7015e-17
9779.075 6.3773e-17
9780.6 6.2855e-17
9782.125 3.5504e-17
9783.65 3.7907e-17
9785.175 6.2975e-17
9786.7 9.0818e-17
9788.225 5.5904e-17
9789.75 -1.4742e-18
9791.275 3.118e-17
9792.8 6.4828e-17
9794.325 5.2979e-17
9795.85 5.6463e-17
9797.375 4.8923e-17
9798.9 3.5489e-17
9800.425 3.4427e-17
9801.95 1.7411e-17
9803.475 3.4294e-17
9805.0 4.3464e-17
9806.525 2.977e-17
9808.05 2.5102e-17
9809.575 4.0601e-17
9811.1 5.8624e-17
9812.625 5.8809e-17
9814.15 4.5422e-17
9815.675 3.7146e-17
9817.2 4.8166e-17
9818.725 6.384e-17
9820.25 4.423e-17
9821.775 4.9891e-17
9823.3 4.7261e-17
9824.825 2.9929e-17
9826.35 3.2013e-17
9827.875 3.2261e-17
9829.4 2.6048e-17
9830.925 3.5094e-17
9832.45 3.9341e-17
9833.975 2.9697e-17
9835.5 3.4704e-17
9837.025 6.098e-17
9838.55 6.5639e-17
9840.075 5.509e-17
9841.6 4.0838e-17
9843.125 3.3549e-17
9844.65 7.3988e-17
9846.175 6.4385e-17
9847.7 2.6614e-17
9849.225 4.3468e-17
9850.75 5.0043e-17
9852.275 4.1476e-17
9853.8 4.179e-17
9855.325 4.3793e-17
9856.85 4.8752e-17
9858.375 5.4257e-17
9859.9 5.4688e-17
9861.425 5.6479e-17
9862.95 5.7191e-17
9864.475 4.1173e-17
9866.0 3.7979e-17
9867.525 5.5045e-17
9869.05 1.6314e-16
9870.575 1.6015e-16
9872.1 5.6691e-17
9873.625 1.4557e-17
9875.15 3.4782e-17
9876.675 4.6821e-17
9878.2 4.8178e-17
9879.725 6.6052e-17
9881.25 6.7464e-17
9882.775 4.1976e-17
9884.3 3.7592e-17
9885.825 2.4775e-17
9887.35 1.6383e-17
9888.875 5.8135e-17
9890.4 9.9333e-17
9891.925 7.2299e-17
9893.45 3.9946e-17
9894.975 3.7217e-17
9896.5 4.8243e-17
9898.025 4.8153e-17
9899.55 3.4105e-17
9901.075 3.8594e-17
9902.6 4.8222e-17
9904.125 4.5564e-17
9905.65 3.5576e-17
9907.175 3.8361e-17
9908.7 4.0488e-17
9910.225 6.685e-17
9911.75 6.4945e-17
9913.275 3.6071e-17
9914.8 4.4215e-17
9916.325 2.9691e-17
9917.85 4.9178e-17
9919.375 5.538e-17
9920.9 4.3021e-17
9922.425 5.3394e-17
9923.95 3.5798e-17
9925.475 3.1208e-17
9927.0 4.6235e-17
9928.525 4.9187e-17
9930.05 5.6287e-17
9931.575 5.067e-17
9933.1 3.9529e-17
9934.625 1.8288e-17
9936.15 3.7846e-17
9937.675 1.0943e-16
9939.2 9.1869e-17
9940.725 3.051e-17
9942.25 4.6986e-17
9943.775 9.469e-17
9945.3 1.2305e-16
9946.825 6.6373e-17
9948.35 -7.7183e-18
9949.875 4.0725e-18
9951.4 4.2234e-17
9952.925 1.0122e-16
9954.45 1.2697e-16
9955.975 7.9445e-17
9957.5 1.6132e-17
9959.025 2.3487e-17
9960.55 3.464e-17
9962.075 1.3451e-17
9963.6 1.4143e-19
9965.125 2.4834e-17
9966.65 4.3554e-17
9968.175 3.377e-17
9969.7 2.499e-17
9971.225 2.325e-17
9972.75 1.3517e-17
9974.275 1.3848e-17
9975.8 2.1654e-17
9977.325 1.7204e-17
9978.85 1.741e-17
9980.375 1.7396e-17
9981.9 1.4014e-17
9983.425 6.1795e-18
9984.95 8.0795e-18
9986.475 6.9793e-18
9988.0 3.4723e-18
9989.525 7.2862e-18
9991.05 6.9961e-18
9992.575 3.5181e-18
9994.1 4.2272e-18
9995.625 4.3829e-18
9997.15 2.55e-18
9998.675 2.611e-18
10000.2 2.945e-18
