 texplosion  fnickel    Pspin  log(Bfield)      Mns  thetaPB  mejecta    kappa  kappagamma     vejecta  temperature    alpha  cutoff_wavelength  log(nhhost)      A_V         MJD0  kenergy  mnickel            TSD   log(L0)  Peak_mag     Peak_MJD  log(E_rad)  log(Peak_lum)  Rise_Time    E_fold  tau_1  delta_m15     r_peak     frac 
   -9.59698  0.01137  5.17802     13.99945  1.85887  1.06139  3.07205  0.12083     0.06451  9288.05476   3756.58198  0.10021         4025.50878     18.66512  0.00257  58769.91302   1.5809  0.03493  4639746.89728  44.44327   18.7761  58818.65104    50.90425       44.16723   28.27282  44.71652   53.0    0.20093  -20.98541  0.99536 
    -9.4537  0.00261  3.98317     13.74031    1.315  1.07441    3.141  0.10538     0.04249  8667.82508   3954.20714  0.37778         4365.70502     16.09695    1e-05   58770.0563  1.40772  0.00819  6405750.48977  44.38074  18.77292  58817.19324    50.90158       44.18346   26.69202  43.91924   52.0    0.19667  -21.00048  0.99891 
   -7.87432   0.0074  5.46551     14.10638  2.14442  0.95252  4.25391    0.052     0.03355   9291.3058   3613.57761  0.02839         5063.29439     19.59702  0.02197  58771.63568  2.19063   0.0315  3644475.63078  44.56326  18.76814  58817.19324    50.91903       44.21705   24.24077   42.3355   51.0    0.17976  -21.00483  0.99624 
   -8.37383  0.28894  5.26227     13.97397  1.69085  0.90293  4.42819  0.06288     0.02629  8469.49723   4055.54115  0.36194         4702.70802     18.41645  0.00145  58771.13617  1.89482  1.27947   4901391.0489  44.36429  18.76316  58817.19324    50.91872       44.20698   26.69202   42.3786   54.0     0.1822  -20.95301  0.82944 
   -8.05812  0.03863  4.57578      13.9522  1.63946   0.8927  6.52383  0.02972     0.01882  8797.55386   3417.57641  0.04715         4681.46005     18.00323  0.00056  58771.45188  3.01199  0.25201  3972353.03477  44.56357  18.77804  58817.19324    50.91145       44.19819   23.33153  44.92688   52.0    0.16688  -20.93998  0.96926 
   -7.70754  0.00546  5.00081     13.91005  1.78816  1.48146  3.17835  0.06788     0.03573  7944.95454   3904.39806  0.44759         5494.03821     18.88729  0.00429  58771.80246  1.19677  0.01735   6283626.7147  44.32496  18.79264  58816.50107    50.90819       44.19322   24.24077  44.01765   55.0    0.18495  -21.02278  0.99771 
    -7.9552  0.00107  4.89067     13.93183  1.77653  1.10489  1.81703  0.10748      0.0674  8481.79746   3893.22648  0.24583         4854.84979     19.28371  0.01068   58771.5548  0.77977  0.00195  5400939.83953  44.40721  18.70418  58816.50107    50.91487       44.21828   26.69202  39.90525   54.0    0.17287  -20.96226  0.99975 
   -9.37898  0.34849  5.32759     14.04077  1.82393  0.74909  3.90489  0.06278     0.02342  8195.35282   4282.25676    0.319         4925.82791     18.38513  0.00135  58770.13102  1.56449  1.36083  3984242.77831  44.47645   18.7426  58817.19324    50.89607       44.16652   28.27282  44.71652   53.0      0.171  -20.96256  0.83226 
  -10.23588  0.02601  4.07856     14.10707  1.43669  0.50621  4.58354   0.0643     0.02233  7565.87769   3697.92441   0.2541         5397.27502     19.27723  0.01052  58769.27412  1.56512  0.11924  1355378.01235  45.07313  18.74021  58817.19324    50.91137        44.1982   28.27282  41.61386   53.0    0.18819  -20.97467   0.9858 
   -7.27521  0.00418  4.80266     13.86308  1.66342  1.37373   3.3404  0.06263     0.03643  8280.58683   4202.83561  0.41078         4925.82866     19.01194  0.00571  58772.23479  1.36631  0.01395  6693102.32757  44.30126  18.73789  58816.50107    50.90289       44.20216   25.06375  41.56248   54.5    0.18723  -20.97371   0.9981 
   -7.55662   0.0725  4.23471     13.87159  1.65994  0.57269  6.34322  0.02884      0.0148  9624.69826   3576.18116  0.25541         4264.56322     19.38306  0.01342  58771.95338  3.50519  0.45987  4993073.74405  44.53692  18.78856  58818.65104    50.92633       44.22394   25.86903  41.57767   50.5    0.16408   -21.0084  0.95014 
   -8.49443  0.00633  4.98329      13.9291  1.80562  1.00419  3.35881   0.0694      0.0476  9657.83441    3278.6652  0.00021         3759.78817     16.05234    1e-05  58771.01557  1.86884  0.02127  5771329.71539  44.36916  18.76722  58817.19324     50.8988       44.18658   26.44951  42.62111   52.0    0.16952  -20.96163  0.99722 
   -9.15867  0.03583  4.65943     13.89428  1.64369  1.12804  5.01828  0.05219     0.02828  8821.68122   3805.08363  0.07456         5231.61114     17.47162  0.00016  58770.35133  2.32962  0.17978  5391768.81548  44.41627  18.73447  58817.19324    50.88301       44.16116   26.71276  43.09469   53.0    0.18609  -20.95549  0.97715 
   -8.20565   0.0249    5.008     13.90772  1.80778  1.33024  2.53422  0.08265     0.04602   8209.3285   3402.21113  0.30185         4829.33016      18.8876  0.00429  58771.30435  1.01879   0.0631  6439459.65412  44.31781  18.72831  58817.19324    50.87798       44.15921   26.64455  43.16289   54.5    0.16829  -20.95179  0.99181 
     -8.298  0.04073  3.88938     13.92056  1.28536  0.59811  2.04976  0.11159     0.06199  8635.29914   3675.48876  0.24393         4880.04661     17.00256    6e-05    58771.212  0.91177  0.08348  2603054.33695  44.78263  18.80091  58817.19324    50.90611       44.19307   22.49732  44.94504   53.0     0.1824  -20.97129  0.98913 
    -8.6023  0.44722  5.25476     14.02902  1.73785   0.9272  2.80774  0.09445     0.03867   8183.9503   4365.51135  0.36285         5039.05408     19.13562  0.00759   58770.9077  1.12179  1.25568  3898451.87293  44.47686  18.74614  58816.50107    50.91215       44.20662   26.44951   41.7467   53.5    0.18703  -20.98714  0.83994 
   -8.15901  0.00808  5.19565     14.17757  1.96571  0.58074  3.75733   0.0585     0.02824  8448.33376   3164.25928  0.25119         4948.36673     19.57699  0.02098  58771.35099  1.59974  0.03038  2175112.34955   44.7936   18.7537  58817.19324    50.88702       44.14479   29.11392  45.66123   52.0    0.16955  -20.98561  0.99622 
   -9.56177  0.07086  5.10711     14.00616  1.87392  0.95985  3.73933  0.07823     0.04041  9214.46286   3109.96631  0.01232         5408.38891     18.34523  0.00123  58769.94823  1.89392  0.26498  4411557.90046  44.48065  18.78689  58816.50107    50.94348       44.27022   22.49732  39.55578   52.0    0.18724  -20.98255  0.96701 
   -8.42806  0.00171  5.12574     14.04598  1.86549  0.81983  2.74534  0.10273     0.05883  9232.29391    3576.6206  0.44385         2915.04061     18.32614  0.00118  58771.08194  1.39586  0.00469  3682625.27475  44.55397  18.72434  58816.50107    50.91049       44.21537   26.69202  40.69639   54.0    0.18104  -20.98506  0.99939 
   -9.67003  0.07007  3.44803     13.66868  1.05475  0.86957  5.01221  0.07049     0.02135  8026.39448   3026.12359  0.49888         4656.40361     18.15319  0.00079  58769.83997  1.92618  0.35119  5354776.23744  44.48811  18.74792  58816.50107     50.9453       44.25579   24.82124  40.08947   51.5     0.1999  -20.99826  0.95335 
   -7.96774  0.19621  4.86998     13.91081   1.6407  0.94804  3.83112  0.05599     0.02205  7807.89765   3626.59051  0.50579         5027.45008     17.40807  0.00014  58771.54226  1.39323   0.7517  5448453.56626  44.37255  18.76888  58816.50107    50.89376       44.17517   26.69202  43.32867   53.5    0.18046   -20.9785   0.9022 
   -9.14043  0.00682  4.62056     14.05614  1.65948  0.67368  4.34104  0.06739     0.03937  9320.62952   3212.49586  0.03075         4410.53224     18.26135  0.00101  58770.36957  2.24963  0.02962  2540324.71039  44.75454  18.75111  58816.50107    50.91192       44.20201   25.03729  42.37175   52.5    0.18729  -20.99483  0.99628 
    -7.7754   0.0399  4.74519     14.03803  1.72513  0.65582  2.76751  0.07669     0.05232  9450.10314   3468.05009  0.18492         4649.49927     19.74524   0.0309   58771.7346  1.47431  0.11042  3027540.32331  44.67207  18.77637  58818.65104    50.90236       44.16721   25.86903   47.1203   52.5    0.16356  -21.02312  0.98616 
   -9.12969  0.04548  4.93411     14.02518  1.80932  0.71018  3.39927  0.07857     0.03627  9048.63322   4104.01543  0.20542         3960.67067     16.65818    3e-05  58770.38031  1.66027   0.1546  3642425.89692  44.57855  18.76255  58817.19324    50.90955        44.1906   24.24077  45.56668   51.5    0.17598  -20.98189  0.98052 
   -8.59188  0.00711  4.18488     13.80155  1.43196  0.93974  5.07684  0.04248     0.02153  8390.25933   4023.74907  0.28802         5265.50541     16.06238    1e-05  58770.91812  2.13192  0.03608  5807714.40099  44.41741  18.79293  58817.19324    50.90111       44.18202   25.86903  44.76721   53.0    0.17167  -20.97322  0.99531 
   -9.65606  0.00363  4.54944     13.83316  1.68331  1.31509  1.81641  0.13469      0.0541  7953.45205   3660.35412  0.31704         5255.81332     19.88494  0.04263  58769.85394  0.68541  0.00659  6975602.91236  44.33551  18.77872  58816.50107     50.9103       44.20759   23.33153  43.23641   53.5    0.17961  -21.01506  0.99921 
    -8.6768   0.0021  4.16338     13.80783  1.44854  0.91303  4.72177  0.04939     0.02511  8723.90136   4136.58739  0.25555         4326.54978     19.64712  0.02465   58770.8332  2.14365  0.00991  5649140.40091   44.4389  18.80458  58816.50107    50.96299        44.3049   21.70618  37.24427   52.5    0.17218  -20.97345  0.99874 
   -8.77663   0.0203   5.1525     13.98788  1.90109  1.05039  4.45585  0.04886     0.02793  8486.85489   3673.29023  0.16118         5481.45709     19.62597  0.02348  58770.73337  1.91448  0.09044  4955569.37284  44.42872  18.76593  58816.50107    50.89836       44.17351   26.69202  44.74369   53.5     0.1741  -20.95789  0.98853 
   -7.12779  0.04796   5.4409     14.10294  2.04367   0.7107  2.59765  0.07571     0.04863  9267.62601   3726.82601  0.26692         3721.37087     16.23733    1e-05  58772.38221   1.3309  0.12459  3496858.32294  44.56424    18.758  58816.50107    50.90043       44.17091   24.24077  45.56668   52.0    0.16426  -20.97052  0.98402 
   -7.95016  0.00241  4.56445     13.97344  1.63964  0.89789  2.28105  0.10191     0.05691   8428.0153   3019.19377  0.18427         5512.27774     18.66143  0.00255  58771.55984  0.96652   0.0055  3584825.40202  44.61035  18.74686  58816.50107    50.90909       44.22122   24.24077  40.91499   53.5    0.18734  -20.98337  0.99932 
   -7.82007  0.13409  4.50567     13.84975  1.51645  1.06752  3.10909  0.07481      0.0546   9414.3571   3322.92132  0.09434         4613.79744     19.22439  0.00931  58771.68993  1.64377  0.41691   5710412.9501  44.38549  18.82406  58818.65104    50.90801       44.18518   23.33153  45.77638   53.5    0.17952   -20.9713  0.94568 
   -8.06117  0.01529  5.22091      14.0597   1.8881  0.91492  4.16356  0.06217      0.0473  9376.63859   3635.22331  0.05269         5674.85902     16.72617    3e-05  58771.44883  2.18367  0.06366  3630151.33969  44.54945   18.8011  58816.50107    50.93919       44.25776   19.95725  42.38008   54.5    0.19372  -20.97575  0.99165 
   -8.74022  0.03897  4.36953     13.98572  1.43113  0.68248  7.57995  0.03739     0.01643  8052.08741   3839.22126  0.33352         5209.39875     18.45676  0.00159  58770.76978  2.93164   0.2954  2709732.86366  44.71073  18.77816  58817.19324    50.93103       44.22066   26.44951  42.62111   54.5    0.19018  -20.95997  0.96015 
   -7.97172  0.00292  4.95882     14.03424  1.74895  0.85695  4.16185  0.06003     0.03178  8132.19043   3301.49201    0.417         4637.77533     18.25438    0.001  58771.53828  1.64183  0.01216  3410835.01152    44.588  18.78158  58816.50107    50.91407       44.20502   24.24077  43.20159   55.5    0.20056   -20.9737  0.99838 
   -7.36609  0.00112  5.09947     13.92997  1.84614   1.4522  1.83577  0.12496     0.09094  9249.79054   3925.06476  0.18415         4540.48176     18.93809  0.00482  58772.14391  0.93693  0.00206  6154433.81651  44.33087  18.76319  58817.19324    50.88658       44.15269   28.27282  44.71652   54.0    0.18531  -20.99166  0.99973 
   -8.32847  0.04043  4.82037     13.94834  1.68813  0.83526  3.81887   0.0547     0.03072  8668.96056      3139.83  0.22639          4803.7016     17.04824    6e-05  58771.18153  1.71197   0.1544   4620550.7026   44.4654  18.76743  58817.19324    50.90553       44.17877   24.82124   44.9862   52.5    0.16644   -20.9351  0.97949 
   -9.39454  0.01116  4.64176     13.94858  1.62285  0.97092  5.49396   0.0623     0.02762  8622.23984    4236.4889    0.234         3861.92278     17.50091  0.00018  58770.11546  2.43642  0.06133  4114384.03641  44.53145  18.78339  58816.50107    50.87154       44.13381   26.71276  46.43413   53.0    0.19219  -20.96544  0.99203 
   -8.58332  0.01196  4.92562     14.11056  1.81616  0.57624  1.87287  0.10383       0.061  8797.91101   4090.23336   0.1454         4471.99334     18.27446  0.00105  58770.92668  0.86476   0.0224  2459068.07981  44.75231  18.76286  58816.50107    50.95442       44.28168   23.33153  38.72157   51.5    0.15548  -20.94075  0.99716 
   -9.44198  0.06323  4.61685     14.01496  1.64627  0.54002  3.70661  0.07064     0.02719  8664.70129   4019.18145   0.5387         4220.43136     18.45689  0.00159  58770.06802  1.66001  0.23436  3041456.70265  44.67357  18.74569  58816.50107    50.90048       44.18173   25.03729   43.9457   52.5    0.17894  -20.98946  0.96998 
   -8.88944  0.02868  4.92359     14.01533  1.76696  0.74637  6.13416  0.03998     0.01792  8537.51207    3164.6659  0.28995         4803.49496     18.62997  0.00237  58770.62056  2.66714  0.17593  3706420.53034  44.56255  18.74974  58816.50107    50.91148       44.20302   26.44951   41.7467   52.5    0.18119   -20.9771  0.97731 
   -9.11966  0.00587  4.67912     13.89058  1.67013  1.07164  4.08735  0.06166     0.03161  8620.41969   3222.96096  0.18391         5007.10779     17.79981  0.00035  58770.39034  1.81187  0.02398  5619963.31721  44.40154  18.80087  58816.50107     50.9323        44.2485   22.39738  41.68887   53.5    0.18261  -20.96981  0.99692 
   -8.69535  0.00178  5.62627     13.95802  2.13608  1.23594   2.5935  0.10393     0.04933  9210.56301    4283.9562  0.35528         3948.66817     17.08233    7e-05  58770.81465  1.31246  0.00461  7617731.65687  44.21619  18.73831  58816.50107    50.94676       44.25202   25.06375  40.09201   52.0    0.17587  -20.99235   0.9994 
   -9.33774  0.02558   4.6154     13.90921   1.5765  0.99993  7.61295  0.03574      0.0171  8160.63555   3832.96138  0.25454          5513.5434     16.67782    3e-05  58770.17226  3.02432  0.19473   4737123.4177  44.46261  18.74288  58817.19324    50.89486       44.17288   25.06375  44.74369   55.0    0.18173  -20.96045  0.97424 
   -8.19561  0.07545  5.12117     14.08174   1.8711  0.74493  3.71237  0.06576     0.02989  8411.62905   3881.94921  0.23301         5507.76997     19.41133  0.01432  58771.31439  1.56689  0.28011  3127277.88908  44.62704  18.73625  58817.19324    50.89487       44.17166   26.64455  43.16289   52.5    0.18325   -20.9951  0.96487 
   -8.60729  0.00185   4.0363     14.00392  1.38439  0.62265  4.03635  0.07994     0.04114  8856.58191   3080.95778  0.09695         3394.54472     16.26295    1e-05  58770.90271  1.88863  0.00746  2056858.23916  44.88493  18.79369  58816.50107    50.87267       44.10354   26.64455  50.92183   53.0    0.19677  -20.96961  0.99907 
   -8.68319  0.00176  5.10122       13.929  1.87112  1.32236  2.38899  0.09749     0.05158  8571.68362   3893.31818  0.15837         5087.90304     17.95432   0.0005  58770.82681  1.04706   0.0042  6269864.16181  44.32834  18.73211  58816.50107    50.93002       44.23159   26.44951   40.9389   52.5    0.17222  -20.95065  0.99946 
    -9.2242  0.00755   4.4429     14.07187  1.54474  0.56185  1.31328  0.21694     0.10065  8546.17931   3316.93351  0.27068         4681.39122     18.03792  0.00061   58770.2858  0.57218  0.00992  2033637.55754   44.8541  18.77231  58817.19324    50.91005       44.19067   24.24077  45.56668   53.0    0.19116  -20.98611  0.99871 
   -9.77716  0.07838  5.22071     14.10795  1.89316  0.72494  4.48945  0.06422     0.03315  8943.16202   3849.55956  0.12026         5574.58924     17.90335  0.00044  58769.73284  2.14192  0.35187    2914530.118  44.64601  18.73735  58816.50107    50.93934        44.2618   24.24077  39.84549   53.5    0.17852  -20.99543  0.95542 
   -8.74648  0.06101  5.00714     13.92946  1.73385   1.0274  5.29473  0.05705     0.02802  8968.89982   3761.44769  0.32994         4504.25847     19.38432  0.01346  58770.76352  2.54067  0.32303  5585943.99892  44.36158  18.73053  58816.50107    50.92692       44.23196   24.82124   40.9389   53.5    0.18502  -21.00051  0.95676 
  -10.34699  0.00179  4.69306     13.86414  1.71109  1.15352  2.71882  0.11012     0.04138  8485.46756   4183.35741  0.16208         4689.01385      17.7599  0.00032  58769.16301  1.16778  0.00486  6542133.11918  44.34349  18.81619  58816.50107    50.92423       44.23198   23.33153  40.79637   51.5    0.18478  -20.96533  0.99939 
    -8.0662  0.00118  4.73595     13.96023  1.70339  0.91935   2.5782  0.08931     0.04939  8569.61856   3340.17331  0.23392         4960.75225     19.41675   0.0145   58771.4438  1.12945  0.00305  4260667.47745  44.51987  18.73844  58816.50107    50.92049       44.23122   24.82124  40.14776   53.5    0.17906  -20.98318  0.99961 
   -9.54656   0.0584  5.49332     13.98775  2.12917  1.03735  2.67463  0.09051     0.04358  9042.11947    3534.7827  0.18754         3864.74707     19.43203  0.01502  58769.96344  1.30446  0.15621  6312416.97626  44.31719  18.74322  58817.19324    50.91381       44.18926   28.27282  41.74787   51.5    0.16686  -20.97828  0.98078 
     -7.516  0.04969  4.88593     13.96893  1.69251  0.95494   5.4892  0.03794     0.02234   8390.9468   4209.57015  0.25987         5270.35456     16.67953    3e-05    58771.994  2.30546  0.27275  4328949.52239   44.4831   18.7941  58817.19324    50.90025       44.16762   25.86903   47.1203   54.0    0.17871  -20.95379  0.96402 
   -7.41806  0.01964  5.42091     14.00814  2.04004  1.26006  2.19084  0.11087     0.07145  9166.96954   4052.53367  0.20284         4311.46083     19.72996  0.02983  58772.09194  1.09822  0.04304   5361964.0518  44.38102  18.76522  58814.54197    50.90517       44.20988   23.33153  42.48691   53.5     0.1848  -21.00995  0.99455 
   -8.76497  0.04685  4.69039     14.01351  1.64306  0.75781  6.74491  0.03726     0.02012  8528.66176   3451.04779  0.22095         4770.23518     19.54679  0.01957  58770.74503  2.92661  0.31597  3154009.29714  44.64322  18.74183  58816.50107    50.95213       44.26218   24.24077  39.88713   54.5    0.17935   -20.9739  0.95998 
   -7.82021     0.03  4.94558      13.9152  1.73805  1.08302  6.28703  0.03722     0.02156  8873.22155   3775.28802  0.24428         4898.86531     18.98826  0.00541  58771.68979  2.95281  0.18862  5833227.54316  44.35456  18.79648  58817.19324    50.93187       44.23152   22.49732  44.07062   53.0     0.1747  -20.97667  0.97502 
  -11.43509  0.05824  4.95727     13.99036  1.84272   1.0156  3.75804  0.09353     0.02872  7901.21488    3350.7681  0.20749         5345.93026     19.57637  0.02095  58768.07491  1.39951  0.21888  4395888.49256  44.50077  18.78165  58817.19324    50.91651       44.20265   25.86903  44.01765   52.5    0.18506  -20.98745  0.97361 
   -8.04242  0.01687  4.85919     14.11223  1.74853  0.67118  7.45342  0.03315     0.01782  8596.74083   4054.06301  0.12058           4852.603      18.7389  0.00305  58771.46758  3.28587  0.12576  2286378.50457  44.77924  18.77223  58816.50107    50.93087        44.2211   22.49732  44.91173   53.0    0.18064  -20.94833  0.98411 
   -9.17943  0.02928  4.45492     13.96013  1.54253  0.89514  2.68686  0.11807      0.0516  8054.05171   3438.70734  0.29396         4841.62909     17.86211   0.0004  58770.33057  1.03968  0.07868  3415628.44685  44.62593  18.81192  58818.65104    50.91767       44.20495   26.71014  43.16828   54.0    0.20286  -20.97334  0.98991 
   -7.57039  0.02214  4.91054     14.05098  1.78468  0.70231  3.19032  0.05964     0.02991  8204.38041   3734.81295  0.34056         4656.80889     16.28835    1e-05  58771.93961  1.28101  0.07062  3159881.75945  44.63848  18.76503  58816.50107    50.92278       44.21254   25.86903  42.39379   52.5     0.1684  -20.95386  0.99098 
   -8.17742  0.00175  4.97611     13.93127  1.73888  1.37629   4.8491  0.06036     0.03085  8245.73067   3230.18307  0.36027         5020.28036     18.88618  0.00427  58771.33258  1.96674  0.00848   5486870.1076  44.37601   18.7769  58817.19324    50.91568       44.22071   24.24077  41.57767   55.0    0.20239  -20.98589  0.99885 
   -8.41167  0.07231  3.93318     13.97477  1.34398  0.50256  3.91822  0.06682     0.02897  8952.56278   3598.73917  0.19828         4369.99188     19.60165   0.0222  58771.09833  1.87332  0.28332  2168495.55364  44.87159  18.74986  58816.50107    50.93754       44.27069   23.33153  38.72157   51.0    0.18267  -21.00186  0.96525 
   -7.27016  0.18032  5.18223     14.05425  1.88521  0.91606  2.00333  0.10607     0.07576  9190.94337   3558.78567  0.14098         4934.60709     19.05063  0.00624  58772.23984  1.00948  0.36124  3661916.94484  44.55146  18.77078  58817.19324    50.90957       44.18368   26.69202  44.04416   53.0    0.18506  -21.00018  0.95495 
   -9.19885  0.04076  4.38788     14.05727  1.61266  0.67638  4.08883  0.05823     0.04053  8981.92619   3781.39794  0.00229         5720.16883     20.02381  0.05869  58770.31115  1.96773  0.16666  2214796.93943  44.84654  18.78525  58814.54197    50.94649       44.27879   22.49732  39.09061   54.5    0.17912  -20.99048  0.98075 
   -9.31972  0.01747  4.29474     13.85889  1.52288  1.16066  4.92243  0.06069     0.02921  8638.19002    4062.1868  0.07518         4793.25923     19.29888  0.01106  58770.19028  2.19105  0.08598  4995468.87871  44.48706  18.79925  58818.65104    50.92355       44.21422   23.33153  44.11082   53.0    0.19307  -20.97352  0.98953 
    -8.3004  0.01253  4.52511     14.04976  1.62365  0.70267  3.73825  0.07187     0.03727  8471.80497   4048.74491   0.2754          5054.1909     19.93291   0.0476   58771.2096  1.60047  0.04685  2454944.11867  44.77804  18.78287  58817.19324    50.91564       44.20701   24.24077  43.20159   54.0    0.19325  -21.02891  0.99421 
   -9.20587  0.15783  4.65107     13.85369  1.57845  1.02486  4.09631  0.05645     0.02786  8520.05018   3328.38158   0.2115          5617.7079     18.68798  0.00271  58770.30413   1.7738  0.64651  6219587.57956  44.33821  18.76235  58817.19324    50.94153       44.24629   24.82124  40.33452   53.5    0.16864  -20.96615  0.91728 
   -7.43956  0.00655  5.26979     14.04365  1.93936  1.26593  5.20164  0.05185     0.04211  9209.61059    3697.0082  0.05863         4677.35087     17.35783  0.00013  58772.07044  2.63178  0.03407  4090373.71205  44.50115  18.77807  58816.50107     50.9214       44.21447   23.33153  44.07751   55.0    0.21194  -20.97074  0.99565 
   -8.53026  0.00155  4.67594     13.89036  1.66095  0.96953  2.24742  0.08539     0.04665  8246.91733   3184.24015  0.29329         5714.99331     18.32189  0.00117  58770.97974  0.91179  0.00349  5587075.39078  44.40228   18.7763  58816.50107    50.92644       44.22495    24.9598  42.42861   53.0    0.16804  -20.97276  0.99955 
    -9.2912  0.03797  4.26015     13.82005  1.42273  0.75539  5.92108  0.04621     0.02079  8777.69764    3170.2213  0.55132         3998.41585     17.89587  0.00044   58770.2188  2.72138  0.22485  5491432.10746  44.42343  18.77641  58817.19324    50.90554       44.18874   25.86903  44.01765   54.0    0.17382  -20.96137  0.96963 
    -9.6857   0.3659  4.80333     13.82766  1.56237  1.03472  4.21259  0.05877      0.0287  9044.88308   4036.28759  0.22648          3131.4625     19.01778  0.00579   58769.8243  2.05581   1.5414  7402106.52346  44.23019  18.76378  58816.50107    50.87692        44.1414   28.27282  45.66123   53.0    0.15568  -20.93765  0.80953 
   -7.94458  0.00123  4.93233     14.12046  1.74968  0.56878    1.139  0.19336     0.15469  9705.36691   3756.12165  0.20817         2934.06043     16.88886    4e-05  58771.56542  0.63999   0.0014  2269606.43466  44.76975  18.77437  58818.65104    50.90669       44.16388   26.69202  46.29732   53.5    0.17445  -20.96332  0.99981 
    -8.8927  0.00144  4.85917     13.86458  1.74021  1.34932  2.10589  0.12866      0.0739  9181.14253    3465.8902  0.10895         4792.89542     19.01872   0.0058   58770.6173   1.0589  0.00303  7118409.18244  44.28394  18.81022  58818.65104    50.90772       44.18011    24.9598  46.47591   53.0    0.17697  -20.97536   0.9996 
   -8.69234  0.00241  4.70152     13.91966  1.66591  0.87911  3.26712  0.07947     0.03498  8648.63797   3560.72456  0.30929         4762.50464     18.39421  0.00138  58770.81766  1.45776  0.00788  4950207.26148   44.4514  18.78935  58816.50107     50.9118        44.1925    24.9598  44.92688   52.0    0.18009  -20.98472  0.99897 
   -8.79565  0.01024  4.78706     14.00271  1.70669  0.81658  6.54499  0.03963     0.01912  8381.20432   3884.49839  0.23911         5529.14754     17.28832  0.00011  58770.71435  2.74251  0.06704  3586592.79293  44.58618  18.75986  58816.50107    50.91397       44.20591   24.24077  43.16828   53.5    0.18644  -20.98916  0.99136 
   -9.54332  0.00272  4.44499     13.85171  1.53326  0.99375  2.98904  0.08358     0.05176  9058.61634    4000.6807  0.13711         5005.26401     18.85931  0.00402  58769.96668  1.46313  0.00814  5568765.24639  44.41296  18.75703  58817.19324    50.89032       44.16937   25.06375  44.74369   53.5     0.1795  -20.96639  0.99892 
   -8.77935  0.01674  4.58688     13.97094  1.69933  0.97802  7.57906  0.03675     0.01637  8207.72332    3922.2007  0.24308          5346.5206     19.92892  0.04717  58770.73065  3.04571  0.12684  3795352.15079  44.59684  18.74323  58816.50107      50.889        44.1811   24.24077  44.01765   53.5    0.19064  -21.03763  0.98513 
   -8.29857  0.01651  4.28974      13.8922  1.52908  1.05887  7.06514  0.04033     0.01955  8420.43119   3651.93086  0.24101          4936.6101      19.9525   0.0498  58771.21143  2.98825  0.11665  4292366.73924  44.55572  18.75671  58817.19324    50.93226       44.22309   25.86903  42.39379   53.5    0.19457  -21.02617  0.98599 
   -9.71448   0.0196  4.37848     13.90822  1.47504  0.86774  5.13282  0.05585     0.02217  7760.61978   4075.83794  0.39267         4856.31942     17.48895  0.00017  58769.79552  1.84406  0.10061  4007018.22537  44.55218  18.76102  58816.50107    50.93101       44.22332   23.33153  44.11082   54.0    0.19173  -20.95172   0.9866 
   -8.74994  0.01683  4.75526     13.94281  1.67003  1.03934  4.07839  0.07185     0.03661  8584.07406   3840.57071  0.24523         4982.39728     19.16612  0.00814  58770.76006  1.79268  0.06865  4563180.05484  44.47795   18.7731  58818.65104    50.90489       44.17643   26.69202  46.29732   54.0    0.19744  -20.99091  0.99103 
   -9.18754  0.02404  4.59512     13.88842   1.7218  0.78769  2.65472  0.08408     0.04219  9355.13696   4086.52622  0.22445         3803.52364      16.8387    4e-05  58770.32246  1.38595  0.06381   5643426.6161  44.42869  18.77207  58816.50107    50.90477       44.19312   23.33153  44.92688   51.0    0.16632  -20.98994  0.99226 
    -7.4229  0.24737  5.23126     13.94614  1.94164  0.97974  1.82588  0.12304     0.06954  9725.96658     3335.701  0.71431         2423.47955     18.44427  0.00155   58772.0871   1.0303  0.45168  6323007.29296  44.31888   18.7652  58816.50107    50.93169       44.22264   25.86903  43.16828   50.5    0.16179      -21.0  0.94418 
   -8.98496  0.03278   5.1324     14.10028  1.87775  0.63682  4.00904   0.0556     0.02607  8323.60747   3024.97691   0.2774         4805.27462     18.15681   0.0008  58770.52504  1.65688  0.13143  2894296.28766   44.6603  18.79585  58817.19324    50.91238       44.19574   24.24077  44.74223   53.0    0.16956  -20.94615  0.98304 
   -8.45234  0.01562    4.806     13.98788  1.68187   0.8424  6.17095  0.03835     0.02158  8560.51463   3063.34116  0.22547         5032.51955     17.66658  0.00026  58771.05766  2.69761  0.09641   3814251.5903  44.54966   18.8131  58816.50107     50.9286       44.23181   22.49732  42.65844   54.0    0.18521  -20.95654  0.98725 
   -7.80187  0.00195  4.46422     13.86972  1.61556  1.29684  4.10876  0.04365     0.03152   8401.9035   3613.43732  0.11443         5152.36024     19.38832  0.01358  58771.70813  1.73019    0.008  5447521.98048  44.44148  18.78268  58817.19324    50.91122         44.201   23.33153  45.65146   54.5     0.1602   -20.9351  0.99903 
   -9.27027   0.0046  5.38983     13.96644   1.9649  1.31536  2.67324  0.10769     0.05246  8597.86982   3917.58779  0.27048         4725.74268     17.48606  0.00017  58770.23973  1.17882  0.01229  6186272.74376  44.30761  18.75303  58816.50107    50.93868       44.26098   23.33153  38.72157   54.0    0.18867  -20.97277  0.99836 
   -8.82492  0.30487  5.81302     14.08466  2.00122  0.81615  4.28498  0.05906     0.02861  8949.34982   3762.00199  0.27654         4977.22996     17.45643  0.00016  58770.68508  2.04719  1.30634  4252063.16612  44.41274  18.78897  58816.50107    50.92514       44.21989   23.33153  43.30303   53.5    0.17721  -20.99283  0.83325 
   -7.59789  0.03296  4.84548     14.10047  1.69896  0.63585  7.06176  0.03081     0.01446  8020.45225   4048.71096  0.37022         5071.12652     17.77656  0.00033  58771.91211  2.70981  0.23279  2331969.13747  44.76063  18.77422  58816.50107    50.92921       44.22932   23.33153  41.82423   53.5    0.18546  -20.97272  0.96976 
     -8.904  0.01967   4.6177     13.88434  1.70481   0.8395   7.2356  0.02749     0.01357  8702.09734   3480.97468  0.17172         4045.89405     18.08551  0.00068    58770.606  3.26851  0.14234  5749887.45197  44.41201  18.77649  58816.50107    50.89169       44.17721   25.06375  43.32867   51.5    0.15382  -20.93312  0.98259 
   -6.99158   0.0564  4.53914     13.81527  1.57067   1.3626  1.80822  0.09344     0.09459  9513.63035   4123.95484  0.05486          5746.0696     16.74927    3e-05  58772.51842  0.97627  0.10198  7035751.77831  44.30367  18.73913  58814.54197    50.90799       44.20841   24.82124   41.7467   53.0    0.15761  -20.95898  0.98665 
    -9.0085  0.02407  4.73953     13.92374  1.72109  1.06214  9.15812  0.03076     0.01416  8633.72634   4330.10666  0.20197         4768.24351     19.93128  0.04742   58770.5015  4.07221   0.2204  5100488.64289  44.44557   18.7495  58816.50107    50.92684       44.23459   23.33153  41.82423   53.0    0.18641  -21.00888  0.97302 
   -8.50072   0.0441  4.88013     13.93799  1.73131  1.03863  4.43626  0.05923     0.03084  8799.05945   4049.07325  0.29698         4198.90968     19.78225  0.03365  58771.00928  2.04888  0.19563  5094109.40115  44.42329   18.7352  58818.65104    50.87173       44.13311   29.55216  44.49014   53.5    0.18636  -20.98921  0.97475 
   -9.03782  0.19824   4.8501     13.94085  1.72049  1.13386  2.70761   0.0977     0.02853   7230.6593   4460.70817    0.457         5184.83336     18.08089  0.00067  58770.47218  0.84444  0.53675  4934806.57363  44.43973  18.80909  58816.50107    50.89797       44.18598   23.33153  44.92688   52.5    0.19713  -20.99016  0.93424 
     -7.987  0.02216   4.9571     14.02313  1.82143   0.9548  3.16757  0.06706     0.04044   8361.3404   3767.76423  0.15942         5996.69709     19.17347  0.00828    58771.523  1.32101  0.07018  3736184.44473  44.56637  18.76166  58816.50107    50.91225       44.19176   25.03729  44.77015   54.0    0.17629  -20.96574  0.99127 
   -10.1471  0.02215  5.61516     14.14484  2.05437  0.76194  3.65304  0.09214     0.03726   8317.5422   3305.46183  0.46529         4319.42568     19.05902  0.00636   58769.3629  1.50755  0.08093  3087027.31289  44.59326  18.77107  58817.19324    50.92172        44.2204   24.24077  42.39379   54.0    0.18893  -20.98884  0.98913 
   -9.10164  0.04689  4.81649     14.01973  1.71551  0.71377  3.01427  0.09832     0.04053  8667.35834   3523.16795  0.27015         5126.10118     17.27465   0.0001  58770.40836  1.35077  0.14135  3374550.56786  44.60956  18.74095  58817.19324    50.88531       44.15288   28.28115  44.70819   52.0    0.19229    -21.008  0.98172 
   -9.44279  0.00538  5.30709     14.11092  1.95861  0.73713  9.51542  0.02715     0.01075  7819.93562   3507.86681  0.34252         5896.41735        17.12    7e-05  58770.06721  3.47106  0.05118  3073586.25951  44.62344  18.75919  58816.50107    50.95799       44.28807   22.39738  39.24879   53.5    0.18138  -20.99536  0.99336 
   -8.85525  0.01825  4.73289     14.07171  1.74207  0.61657  4.86006  0.04594     0.01948   8195.2241   3336.34713  0.23016          5145.1974     16.95468    5e-05  58770.65475  1.94711  0.08872     2604386.56  44.74395  18.78786  58817.19324    50.88096       44.14688   25.06375  47.24203   52.0    0.17718  -20.96797   0.9891 
   -9.37819  0.05333  5.25707     14.13089  1.92541  0.73634  6.89313  0.04357     0.01802  8420.88713   3825.02823   0.1732         5195.80643     18.85829  0.00401  58770.13181  2.91581  0.36762   2704242.6172  44.67984  18.79866  58817.19324     50.9482       44.27903   21.70618  39.88175   52.5    0.18321  -20.98163  0.95423 
   -8.54839  0.04098  5.33016     13.99217  2.00208  0.96083  3.15511  0.06564     0.03545  8741.07713   3980.87168  0.20844         5277.93756     18.04521  0.00062  58770.96161  1.43804  0.12931   5475589.6979  44.37842  18.72114  58814.54197    50.91329       44.22009   24.24077  41.51937   52.5    0.16118  -20.97707  0.98361 
   -7.99584  0.07663  4.92921     13.99615  1.68431  0.85454  2.37445  0.10773     0.08036  9334.22228   3761.63506  0.18864          3946.4019     18.26512  0.00102  58771.51416  1.23409  0.18195  3868078.99718  44.52222  18.77624  58816.50107    50.93003       44.24328   22.39738  41.73051   55.5    0.18659  -20.95451  0.97505 
   -9.05856  0.00352  4.60343     14.05605  1.64028  0.82665  2.64822  0.12538     0.04953  7674.38501   3779.28621  0.39627         5377.51109      17.8876  0.00043  58770.45144   0.9304  0.00933    2493367.675  44.76081  18.77661  58817.19324     50.9007       44.17555   25.86903  45.56668   52.5    0.21089  -21.02359  0.99883 
   -9.08529  0.00835  5.53476     14.05419   2.0764  1.32893  3.13181  0.11324      0.0494  8522.03996   4262.79034  0.19673         5130.23952     17.16272    8e-05  58770.42471  1.35678  0.02615  4602053.92727  44.43701  18.76188  58817.19324    50.93378       44.23956   26.71014  39.88713   52.0    0.20239  -20.99858  0.99666 
   -9.14781  0.05911  4.87161     13.92912  1.70481  1.27896  4.61963  0.06239     0.02791   8040.9659   3023.05473  0.31548         5593.23199     18.35852  0.00127  58770.36219  1.78177  0.27307  5207239.75857  44.40857  18.75105  58814.54197    50.90202       44.20633   24.24077  42.32717   54.0    0.19543    -21.002  0.96476 
   -8.67083  0.00446  3.66692     13.82216  1.19252  0.75461  6.24316  0.04425      0.0168  7767.34043    3088.7095  0.37761         5373.23473     16.93148    5e-05  58770.83917  2.24686  0.02787  3377185.33866  44.68815  18.78299  58820.91891    50.89853       44.14768   24.24077  49.74722   52.5    0.20208  -20.99563   0.9964 
   -9.59008  0.06424  4.89396     13.96308  1.82084  0.94759  4.35568  0.05473       0.021   8044.4598   3163.36902  0.17365         5783.58372     18.71038  0.00285  58769.91992  1.68142   0.2798  4800052.18943  44.46855  18.80827  58817.19324    50.91338        44.1944   23.33153  45.65979   52.5    0.17433   -20.9658  0.96646 
   -9.95909   0.0017  5.27155     14.07591   2.0097   0.7629  4.73786  0.04883     0.01566  7440.67952   3597.85988  0.43449          4758.9194     16.55468    2e-05  58769.55091  1.56471  0.00803  3656021.40591  44.56509  18.78924  58817.19324    50.92425       44.22246    24.9598  42.46192   53.0    0.17856  -20.94708    0.999 
   -8.02496  0.00262   5.7131     14.02131  2.08463  1.35443   2.1475  0.14096     0.06092  8305.20665    3433.8279  0.51441         4355.39484     16.32126    1e-05  58771.48504  0.88361  0.00563  5727512.55383  44.31616  18.77595  58816.50107    50.91911       44.22113   23.33153  42.48691   53.5    0.19923  -20.99004  0.99923 
    -8.8661  0.01227  5.00711     14.12079  1.80635   0.5908  6.98435  0.03582     0.01033  7175.51419   3107.50883  0.60484         5154.63361       16.937    5e-05   58770.6439  2.14516  0.08568  2411104.48246  44.74426  18.76208  58816.50107     50.9138       44.21222   23.33153  43.23641   52.5    0.18513  -20.99461  0.98883 
   -8.87011   0.4028  4.64154     13.93728   1.5777  0.65444  3.77625  0.05056     0.02004  8287.22794   3494.81436  0.26358         4925.12811     17.98437  0.00054  58770.63989  1.54706  1.52106  4213041.39383  44.50895  18.74572  58816.50107    50.90529        44.2037   24.24077  42.32717   51.5    0.16181  -20.94224   0.8225 
   -9.19961  0.07128  4.83717     13.93179  1.62403  0.97811  6.10589  0.05356     0.02319  8594.94533   3449.66159  0.30049         4898.36001     18.60285  0.00223  58770.31039  2.69068   0.4352  4830622.53444  44.42625  18.77446  58817.19324    50.92655       44.21256   25.86903  43.20159   53.0    0.19212  -20.98274  0.94137 
   -8.91084   0.0041  4.35086      13.8711  1.48931   0.8641  4.83769  0.05585     0.03105  8989.47477   3115.86288  0.20556         4753.10314     18.50654  0.00178  58770.59916  2.33203  0.01983  4739623.96369  44.48894  18.79574  58816.50107    50.92377       44.21667    24.9598  43.23641   53.5    0.18382   -20.9823  0.99738 
   -8.08749  0.00315  4.88586     13.93006  1.66622  0.95131  2.98404  0.10121     0.04809  8672.28459   3339.53015    0.705         3462.86552     16.44025    2e-05  58771.42251  1.33875  0.00939  5096849.88121   44.4054   18.7734  58817.19324    50.90539       44.18669   28.27282  41.74787   54.5    0.18714  -20.95419  0.99867 
   -7.83717  0.01935  4.07321     14.04062   1.4382  0.57892  3.66014  0.06567     0.03765  8809.44796   4231.57073  0.11828         3848.26005     19.46861  0.01634  58771.67283  1.69442  0.07084   1837712.1936  44.94251  18.76065  58817.19324    50.87153       44.12004   28.27282  47.81917   52.5    0.18828  -20.98179  0.99153 
   -8.40024  0.02343  4.85095     13.89167  1.73509  1.20026  2.79831  0.08417     0.06548  9621.52668    3594.8141  0.12313         4516.11341       19.639   0.0242  58771.10976  1.54529  0.06557  6243884.51183  44.34106  18.74775  58817.19324    50.91288       44.20503   26.69202  41.57081   54.0    0.17676  -21.00579   0.9915 
  -10.16927  0.01827  4.96263      14.0042   1.8159  0.94359  2.51352   0.1179     0.05117  8376.49236   4123.08809  0.07419          4851.8775     16.61309    2e-05  58769.34073  1.05204  0.04592  4073164.29846  44.52658   18.7679  58816.50107    50.91217       44.22201   23.33153  42.42861   52.5     0.1782    -20.929   0.9942 
   -9.50177   0.0126  4.53123     13.89071  1.59142  1.06033  5.16324  0.05453     0.02916  8732.95576   3802.97758  0.13736         5153.74354     17.29923  0.00011  58770.00823  2.34894  0.06503  5018866.54241  44.45759  18.74409  58816.50107    50.89932       44.18873   25.06375   42.3786   54.0    0.18409  -20.97688  0.99168 
   -8.27419  0.00176  5.69743     14.15555  2.17731  0.83999  3.39288  0.07184     0.03231  8141.54668   3624.18035  0.22819         5308.18874     18.57625  0.00209  58771.23581  1.34156  0.00599  3206270.62191  44.58941  18.76909  58818.65104     50.9138       44.19918   25.06375  43.94423   53.0    0.18481  -20.95941  0.99924 
   -7.23565  0.00643  4.25059     14.07391  1.49593  0.57613   3.3101  0.06125     0.02882  7554.49515    3777.8903  0.35139         5582.22699      18.9179   0.0046  58772.27435  1.12688  0.02128  1785699.28352  44.93505  18.73989  58814.54197    50.94503       44.26993   22.39738  39.65572   54.0    0.18255  -20.98278  0.99737 
   -9.63031   0.0031  5.55304     14.06083  2.06167  1.08839  3.75247  0.08914     0.04552  8875.02005   3529.83271  0.17263         4137.16783     16.14693    1e-05  58769.87969  1.76313  0.01162  4461060.66638  44.44456  18.80843  58816.50107    50.98022       44.30336   23.33444  39.88175   53.5    0.19777  -20.97438  0.99848 
   -7.23598  0.07709  4.56535     13.92044  1.60401  1.13724  1.49305  0.14385      0.1062  8613.94022   3685.44833  0.15088          4985.6761     19.40013  0.01396  58772.27402  0.66085  0.11509   4478106.5167  44.50401  18.77277  58817.19324    50.93775       44.24098   25.86903  40.72824   55.5    0.18731   -20.9498  0.98545 
   -8.72009  0.02068  4.67742     13.91515  1.73824   0.8857  3.75364  0.05461     0.02578  8361.12729   3628.55643  0.19297         4938.48197     19.41148  0.01433  58770.78991  1.56534  0.07761  5219602.51691  44.45131  18.74655  58816.50107    50.93774       44.24488   24.24077  40.72824   52.0    0.15986  -20.95821  0.99057 
   -8.79439  0.01748  5.05158     13.89366  1.86118  1.49034  4.39743  0.05413     0.02583   8451.7325   3664.21476  0.21133         4926.51376     19.22067  0.00923  58770.71561  1.87378  0.07687      7196773.0  44.27464  18.79917  58816.50107    50.90797       44.18887    24.9598  45.06089   53.0    0.17124  -20.96458  0.99026 
   -8.79557  0.00109  4.06227     13.84392  1.43998  1.01697  5.49748  0.05365     0.02417  8544.89159   4178.26369  0.13114         5609.05678     19.75138  0.03134  58770.71443  2.39444    0.006   4527537.1036   44.5538  18.75811  58816.50107    50.94221       44.26533   23.33153  38.25639   52.0    0.19761  -21.01392  0.99928 
   -7.95062  0.01796  4.75216     14.03714  1.68082  0.68617  3.10931   0.0735     0.05096  9271.59137   3060.70523  0.14194         4213.21287     16.17175    1e-05  58771.55938  1.59441  0.05585  2970537.67983  44.66775  18.79138  58816.50107    50.90826       44.20441   22.49732  44.13724   53.5    0.17585  -20.97019   0.9927 
   -9.10765  0.05783  4.86477     13.96907  1.73735   1.0047  3.29691  0.08102     0.04476  8791.49694    3249.9317  0.11427         5344.92807     19.02405  0.00587  58770.40235  1.52006  0.19067  4402318.39735  44.49093  18.79358  58817.19324    50.86796       44.10492   28.27282  49.73351   53.5    0.18541  -20.97313  0.97577 
   -9.76566  0.00401  4.82213     14.12204  1.79457  0.52632   5.2535  0.04031     0.01534   7701.9939   3643.53258  0.35392         5347.97748     16.25027    1e-05  58769.74434  1.85901  0.02105  2208870.24055  44.81216  18.83215  58817.19324    50.90861        44.1717    24.9598  48.02954   53.0    0.16209  -20.96594  0.99739 
   -9.12816  0.02988  5.29333     14.02845  1.87154  0.83926  6.44012  0.04456     0.01898  8501.47663   3754.47252  0.43294         4487.25097     18.21351  0.00091  58770.38184  2.77658   0.1924  4271430.40482  44.46301  18.79649  58816.50107    50.91368       44.19947   23.33153   44.9436   53.0    0.18813  -20.97548   0.9738 
   -9.62637  0.26178  3.45585     13.75832  1.37978   0.4945  2.61301  0.08258     0.02499  8866.52633   3268.43995  0.29356         3856.71784     19.35393  0.01255  58769.88363  1.22539  0.68404  4656856.14186  44.66345  18.78521  58817.19324    50.91116       44.18815   24.82124   44.9862   51.0      0.178  -20.99509  0.93503 
    -9.0299  0.03025  5.32218     13.97535  1.96155  1.22643  2.83165  0.09447     0.05134  8874.78638   3355.74844  0.11318         5349.42338     16.59398    2e-05   58770.4801   1.3304  0.08566   5779611.6428  44.34737  18.78567  58817.19324    50.92809       44.24137   23.33153  40.79637   53.0    0.18012   -20.9696  0.98893 
    -9.8573  0.00244  3.96944     13.93645  1.38722  0.52595  2.61979  0.08485     0.04167  8769.92955   3228.26549  0.11962         5019.50412     16.31651    1e-05   58769.6527  1.20195  0.00639   2719690.5538  44.77901  18.81006  58817.19324    50.91749       44.21254   22.49732  44.13724   51.5     0.1595  -20.94933   0.9992 
    -7.9622  0.04502  4.62161       13.849  1.64187   1.1955  1.60866   0.1341     0.09841  9439.71636   3206.48869  0.04813         4745.94366      19.4022  0.01403   58771.5478  0.85509  0.07242  6527472.99751  44.33985  18.77785  58818.65104    50.91782       44.19187   29.74721  42.33844   52.5    0.16817  -20.97404  0.99074 
    -7.0654  0.24279  4.45109     13.89385  1.37278  0.84408  4.73871  0.04724     0.02643  8652.53002   3014.26916  0.30161         5081.43026     18.45063  0.00157   58772.4446  2.11628  1.15053  4117597.60684  44.49487  18.77775  58816.50107    50.92727       44.22167   23.33153  43.24473   54.0    0.18139   -20.9684  0.84813 
   -8.80786  0.01252  4.66766     14.06279  1.60097  0.63226  7.63219  0.03582     0.01816  8394.06427   3437.22354  0.39495         4540.05946     16.60992    2e-05  58770.70214   3.2079  0.09552  2425549.73079  44.75022  18.76347  58817.19324    50.89935       44.18253   24.82124  44.16175   55.0    0.19358  -20.98008  0.98717 
   -9.07095  0.00315  4.75914      13.9636  1.66268  1.01133  3.98699  0.07107     0.03717  8126.72358   3412.05375  0.33934         5202.65595     19.25451  0.00998  58770.43905  1.57074  0.01254  4134991.31615  44.51812  18.77131  58817.19324     50.9162         44.205   25.86903  43.20159   55.5    0.19455  -20.99001  0.99834 
   -7.84162  0.00487  4.19261     13.90056  1.42765   0.8219  2.61149  0.08098       0.058  8856.14622    3181.6359  0.09077         5737.29988     16.22278    1e-05  58771.66838  1.22182  0.01271   3683692.2541  44.61221  18.76414  58817.19324    50.88566       44.14679   26.64455  45.76949   54.0    0.17188  -20.94541  0.99835 
   -8.18151  0.01518  4.58533     13.97447  1.67714  0.98399  7.51708  0.03965     0.01878  8337.09721   3785.64882   0.2946         4959.26625     20.05363  0.06286  58771.32849  3.11678  0.11408  3682882.03989  44.60449  18.78715  58816.50107    50.90501       44.19035   25.86903  43.20159   54.0    0.20278  -21.04842  0.98637 
   -8.73415  0.00129  4.22676     13.73695  1.44305  1.38044  3.34604  0.08425     0.03713  8708.27643    4081.8715  0.28313          4965.4138     18.24103  0.00097  58770.77585  1.51364  0.00432  8039275.69231  44.27089  18.76872  58817.19324    50.91794       44.21544   24.24077  43.16828   52.0     0.1907  -21.00151  0.99943 
   -8.19109  0.01001  4.26225     13.82378  1.42197  1.03722  3.91804    0.078     0.03766  8642.60902     3138.547  0.34967         4647.22632      18.1581   0.0008  58771.31891  1.74576  0.03921  5400426.46673  44.43003  18.76911  58818.65104     50.9287        44.2262   25.06375  41.50419   53.5    0.19507  -20.99826  0.99472 
   -8.63139  0.04367  5.33031     14.00996  1.92067  0.74784   2.9258  0.09241     0.05659  9824.06211   3160.20368  0.48749          3576.5715     17.70455  0.00028  58770.87861  1.68443  0.12776  4840172.52442  44.41393   18.7889  58817.19324    50.91684       44.21811   23.33153  42.48691   54.0    0.17564  -20.98136  0.98249 
   -9.18864  0.24467  5.04013     14.04991  1.78471   0.9109  3.50057  0.08413     0.03124  7982.63327   4187.90935  0.33944         5187.80998     19.77557  0.03314  58770.32136  1.33063   0.8565  3345319.53131  44.59109  18.74801  58816.50107    50.90736       44.19191   26.66556  43.23784   53.0    0.20037  -21.02762  0.89741 
   -8.09394  0.04307  5.18665     13.92558  1.87901  1.17649  3.75069  0.06583     0.04193  9608.21621   4065.13114  0.10288         4563.06505     17.62752  0.00024  58771.41606  2.06549  0.16153  6612491.16925  44.29264  18.76279  58817.19324    50.92105       44.20008   25.86903  44.15165   52.0    0.17854  -20.98863  0.97889 
   -7.54009  0.00352  4.04003     13.81937  1.40295  1.07285  6.92825  0.03518      0.0185   8551.0645   4074.31474  0.21514         5290.01884     19.58239  0.02124  58771.96991  3.02198  0.02438  4885308.01502  44.51423  18.76047  58817.19324    50.89245       44.15577   26.64455  45.66123   52.5    0.19623  -21.01388    0.997 
   -7.88765  0.00984  4.34151      13.9151  1.51049  0.95778    2.632   0.1053     0.05407  8303.76197    4232.4993  0.38971         4754.74756     19.89495  0.04362  58771.62235  1.08259   0.0259  3908549.97361  44.58067  18.78077  58818.65104    50.90471       44.17842   27.53312  44.74369   54.5    0.20057  -21.02901  0.99672 
   -8.50109  0.06221   4.6066     14.03056  1.58831  0.70844   3.7738  0.06193     0.03732  8605.38443   3690.82876  0.09628         5133.07965     18.23179  0.00095  58771.00891  1.66704  0.23477  2718905.13924  44.70863  18.76272  58816.50107    50.92476       44.22961   23.33153  42.42861   54.0    0.17654  -20.92207   0.9696 
   -8.05818   0.0336  4.25301     14.08353   1.4558   0.5393  6.52016  0.04092     0.01837   8336.0188   3907.62514  0.23904         5347.31805     17.83133  0.00038  58771.45182  2.70273  0.21909  1664355.39108  44.95331  18.79586  58817.19324    50.91191       44.18376   25.86903  45.56668   52.5    0.20145  -20.99497  0.97244 
   -9.57002  0.04942  5.16394     14.03491  1.84532  1.12142   5.6876  0.07035      0.0354  8890.05293    3319.2036  0.17039         4492.56467     18.62463  0.00234  58769.93998  2.68142  0.28107  3890755.62298  44.51892  18.77893  58816.50107    50.91432        44.2284   23.33153  40.79637   53.5    0.20396  -21.00101  0.96403 
   -9.29334  0.15204  4.42317     13.78684  1.48824  1.01943  3.93065  0.06264     0.03292  9203.13421   3979.64353  0.17651         4346.11613     17.16593    8e-05  58770.21666  1.98592  0.59763  7215601.51262  44.29178  18.75694  58816.50107    50.93428       44.24057   24.24077  41.51937   52.5    0.16714  -20.96661  0.92334 
   -9.17619  0.01487   5.1012     14.03718  1.85067  0.90049  1.99429  0.13495     0.08459  9055.44625   3191.77445  0.04293         5153.68679     17.83697  0.00038  58770.33381  0.97552  0.02965   3768163.7584   44.5447  18.77003  58816.50107    50.90587       44.19493   24.24077  44.15165   54.0    0.18231  -20.95253  0.99615 
   -9.25884  0.01116  5.08986     14.11223  1.82359    0.738  5.46451  0.04951     0.01537  6847.47859   3759.10703  0.52032         5441.20202     16.96367    5e-05  58770.25116  1.52841  0.06099    2616323.926  44.69867  18.76659  58817.19324    50.89216        44.1814   28.27282  41.61386   54.5    0.18829  -20.96572    0.992 
