 log(Bfield)      Mns     Pspin  cutoff_power  cutoff_wavelength  fnickel    kappa  kappagamma   mejecta  log(nhhost)  temperature  texplosion  thetaPB      vejecta      A_V        MJD_0   log(KE)      M_Ni  Peak_mag     Peak_MJD 
    14.79735  1.42854    2.9031        4.4037         4230.50021  0.33358  0.01422     0.02681  17.69949     20.65481   6507.30324     -2.5639  0.36534   2443.81053  0.25092   55397.8371  51.42657  25.00383  18.20697  55430.49383 
    13.80609  1.51891   3.78291       2.39335         2435.41714  0.02136  0.01378     0.06589  54.72429     19.52359    6588.2762   -25.69923  0.89953   8805.70186  0.01855  55374.70177  52.62554   1.95006   17.8917  55423.94947 
    14.91108  1.82141   6.15423       4.98178         4333.88088  0.17392  0.02767     0.16288  13.83319     19.40775   5988.29047    -11.9834  0.15202   4202.30107  0.01421   55388.4176  51.87626  12.41682  18.01303     55430.18 
    13.93016  2.08318   4.84755       3.59456         4037.73537  0.09569   0.1926     0.45947   3.78772     19.13736   5896.30338   -17.56919  1.19229   5804.14071  0.00762  55382.83181  52.02458    5.0392   18.0763     55431.29 
    14.63163  1.69081   3.63152       0.24242         5841.71303  0.08538  0.01343      0.1494   68.8269     16.51224   5381.67117   -17.66776  0.32335   9032.71762    2e-05  55382.73324  52.66314   8.07705  18.05933     55436.32 
    14.35127  1.56702   1.91983       3.00482         4946.84567  0.08515  0.01296     0.07989  34.89227     18.06635   8119.52559    -2.73403  1.06017   2099.36854  0.00065  55397.66697  51.34806   7.21819  18.18096  55437.03818 
    14.07092  1.65323  10.32134       3.72703         3662.19308  0.27981  0.03355     0.04578  33.92912     16.94276   8161.29725   -10.66927  1.20975  18397.53386    5e-05  55389.73173  53.23132  23.60743  17.84328     55434.29 
     14.6825  1.35935   4.77148       4.94936         2383.15966  0.26722  0.06496     0.41784  27.98154      19.9857   7262.35074   -10.78874  0.20035  21057.35639  0.05376  55389.61226  53.33402  21.79969  18.14095     55431.29 
     14.1642  1.64781   6.80052       2.88727          2694.3508  0.21786  0.04925       0.199  28.97455     16.21215   3213.09926    -10.2717  0.98633   19621.7037    1e-05   55390.1293  53.27537  17.88332   18.0298    55431.246 
    13.94013  1.44749   7.82936       2.21749         5039.17725  0.11036  0.01919     0.08094  80.82025     16.36426   6863.36948   -17.87588  1.49523  14942.89322    1e-05  55382.52512  53.11091  10.69603   18.0005    55430.242 
    14.00467  1.68488   4.89574        4.4239         4532.45441  0.36073  0.09562     0.26486   3.69249     20.33244   5829.55657   -17.42545  0.62946    5923.8014  0.11945  55382.97555  52.03926  18.86336  18.02573     55431.29 
    14.00135  1.53621   4.96258       4.04036         5065.83804  0.18597  0.01205     0.02534  30.12143     20.93558   6538.55245   -18.35474  1.13832   2705.91497  0.47897  55382.04626  51.55748  15.36998  18.21168     55431.29 
    13.88344  1.98565   5.23627       3.64524         4731.06114  0.04971  0.03937     0.07933  15.89978     18.66062   6585.56823   -14.42605  1.10586   9225.65619  0.00254  55385.97495  52.57136   3.64925   18.0337     55433.16 
    13.99457  1.42008   5.43055       0.84689         4058.50846   0.4713  0.12984     0.29513  19.99303     20.50566    6231.8789   -15.46785  0.63946  24255.27251  0.17799  55384.93315  53.43014  36.15793   18.0103    55427.261 
    14.50292  1.67763   5.16291       2.71013         2489.08581   0.3274  0.11577     0.46421  15.00346      18.6847   3792.41505   -18.49323  0.24162  18104.88767  0.00269  55381.90777  53.15196  23.75856  17.97791     55436.32 
    14.16105  1.81709   7.73182         2.879         3921.96041  0.33474  0.05697     0.29424  19.00285     17.01819   7096.57668    -9.62745  1.56717  14292.41543    6e-05  55390.77355  52.96656  25.43495   18.0749    55435.296 
    13.84517  1.23147   3.80685       4.67212         3520.47638  0.09207   0.0296     0.08156   29.3966     16.21382   4916.06876    -7.58689  0.83176  13717.25037    1e-05  55392.81411  52.96553   7.57646  18.08808     55433.16 
    13.84504  1.58183   3.69722        4.3929         2896.66142  0.03212  0.04207     0.29228  16.69391     17.15979   5909.03218   -16.25579  1.01727   9326.14023    8e-05  55384.14521  52.58491   2.38063  18.07414  55433.76601 
    14.25558  1.99452   5.82683        4.9423         5011.99286  0.01591   0.0161     0.06397  22.43285     18.99425    7938.3911   -17.18475  0.45147   4087.23596  0.00548  55383.21625  51.89272   1.24674  18.11219    55435.252 
    14.00174  1.36737   3.70391       3.31911          2646.9212   0.1087  0.04194     0.46248  28.24135     19.39523   3337.18064   -19.96515  0.63589  14927.42491   0.0138  55380.43585   53.0359   8.88243  18.15237    55430.242 
    14.05426   1.7593   5.61296       1.24793         2222.27742  0.37159  0.07686     0.29193  12.46736     17.90833   3994.69674    -6.87308  1.44829  18640.36188  0.00045  55393.52792  53.16095  25.97047  18.22392  55437.03818 
    14.28709  1.51325   5.85774       4.33146         3011.30701  0.22647   0.0376     0.30727  21.98908     18.27199    3201.7355   -10.54184  0.53074    17151.877  0.00104  55389.85916  53.13688  17.68619  18.01786  55437.03818 
    13.78402  1.62625   4.56848       4.78481         4256.13308  0.48239  0.26471     0.35645  12.36698      18.3424   4597.60028    -17.2745   0.9442  25991.35528  0.00122   55383.1265  53.44897  33.65719  18.01985    55430.242 
    13.98385  1.52826   4.79571       1.06308         3809.24851  0.08252  0.01718     0.10484  80.71494      16.2144   5436.49152    -9.17073  1.31651  17358.11051    1e-05  55391.23027  53.24096   7.99643  17.98606  55430.49383 
    14.71906  1.54984   5.18097       1.22154         2753.72795  0.16022  0.03506      0.0878  65.85499     16.75305   5686.20252    -6.52072  1.06321  22264.41089    3e-05  55393.88028  53.44379  15.05366  18.13742     55431.29 
    14.85279  1.98003    3.1762       0.75811          4728.5042  0.42929    0.094     0.40205   23.7153     18.36283   3733.33164    -7.51524  1.32692  21370.26383  0.00128  55392.88576  53.33391  33.99492  17.98576    55435.296 
    14.00148  1.60788   7.34115       4.67444         4911.21134  0.18407  0.01819     0.17206   23.9106     17.17466   8867.72482     -7.8384  1.46575   7554.56477    8e-05   55392.5626  52.43136  14.59785  18.12501  55443.58254 
    14.87669  2.01809   2.14746       2.16291         5646.76374  0.38622  0.06196     0.41687  13.27333     16.83205   6974.95835    -5.64448  0.42246   4855.51402    4e-05  55394.75652   51.9981  27.34224  18.00196     55434.29 
    14.50588  1.83756   4.37051       0.48895         3486.84878  0.06434  0.10393     0.16064   7.41887     18.77503   6653.23602   -15.38834  0.19768  13161.60596  0.00331  55385.01266  52.80931    4.0139  18.01837    55435.296 
    13.69318  1.32398   9.47382       4.73061          4179.5161  0.26163   0.0612     0.23703  44.99581     17.32235    3072.9508   -10.87766  0.55347  22025.56044  0.00012  55389.52334  53.40818   23.1416  18.03572     55434.29 
    14.51393  1.71582   4.87086       0.46091         4346.57197  0.30123  0.14974     0.40298  12.05475     17.89965   3898.99451   -13.24275  0.22689  22409.40708  0.00044  55387.15825  53.31786  20.90632    18.229  55437.03818 
    13.71214   1.4647   4.39088       2.51728         3590.32859  0.23562  0.10067     0.16601  25.73701     19.14358    4562.6179   -11.64581  1.29799  22428.19238  0.00773  55388.75519  53.38232  18.93717  18.09737    55431.246 
    14.34493  1.55809    2.6847       1.43175          4806.2603   0.0586  0.01098     0.19934   32.4103     20.16966   7625.96394   -17.72371  0.40586   2796.28118  0.08211  55382.67729  51.59154   4.90527  17.85454    55428.257 
    13.75023  1.35216   3.62716       0.52407         3082.15616  0.04517  0.01691     0.07702  55.19821     19.53321   6832.87636   -10.46885  1.34171  13355.88818  0.01896  55389.93215  52.98795   4.12907  18.20836     55433.16 
    13.98497  1.68734   3.64937       3.36984         2445.48931    0.031  0.01876     0.20782  22.78869      17.2138   6247.53757   -11.31857  0.91294   6133.83237    9e-05  55389.08243  52.24658    2.4369  18.06475  55440.31036 
    14.26644  1.62631   6.14191       3.94026         3700.72221  0.16497  0.01717     0.11187   37.7309     18.16152   7336.03158    -9.59943  0.94615   9256.26452  0.00081  55390.80157  52.64251  14.17158  18.06486  55433.76601 
    14.61497  1.87565   7.48692       2.50451         3730.31923  0.40592  0.06469     0.13917  27.33704      18.8236   5443.01148    -8.43073    1.552  18072.18052   0.0037  55391.97027  53.19944  32.97825   17.9154  55430.49383 
    14.51465  1.87411   5.57131       0.17193          5761.5287  0.25235  0.04431     0.12312  32.53463     17.34146   4696.21387   -10.60986  1.48038  17359.85688  0.00012  55389.79114  53.17776  21.13698  18.06735     55433.16 
    14.95247  1.44993   7.27192       1.58661         3548.57854  0.38809  0.08775     0.29777  29.99961     16.30389   3788.91836    -9.85243  0.77185  32375.90832    1e-05  55390.54857  53.71299  32.05116  18.05318     55431.29 
    14.35981  1.44003   4.18239       1.37961         3533.59847  0.19792  0.12259      0.2968   14.8227     19.95972   4178.26279    -13.3051  0.24382  18577.12093  0.05063   55387.0959  53.17327  14.32755  17.84267    55427.261 
    14.49331  1.57811   5.65995       0.71717         4107.55252   0.4846  0.10848     0.45806  13.40742     16.49675    6955.8067   -12.57015  0.25269  14474.93944    2e-05  55387.83085  52.94776  34.37801  18.11333     55434.29 
    13.88951  1.77992    4.2645       2.30579         3630.63612  0.06337  0.08674     0.39315   3.81784     17.88428    3626.4693   -15.18523  1.31603   5959.59828  0.00043  55385.21577  52.04849    3.3444  18.19492  55437.03818 
    14.32118  1.86096   5.06462       3.24227         4128.56093  0.03906   0.0166     0.09389  31.92373     18.70274    6133.6999   -19.38749  0.36852   6651.45894   0.0028  55381.01351  52.34308   3.26136  18.00768    55427.261 
    14.14343  1.68244   6.21509       0.21533         4075.51907  0.13418  0.01861     0.38025  56.19678     17.12012   5459.79277    -10.5102  1.33946  12331.74866    7e-05   55389.8908  52.91988  12.29935  18.06842    55427.211 
    14.82915   2.0621   1.69427       1.04825         4942.24473   0.1394   0.0155     0.09732  60.14599     20.26759   6953.61796    -3.22078  1.15679  12147.76377  0.10288  55397.18022  52.91145  12.91463  18.09543    55436.268 
    14.49651  1.34539   5.22057       0.01819         3247.65132  0.45557  0.08209     0.18615  24.03241     16.37329   4631.09292    -5.46655  1.10695  27652.39295    1e-05  55394.93445  53.55881   36.1631  18.00177    55430.242 
    14.44872  1.54131   7.84762       1.09316         5209.21125  0.15909  0.02909     0.19692  49.59518      17.1079   5683.12082   -11.10511   0.4749  16298.64166    7e-05  55389.29589  53.15349   14.2955  18.16457     55433.16 
    13.72435  1.65045   4.72453       4.99178          4172.9095  0.05514  0.03265     0.04685   13.6145     17.08678   5428.93057   -20.83461  1.36596   5697.16656    7e-05  55379.56639  52.13919   3.92385  18.00927     55433.16 
    14.59404   1.2926   1.72522       1.21116         4677.47629  0.12822  0.01713     0.06032  27.58477     16.28247   8874.24473   -15.88445  0.26139   3058.40271    1e-05  55384.51655   51.6571  10.43416  17.99591    55428.257 
    13.82332  1.71966   1.67061       0.74398         4755.53106  0.07791  0.01096     0.23311  68.68017     21.32933    5522.1442    -9.85587  1.55518  11114.28475  1.18592  55390.54513  52.84313   7.36772  18.23982    55428.257 
    14.17699  1.75787    6.5203       4.00038         3870.04877  0.08229   0.0121     0.06148  53.70897     19.24901   4777.66302    -9.17447  1.04046  14478.09056  0.00986  55391.22653  53.05614   7.48963  17.87067  55430.49383 
    14.71546  1.44484   0.97454       3.91962         4740.67957  0.11341  0.01063     0.01458  49.39988      19.2236   7303.30177    -2.13248  1.22197    4777.2356   0.0093  55398.26852  52.08726  10.18394   18.0112  55440.31036 
    15.02268  1.49223   5.08496       2.33067         3451.45385  0.25615  0.09913     0.23657  25.50776     19.56254   5505.70042    -13.2745  0.06421  22810.00547  0.02029   55387.1265  53.39628  20.55375  18.02923     55430.18 
    14.92843   1.9568   1.38904       2.10519            2708.13  0.48887  0.14547      0.4232  19.01757     19.06067   3006.59898    -2.47954  0.71604  24367.05704  0.00639  55397.92146  53.43002  37.15199  18.16637     55430.18 
    14.22407  1.64178   5.10347       3.48885         4342.23675  0.16747  0.02298      0.0289    9.1341     17.10514   6988.83412   -11.54707    0.466   3930.03632    7e-05  55388.85393  51.77993  10.95083  17.97378     55430.18 
    14.22389  1.86189   4.91711       1.72804         2556.75136  0.17754  0.02221     0.07367  37.25978     17.25384   6708.35424   -14.99714  1.40503   9787.96733   0.0001  55385.40386  52.69011  15.21872  17.94827  55430.49383 
    14.74477  1.89303   4.28207       2.19667         2561.78124  0.14194  0.02248     0.09218  62.15308     18.04644   6969.35138    -4.02816  1.01997  15482.49774  0.00062  55396.37284  53.12436  13.21797  18.10801    55434.247 
    13.59864  1.60842   1.70362       2.56267         3672.15659  0.05576  0.03639      0.1553  30.17982     21.47919   3580.09685   -13.15793  1.02315  12519.26198  1.67461  55387.24307  52.88816    4.6102  18.30446  55433.76601 
    13.56211  1.69478   9.42006        0.4246         4739.27489  0.22961  0.06178      0.1938  73.43114     19.16972   3767.96662   -27.69596   1.4023  27284.69433  0.00821  55372.70504  53.62762  21.93571  18.10988     55430.18 
    13.92499  1.71354   3.07689       4.27302         2940.94293  0.02077  0.02301     0.49803  14.67823     16.87163   6247.19349   -10.02185  1.52205   3438.62452    4e-05  55390.37915  51.70724   1.50082  18.21232  55433.76601 
    14.58427  1.67604   5.62142       4.18238         2430.74473   0.2607  0.02862     0.17241  25.59522     16.34798   5282.73027    -6.85826  0.78091  14967.81881    1e-05  55393.54274  53.03061  20.93241  18.05674     55430.18 
    13.96521  1.74456   4.66106       1.40904         3694.38617  0.03237  0.01494     0.05862   39.0789     18.82804   4596.00883    -8.39213  1.12775  11355.36034  0.00374  55392.00887   52.8226   2.79751  18.23736  55430.49383 
    13.95287  1.62323   5.50849       2.86364         3704.95061  0.30151  0.09407     0.40962  22.24099       17.103   3890.35475   -13.28896  1.09432  19259.53359    7e-05  55387.11204  53.23846  23.59657   18.1967     55433.16 
    14.22318  1.86084   2.60115       2.68465           4679.719  0.16499   0.0135     0.03606  41.39532     21.02893   6103.75568    -6.60014  1.15569   3593.02145  0.59382  55393.80086  51.82728  14.39479  18.09077     55431.29 
    14.84222  1.78074   2.04737       2.07324         2408.60832  0.11294  0.01945     0.11495  76.98798     16.57018   4002.79676    -7.05831  0.78215  17322.76564    2e-05  55393.34269  53.23612   10.8665  18.18711     55430.18 
    13.96345   1.7604   5.34994       0.15014         3824.11079  0.09061  0.02688     0.05789  52.91099     17.73364   4579.92447   -10.20143  1.48741  16772.35723   0.0003  55390.19957  53.18287   8.22724  18.18046     55433.16 
    14.01853  1.61394   5.72722       2.14062         4882.38191  0.16997  0.03615     0.02869  46.38405     17.42029   6318.13085   -11.12991  0.40683   18900.8876  0.00015  55389.27109  53.27744  15.10891  18.07455  55430.49383 
    14.93148   1.8074   2.31794       2.82331         3030.24165  0.10058  0.01129     0.02219  95.02531     19.37715   3189.51125    -6.29183   1.0637  17200.80821  0.01324  55394.10917  53.24351   9.98386  18.01078    55433.207 
    14.43147  1.70823   4.02261       2.43931         2600.70604   0.0815  0.01039     0.05535  90.74149     17.99796   6466.75398    -7.55614    1.055   9957.15935  0.00055  55392.84486  52.76575   8.03533  18.00577    55431.246 
    14.01459  2.01198   4.98448       3.66412         5559.57782  0.02121  0.03006     0.49466  15.30251      20.6121   6799.46046    -16.1093  0.92591   3728.99858  0.22742   55384.2917  51.78126   1.54536  18.00117  55423.94947 
    14.17989  1.77577    4.7528       4.82763         4798.39392  0.03841   0.0649     0.15121   9.31869     17.97898   6194.79197   -17.46047  0.35494   7042.43019  0.00053  55382.94053   52.2885    2.5226  18.20902     55433.16 
    13.70291  1.73037   4.45561       3.97527         5036.49998  0.48987  0.15374     0.34782   3.47286     20.83312   5322.13983   -12.30422  1.48972   8547.46855  0.37831  55388.09678  52.35031   25.1819  18.05409  55437.03818 
    14.36758  1.61893   8.92452       4.63752         4955.13872  0.42659  0.01948     0.15229   12.0808     20.14338   9191.24541    -9.27153  1.11062    3838.5418  0.07729  55391.12947  51.78553  29.61958  17.95243     55433.16 
     13.7417  1.64374   3.91903        0.2438         5971.51036  0.09137  0.15267     0.39196  12.33077     19.53686   4494.35617   -14.90203  1.19901  19363.30588  0.01912  55385.49897  53.19301   6.37133  18.05974    55431.246 
    13.98645   1.7069   4.16589       3.11567         5636.31256  0.01848  0.02544     0.03167  21.82043     16.38211   6457.77859   -29.41811   0.9145   2809.36561    1e-05  55370.98289  51.56485   1.44153  18.13643     55431.29 
    14.07154  1.77815   5.76949       3.18042         4693.55199  0.17293  0.02803     0.10868  12.88615     17.10091   7773.87785   -10.89096  0.81019    6081.0787    7e-05  55389.51004  52.19096  12.16826  18.08703  55437.03818 
    14.60449  1.82089   2.67138       3.74882         2178.01584  0.13123  0.02232      0.1189  62.62269     17.40268   3965.58885    -5.41581  1.09847  16575.27983  0.00014  55394.98519  53.18411  12.23463  18.03543     55433.16 
    14.16564  1.77933   2.89259       0.83286         5007.86918  0.08311  0.01007     0.28422  64.32895     16.15339   5303.32768    -28.7968  1.04877   3780.11948    1e-05   55371.6042  51.90201    7.7804  18.06502     55425.29 
    14.33894  1.53611    5.8232       4.69088         2875.35689   0.2262  0.04163     0.13562  26.06237     19.02857   4867.74969   -10.33867  0.37168  13728.71042  0.00593  55390.06233  52.95697    18.221  18.08729    55435.252 
    13.72202  1.63606   4.25137       2.08929         4884.85052  0.05375  0.03896     0.30125  20.73573     17.25219   7469.22422   -14.38158   1.3625   9424.38596   0.0001  55386.01942  52.61201   4.15234  17.86812     55434.29 
    14.04899  1.47493   4.98602        3.9752          4192.9707  0.10088  0.02385     0.27789  33.03959     16.92557   5715.52525   -13.06878  0.63682  10941.52195    5e-05  55387.33222  52.77798    8.4725  18.20948    55435.296 
    14.16829   1.8229   8.28024       2.32186         5171.40658  0.46148  0.09819     0.32087  18.60502     18.84729   3624.83526   -12.91028  1.54449  19279.63031  0.00391  55387.49072   53.2248  34.92426  18.08709     55431.29 
     14.8369  1.57672  13.84176       2.93912          4443.0835  0.15976  0.03423      0.1009   69.8396     17.72502   3920.31051   -10.32093  1.27807  23086.19659  0.00029  55390.08007  53.47918  15.14682  17.97672     55430.18 
    14.43312   1.8508   5.17728       3.21189         5439.11919  0.30975  0.10457     0.16558   7.84813     16.65654   6572.84231    -11.1555  0.24787   10532.2179    3e-05   55389.2455  52.62135  19.57458  17.89922     55433.16 
      14.679  1.88095    4.5494       3.97619         3128.61697  0.08707  0.07612     0.24005  22.02022     17.34686   5677.02513   -11.68952   0.1333  15021.02236  0.00012  55388.71148  53.02177   6.80166  18.13823     55433.16 
    14.86145  1.82458   7.69723       4.86708         4250.86153  0.47326   0.0553     0.27329  12.15125      18.9642   8280.07385    -6.23567  0.23385     8579.556  0.00512  55394.16533  52.48465  32.90019   18.2312  55437.03818 
    13.99828  1.52094   5.25834       3.57111          2495.8702  0.43431  0.12482      0.2751  17.92686     17.24514   5333.51983   -12.28083  1.10041  21902.47557   0.0001  55388.12017  53.33249  32.63501  18.04652     55433.16 
    13.90796   1.7261    4.9386        4.0276         4126.05733  0.04972  0.01498     0.02953  26.73953     17.65708   7214.82933    -9.42931  1.42246   5602.02491  0.00025  55390.97169   52.1804   4.02383   18.0769  55440.31036 
    13.75229  1.86596   5.11773       1.80056         4929.20208  0.32583  0.14615     0.37505  16.06078     18.31155   5274.24274    -20.3526  1.13353  17572.35811  0.00114   55380.0484  53.13188  23.96551  18.08657     55431.29 
    14.26659   1.6759   6.27088       4.94148         3281.11106  0.30624  0.07836     0.46505   18.7991     19.49347     4109.472   -10.45338  0.66964  19356.46742  0.01731  55389.94762  53.22911  23.22195  18.04833  55437.03818 
    14.32559  1.62524    3.5614       1.48074         2989.25991  0.09808   0.0171     0.25396  44.01922      16.7638   6184.75169    -6.12856  0.79302  12501.16742    3e-05  55394.27244  52.91467    8.6442  18.17349    55434.247 
    14.12511  1.72806   5.99244       0.72369         3110.45221  0.40793  0.10841      0.3248  13.13406     16.87906   4557.71098    -13.5344  1.12172  16397.27919    4e-05   55386.8666  53.05424  28.81698   17.9566     55425.29 
    13.35577  1.68824  17.06089        4.5554         3778.42668  0.28929  0.06736     0.11991  52.43755     20.07222   5956.25446   -10.84347  0.18193  30339.06619  0.06561  55389.55753  53.69707  26.22782  17.99697     55430.18 
     14.8043  1.81826   2.61674       0.26252         3008.35005  0.24938   0.0495      0.1342  36.61352     16.62346     4979.463    -4.52635  0.85012  19970.66983    2e-05  55395.87465  53.30822  21.31459  18.18308    55434.247 
    14.25176  1.63383   4.88934        0.7845         4667.01045  0.30612  0.03328     0.12371  15.48224     17.72691   8883.77105    -7.88894  0.77263   8884.63667   0.0003  55392.51206  52.53636  22.35354  17.89436     55433.16 
    14.08772  1.55211   4.24389       2.00079         3876.02425  0.14127  0.03851     0.37939   9.80903     16.02211   4115.21997    -11.4986  0.57787   6592.78433    1e-05   55388.9024  52.23607   9.38308  18.28384    55430.242 
    14.83118  1.60379   3.15945       3.06364         2177.58618  0.33585  0.05758     0.28772  28.57371     18.92054   7471.15736    -11.0509  0.45996  20797.72699  0.00463   55389.3501  53.32486  27.50045  18.15018     55433.16 
    14.40304  1.29635   5.34851       0.67919         4997.15999  0.19751    0.042     0.41663  38.10239     17.91236   5963.18567    -9.66111  0.59411  20560.98997  0.00045  55390.73989  53.33644  16.99518  18.12771  55440.31036 
    13.96602  1.88133   5.67547       0.80793         5328.81375  0.26035  0.08922     0.25508  16.09227      18.6102   4943.69938   -13.55557  1.19699  18746.19258  0.00226  55386.84543  53.18822  19.15696  18.04834     55431.29 
    14.77968  1.87622   5.34589       3.09301         2189.35665  0.15136  0.06503     0.43214  35.40951     19.55016   5797.49322   -11.14904  0.18682   21843.6188  0.01972  55389.25196  53.38362  12.86325  18.04732  55437.03818 
    13.83152  1.70124   4.16159       0.61358         5143.02496  0.04346  0.01256     0.08068  75.18415     20.65864   7046.10461   -13.26627  1.34493  11491.96278  0.25315  55387.13473  52.87812   4.16626  18.03922      55428.3 
    14.92045  1.70591   4.32821        3.5334         2238.86801  0.35059  0.08728     0.25298   27.6868     17.30827   3249.42347    -6.73814  0.25423  22747.35375  0.00011  55393.66286  53.40026  28.54755  18.01685     55433.16 
    14.36487  1.51944   4.38035        3.7536         3798.60771  0.23347  0.10211     0.18496   9.82641     18.47477   8308.61982   -14.51471  0.23943  13728.34125  0.00166  55385.88629  52.87334  15.51336  18.19745     55431.29 
    14.53948  2.07896   5.71538       1.67392         5259.52791  0.45598  0.04312     0.07442   8.02118     18.90475   7620.78689    -7.58102  0.48558   4538.24482  0.00446  55392.81998  51.89225   28.9596   18.0898  55430.49383 
    14.40895  1.60906   2.88721       0.03375         5417.16764  0.13968  0.02082      0.1652  51.82442     19.61584   6193.39909   -11.51162  0.83632  12610.46046  0.02294  55388.88938  52.93371  12.64002  18.10272    55427.211 
    14.64561  1.38063   5.46803       0.74886         4517.88002  0.33651  0.06913     0.23109  24.04152     16.55743   4027.07445    -9.43845  0.34595  18771.15518    2e-05  55390.96255  53.22235  26.71394   18.3047     55434.29 
    14.42328  1.67014   5.91057       3.26303         4475.43463  0.49607   0.1016     0.24791   8.31643     18.91853   5529.64178   -19.91205  0.28985   8343.94715  0.00461  55380.48895  52.42478  31.76525  18.01868     55433.16 
    13.98647  1.87159   3.26793       3.62988         3474.82817  0.08439  0.02311     0.42385   47.1885      21.1965   4578.01643    -8.63364  0.84237  15708.85849  0.87343  55391.76736  53.11798   7.52255  18.24567     55434.29 
    14.38002  1.72266   5.97115       0.83409         4980.22424  0.10746  0.01654     0.06883  61.55254     16.06328    6497.6962   -11.47683  0.98223  14064.98501    1e-05  55388.92417   53.0403   9.99164  18.16171     55431.29 
    14.64062   1.7764   4.55384       4.21927         4121.31991  0.03115  0.01009     0.02283  36.06266     16.70076   8381.89786    -9.62588  0.22881   3534.59089    3e-05  55390.77512    51.803   2.65594  18.12506     55433.16 
    14.42354  1.64463   4.02779       3.57016         4512.12903  0.15501  0.15098     0.18807   7.07932     18.08735   6338.64458   -20.52054  0.15981   8817.96199  0.00068  55379.88046  52.45668   9.56508  17.97706  55430.49383 
    14.45153  1.73692   5.84316       0.64841         5833.98384  0.34187  0.04833     0.13732  22.94056     16.18847   5118.19875    -9.23004   0.8222  12621.47889    1e-05  55391.17096  52.87387  26.90758  18.25422      55428.3 
    14.38475  1.70377   4.42482       0.29308         5575.52164  0.10047  0.01848     0.05863    61.821     17.69172   7346.22372     -7.5633   0.8637  15812.65432  0.00027   55392.8377  53.14233   9.34856  17.98081  55433.76601 
    13.88118  1.74294   4.60311       2.78922         2286.37974  0.20531  0.06964     0.11903  25.08948      20.4747   5507.89875   -15.57163  1.30411   20706.2475  0.16574  55384.82937  53.31094  16.42553  18.09399    55427.211 
    14.90442  1.68754   5.74289       3.15602         2422.17315  0.19294  0.03218     0.10739  22.18657     18.52441   6654.52303    -11.3135  0.12283  11591.67344  0.00186   55389.0875  52.79726  15.09296  18.12818     55430.18 
    13.62482  1.35716   3.46181       0.37679         2951.96293  0.05082  0.08199       0.348   8.78556     18.82434   5056.10765   -16.93497  1.23816  14448.05144  0.00371  55383.46603  52.90701   3.29446   17.9424     55433.16 
    14.89816  1.67542   1.16399       2.58544         5450.34677   0.1011  0.01379     0.02179  40.47959     18.99368   9902.73597    -8.59236  0.35663   2264.21791  0.00548  55391.80864  51.42459   8.78782  18.10434     55425.29 
    14.33431   1.9708   6.14992       3.43275         4443.78741  0.20869  0.05836     0.36032   9.53252     17.53248   7190.37966   -11.22325  0.48593   9544.17955  0.00019  55389.17775   52.5547  13.77486  18.06798     55433.16 
    14.01956  1.86025   5.07788       4.27227         4547.91976   0.0279  0.02678     0.08046  13.12239     19.61512   7778.55552   -27.12901  0.79823   2798.74483   0.0229  55373.27199  51.51854   1.97072  18.06862     55436.32 
    14.56324  1.98425   4.93455       4.56917         5246.01421  0.25118   0.0253     0.08649  18.37386     18.90284    6836.1156   -13.89535   1.1365   2401.81409  0.00444  55386.50565  51.41464  18.96383  18.06309    55435.296 
    14.57437  1.57032   4.27299       0.19814         4676.52921  0.49112  0.07573     0.32171   18.9947     16.72326   5589.82322   -12.86678  0.71057  14390.63331    3e-05  55387.53422  52.97248  37.31479  18.10258  55430.49383 
    13.77689  1.42155   4.64148       4.59129         4693.82014  0.00637  0.01114     0.02798  22.65022     16.89031   6189.47053   -17.00377  1.23292   3338.44908    4e-05  55383.39723  51.71772   0.49986  18.12676  55440.31036 
    14.24586  1.44161   3.69553       3.06204         2895.11438  0.04414  0.06744     0.26231  10.28085     17.12264   5009.33027   -16.52364  0.27381   9657.40874    7e-05  55383.87736  52.57207   2.96212  18.11182    55436.268 
    14.51853  1.67804   5.71755       3.79704         3424.50036  0.11395  0.01695      0.2049  54.03805     16.56903   5830.00051     -8.5063  0.62893  11194.55082    2e-05   55391.8947  52.83315  10.38036   18.0617    55427.261 
    13.87289  1.51684   4.90886       2.45491         2084.48292  0.11552  0.02725     0.04592  61.51333     18.40794   5964.12118   -16.74775   1.4016  18335.51161  0.00142  55383.65325  53.27057  10.73987  18.18404    55435.252 
    14.79987  1.24172    5.9736       1.28604         5358.45163  0.16544  0.02772     0.48297  68.35932     16.00392   4770.63165   -12.68277   0.3922  17377.41509    1e-05  55387.71823  53.23102    15.634  18.26376  55440.31036 
     13.9206   1.3781   4.61738       3.02417         5525.04264  0.23948   0.0118     0.04281  25.24203     20.89092   7714.68707    -12.7045  1.30147   5466.30674  0.43216   55387.6965   52.1546  19.18028  18.08777    55435.252 
     14.1999  1.60921   9.06734       0.04837         3974.05052  0.25808  0.03269      0.0502  35.85602     16.03045   8473.59894   -12.55126  0.80543  17801.09791    1e-05  55387.84974  53.20679  21.98018  18.15975     55433.16 
    14.29667  1.58016   5.13479       0.43823         3785.02425  0.34174   0.1001     0.25394   24.2579     20.33005   4477.02634    -9.91573  0.50482  23194.33878  0.11879  55390.48527  53.40684  27.17354  18.05109     55425.29 
    13.81603  1.64023   4.29011       4.75632         3424.08895  0.01897  0.04787     0.14232  10.46838     17.43364   6448.60299   -10.93653  1.51568   7312.94009  0.00015  55389.46447  52.33223   1.27789  18.17728  55433.76601 
    14.75561  1.87685   1.89152       3.56314         5815.57611  0.10671    0.012     0.01415  38.21661     20.35605   8575.45343    -3.28295  0.46495   2179.86895  0.12612  55397.11805  51.38744   9.18681  18.09593     55430.18 
    14.08665  1.63678   4.44107       4.92005         4444.77391  0.03333  0.06532     0.14341   8.71759     18.09869   6296.83763   -15.74248  0.47979   7724.24932   0.0007  55384.65852  52.36235   2.15712  18.19128  55437.03818 
    14.05332  1.75408   5.70023        3.8384         3343.44327   0.2446  0.06951      0.1236  33.31134     18.85001   5543.90151   -20.58099  0.47319  23184.07605  0.00393  55379.82001  53.43081  20.57173   18.1118      55428.3 
    14.06413  1.57529   5.42894       0.79134         5063.40461  0.36233  0.07634     0.21169  13.37385     19.25906   5353.39947   -10.10741  1.31107  14549.64608  0.01009  55390.29359    52.952  25.69097  18.19258     55436.32 
    14.52912  1.83178   3.37608       3.90979         4844.54889  0.13357  0.01064     0.02502  30.85677     19.28819   6271.82077    -3.94429  1.22298   2990.42695  0.01079  55396.45671  51.64615  11.08565   18.1897  55440.31036 
    14.41179  1.45289   8.59856       2.95586         3936.44068  0.14698  0.02136     0.14061  63.47268     17.92548   5085.45934     -8.2333  1.55023  14986.55951  0.00047   55392.1677   53.0975  13.73162   18.1001    55427.261 
    14.05437  1.63813   5.61546       0.31261         3132.95397  0.47032  0.15032     0.39615  13.81285     18.06282   3581.86808   -14.29043  0.75062  20174.81351  0.00064  55386.11057  53.23877  33.56719  18.14093     55430.18 
    13.88351  1.48585   5.29901        2.8669         4509.55397  0.16071  0.03353     0.10126  21.79583     17.90875   6904.55609    -10.3633   0.9799   14542.6494  0.00045   55390.0377  52.99283  12.53055  18.19462  55440.31036 
    14.47024   1.4111   3.12227       3.60753         5286.99315  0.30587   0.0128     0.02309  45.24191     21.20061   8899.42495    -7.72068  0.71194   6597.57051  0.88174  55392.68032  52.36148  27.07878  18.02757    55430.242 
    13.69233  1.47729   3.84339       3.80701         2984.64226  0.15398  0.11999     0.41551   7.75385     18.39077   5233.73119   -13.55853  1.44812  12189.37221  0.00137  55386.84247  52.74707   9.70407  17.94973     55431.29 
    14.83331  1.62293   0.78805       2.70804         3094.39812  0.27458  0.05799     0.12931  38.01016     18.96827   4987.01419    -3.03983  1.39738  25397.67744  0.00516  55397.36117  53.51977  23.61666  18.16035  55433.76601 
     13.7754  1.53935   4.46738       0.02048         3541.96111  0.16204  0.08303     0.43897  21.54921     16.57389   4798.23188   -17.28881  1.45839  19689.48736    2e-05  55383.11219  53.25509  12.60707  18.24244    55430.242 
    14.68569   1.1478   9.37485        3.0131         4791.65994  0.48912  0.06885     0.27086  20.32586     16.10282   5754.33481    -9.87152   0.4701  14515.26483    1e-05  55390.52948  52.98553  37.64192    18.181     55431.29 
    13.86975  1.80049   4.27867       1.01891         3965.55594  0.05829  0.05772     0.24384   15.2356     20.10179   4566.99937   -17.00542  1.13965  14702.09409  0.07023  55383.39558  52.97245   4.24263  18.00944  55430.49383 
    14.36944  1.60949   8.47015       4.63292         3792.72183  0.12181  0.01732      0.2362  50.80903       17.585   5217.89092   -13.50164  0.66019  11919.76834  0.00021  55386.89936  52.88341   10.9879  17.90869  55423.94947 
    13.97211  1.68914   4.13229       4.40184         2247.09055  0.07129  0.03031     0.22309  35.09568     17.33306   3904.61851   -12.44146  1.10878  15882.58571  0.00012  55387.95954  53.10616   6.04979  18.13108     55430.18 
    14.19969  1.71513    5.5738       4.18703         3378.65178  0.18888   0.0564     0.37624  45.26653      20.2136   3164.14309    -9.13225   0.6918  22257.67415  0.09085  55391.26875  53.41771  16.72255  18.15647    55436.268 
    13.96387  1.89256   4.96892       3.99906         2485.06582  0.37124  0.11355     0.37084   9.95287     19.71651    3058.7172   -17.02265  1.16082  15538.73898  0.02892  55383.37835  52.98214  24.73658  18.01098     55433.16 
    13.84821  1.42625   4.56492       0.12448         5216.11999  0.07279  0.02283     0.31403  43.29251      17.6286   4012.70456   -19.01344  1.12725  14017.45863  0.00024  55381.38756  53.01292   6.39734  18.11601     55431.29 
    13.64992  1.53722   4.26581       4.32706         4992.22127  0.01518  0.09617     0.26369    7.4864     17.28052   5834.26231   -17.16587  1.48215    6490.6923  0.00011  55383.23513  52.19618   0.94913  18.17073  55440.31036 
