 texplosion  fnickel    Pspin  log(Bfield)      Mns  thetaPB  mejecta    kappa  kappagamma     vejecta  temperature    alpha  cutoff_wavelength  log(nhhost)      A_V         MJD0  kenergy  mnickel             TSD   log(L0)  Peak_mag     Peak_MJD  log(E_rad)  log(Peak_lum)  Rise_Time    E_fold  tau_1  delta_m15     r_peak     frac 
   -8.27778  0.00183  7.13372     13.99366  2.03817  1.00182  2.70503  0.02973     0.30088  6023.30054   8218.29281  4.33025         2909.76357     17.00916    6e-05  57699.89222  0.58542  0.00496   9916481.11585   43.8751  21.51643  57736.78062    50.80884       43.85404   20.87166  77.52332  112.5    0.14098   -20.3089  0.99884 
   -8.51047  0.02341  5.32687     13.69946  1.31087  1.36318  7.27463  0.01102     0.04362  5781.56075   6250.03895  3.18436         2997.69898     19.04505  0.00616  57699.65953  1.45054  0.17029  13784651.53401  43.79407  21.50995  57734.45194    50.81692       43.84207   19.38083  83.48665  110.5    0.14516  -20.29768   0.9592 
   -8.65372  0.09141   6.7716     13.88541  1.84016  1.29311   2.1011  0.04468     0.07589  6550.89894   3313.12281  4.57802         2827.78791     16.44084    2e-05  57699.51628  0.53787  0.19207  13281198.61402  43.74908  21.49302  57734.45194    50.73612       43.85892   19.38083  76.03248   83.5    0.15003  -20.33897  0.95476 
    -7.9618  0.00159   6.5665     13.90304   1.8845  0.98647  3.66529  0.01706     0.01628  5345.98017   8281.97098  4.80527         3009.66713     17.69077  0.00027   57700.2082  0.62487  0.00584   11792540.1041  43.83777  21.50744  57736.78062    50.75613       43.87344   19.38083  73.05082   73.5    0.12509  -20.27231  0.99867 
   -8.91112  0.00625  6.25597     13.87909  1.67921  1.12697  7.39883  0.01086     0.13369  5795.58267   7767.67692  2.94465         3045.41836     18.11038  0.00072  57699.25888  1.48247  0.04625  10649587.57692  43.87403  21.51693  57736.78062    50.75499       43.86078   22.36249  76.03248  109.0    0.14109  -20.30948   0.9891 
   -8.14628  0.00542  6.02992     14.24371   1.6934  0.35313  3.74689  0.01914     0.01886  6079.91511   5974.36818  4.46245         2728.44486     19.17594  0.00833  57700.02372  0.82622  0.02032   1861176.94414  44.66719  21.51398  57734.45194    50.72974        43.8594   19.38083  74.54165   71.0    0.11957  -20.30979   0.9955 
   -7.82642  0.00157  5.79657     13.81365  1.47918  1.54142  5.39629  0.01221     0.02916  5553.20836   4291.36442  2.39253         3160.30601     19.53305  0.01896  57700.34358  0.99268   0.0085  10886024.64505  43.87565  21.50733  57736.78062    50.73155       43.86202   22.36249  71.55998   90.0    0.15453  -20.30669  0.99795 
   -7.54345  0.02184   6.6542     13.85174   1.8666  1.32542  5.40074  0.01182     0.01161   5517.1578   6678.49156  4.28052         3054.54978     18.19788  0.00088  57700.62655  0.98064  0.11795  15191004.77456  43.71212  21.49191  57734.45194    50.69504       43.84826   19.38083  71.55998   78.5    0.13237  -20.29094  0.97286 
   -8.51143  0.05251   4.7896     13.66236  1.15325  1.12206  7.76212   0.0107     0.03691  5831.32991   7371.04144  2.97314         2965.68291     20.00267   0.0559  57699.65857   1.5745  0.40762  11630938.77713  43.90455  21.47125  57736.78062    50.76952       43.89654   19.38083  70.06915  105.0    0.14553  -20.35517   0.9098 
   -7.73766  0.15087  5.66898     13.69075  1.29836  1.20771  6.39431  0.01358     0.09075  5545.55599   3560.90038  4.35947         3012.23566     17.26623   0.0001  57700.43234  1.17304  0.96468  16096087.16424  43.66851  21.51771  57734.45194    50.78276       43.85181   19.38083  83.48665  119.0    0.16019  -20.30173  0.77894 
   -8.01547  0.05625  7.06749     13.87935  2.10324  1.39597  3.26731  0.02324     0.28448  6029.46163    6831.3475  4.99759         2931.16841     18.04785  0.00062  57700.15453  0.70856  0.18378  17003321.51513  43.66267  21.48813  57736.78062    50.70726       43.84395   20.87166  73.05082  137.5    0.12456  -20.31957  0.95993 
   -8.05916  0.02018  6.33021     13.98728  1.66667  0.85612  5.70923  0.01166     0.02205  5129.05456   7234.30767  2.70529         3217.30115     19.59432  0.02183  57700.11084  0.89594  0.11523   6575745.67456  44.06991  21.48144  57734.45194    50.82005       43.86025   19.38083  76.03248   97.5     0.1492  -20.29831  0.97267 
   -8.00594  0.44527  6.22546      13.6583  1.48542  1.04541  4.76357  0.02045     0.13063  5517.10718   7812.38726  3.28072         3112.92208     16.18515    1e-05  57700.16406  0.86493  2.12109  25787639.31766  43.44094   21.4571  57736.78062    50.78472       44.01879      17.89  49.19749  142.0    0.14546  -20.26799   0.5935 
   -9.14123  0.25326  7.29833     14.04526  1.93056  1.33877   4.2621  0.02133     0.14962  5324.16401   6402.60841   2.0219         3196.46542     20.34218  0.12215  57699.02877   0.7207  1.07942   7752401.58743  43.93865  21.48511  57734.45194    50.67649       43.91552   18.15595   56.3857  115.5    0.15596  -20.40199  0.78422 
   -8.47242  0.01968  5.96537     13.80148  1.59654  1.17624  2.47989  0.02964     0.25872  5841.43488   7086.23329  3.77232         2990.57313     16.62455    2e-05  57699.69758  0.50478  0.04881  13161465.99576  43.80145  21.49736  57736.78062    50.70482       43.91972   18.15595   60.8582  120.5    0.13304  -20.30313  0.98857 
   -8.71997  0.00612  6.17635      13.9767  1.80266  0.92416  4.80933  0.01387      0.0281  4986.61621   6831.68139  2.82113         3185.93823     20.40351  0.14068  57699.45003  0.71338  0.02944   7108734.70166   44.0915  21.48097  57734.45194    50.83209       43.84961   19.38083  81.99581  104.0    0.14409   -20.4046  0.99396 
   -7.85138   0.0011  6.55542     13.99034  1.85245  1.17629  4.02268  0.01333     0.02268  5855.48852   7859.92699  1.32882         3454.30422     19.78798   0.0341  57700.31862  0.82275  0.00441    7728304.3432  44.01531  21.49436  57736.78062    50.78307       43.88382   19.38083  65.59665   68.5    0.10944   -20.3576  0.99903 
   -8.91111  0.15012  6.82651     14.04449  1.83307  0.89833  3.55803  0.02695     0.40732  6109.25773   5563.95153  2.69123         2989.35786     20.10626  0.07096  57699.25889  0.79216  0.53412   6462780.05317  44.05321  21.48613  57734.45194    50.80673       43.89529   19.38083  68.57832  112.0    0.15788  -20.40289  0.88425 
   -7.65105  0.01318  6.35658     14.03974  1.64395  0.69125  6.93406  0.01048     0.04505  5844.30579   3045.87789    3.064          3048.3996     16.12965    1e-05  57700.51895   1.4128  0.09137   5136508.63669  44.16762  21.51186  57736.78062    50.73436       43.91647   18.09834  63.89748   98.5    0.14718  -20.28935  0.97741 
    -8.5832  0.03444   6.4082     13.87224  1.78619  1.04324  2.86193  0.02634     0.03747    5842.583   7031.10245  4.65003           2891.239     17.66859  0.00026   57699.5868  0.58277  0.09856  12266744.88895  43.81857  21.50223  57736.78062     50.7909       43.85762   22.36249  76.03248   86.0    0.13126  -20.28896  0.97744 
   -7.84726  0.01086  5.66417     13.75922  1.56288  1.11057  4.04559  0.01835     0.16349  6627.95845   5665.23008  3.45954         2917.43878     16.10958    1e-05  57700.32274  1.06015  0.04395    14111224.449  43.80693  21.48844  57734.45194    50.71775       43.88816   19.38083  68.57832  121.5    0.11581  -20.35103  0.99027 
   -8.81566  0.08349  6.00889     14.11497  1.65859   0.4351  3.13338  0.02713     0.03287  6079.73789   5888.09741  4.89904         2899.11968     19.49842   0.0175  57699.35434  0.69089  0.26161   3274930.18763   44.4158  21.50871  57734.45194    50.67703       43.89126   19.38083  59.63332   86.0    0.13294  -20.33001   0.9427 
   -7.39062  0.00119  5.68389     13.97237  1.58106  0.57113  3.81174  0.01494     0.06094  5741.83588   4788.10121  4.01695         3056.06777     19.14805  0.00781  57700.77938  0.74964  0.00455   5386628.37253  44.22719  21.46674  57736.78062    50.82896         43.909   20.87166  67.08748  103.5    0.11889  -20.31157  0.99899 
    -9.4469  0.03228  7.90862     14.10901  2.17245   0.9706  9.05665  0.01029     0.03972  5165.04278   6666.41963  3.73835         3068.05118     19.72026  0.02917   57698.7231  1.44126  0.29233   7637287.91855  43.92665  21.50982  57736.78062    50.70747       43.87634   19.38083  68.57832  118.5      0.159  -20.30182  0.92983 
   -9.22693  0.00983  6.63753     13.93883  1.78576  1.45675  4.23695  0.01922      0.0481  5465.43411   5269.89599   1.9319         3309.86301     18.99449  0.00549  57698.94307  0.75497  0.04164   9682666.29721  43.89066  21.50747  57736.78062    50.83024       43.89178   19.38083  74.54165   95.0    0.14893  -20.31096  0.99013 
   -8.45819  0.00163  7.20284     14.05157  2.06704  0.85126  4.27634  0.01718     0.03419  5547.01407   3902.82913  3.72986         3055.49948     18.28284  0.00107  57699.71181  0.78491  0.00697   7853030.56775  43.97415   21.4729  57736.78062    50.67313       43.84848   20.87166  65.59665   95.0     0.1372  -20.28942  0.99836 
    -7.7097  0.00617  6.71679      13.9248  1.90728  1.17503  4.10918   0.0158      0.0195  5966.84903   8671.01459  3.03298         3038.29457     19.59444  0.02184   57700.4603  0.87272  0.02534  11296550.74884  43.84199  21.54353  57736.78062    50.90998       44.00229   20.87166  62.61499   67.5    0.12551  -20.33113  0.99424 
   -8.84382  0.03824   6.6515     14.04853  1.78006  0.69259  4.81477  0.01754     0.21108  5935.82926   5626.36935  4.19691         2884.53787     17.61074  0.00023  57699.32618  1.01197  0.18411   5848235.79126  44.10642  21.49018  57736.78062    50.76202       43.91032   20.87166  62.61499  123.5     0.1444  -20.28663  0.95604 
   -9.21819  0.00128  6.57157     13.90774  1.84364   1.0522  3.88651  0.02029     0.49389  5272.33601   4704.00846  4.25201         3024.35271     18.17472  0.00083  57698.95181  0.64446  0.00497  11306805.77368  43.84584  21.47091  57736.78062    50.83353       43.97566   19.38083  55.16082  117.5    0.13911  -20.28489  0.99884 
   -8.19937  0.00541   6.0154     13.78742  1.61093  1.31846  2.10267  0.03622     0.39394    5747.648    3728.9011  4.00122         3062.75578     18.29033  0.00108  57699.97063  0.41436  0.01138  14407444.92442  43.75881  21.47917  57736.78062    50.75501       43.99898      17.89  53.66999  109.5    0.14665  -20.32189   0.9973 
   -8.27774  0.04449  7.54217      14.1421  2.09367  0.85239  2.49449  0.03156     0.43342  6273.83073   5771.42511  2.29895         3020.39413     17.61251  0.00023  57699.89226   0.5857  0.11098   5748076.25923  44.07524  21.46411  57734.45194    50.71775       43.84596   19.38083  76.03248  107.5    0.14126  -20.32223  0.97347 
   -7.98826  0.03147  6.22272     13.88246  1.68867  0.95398  5.56762  0.01084     0.14597  5472.38285   5264.10084  3.37552         3108.00417     18.00041  0.00056  57700.18174   0.9946   0.1752  10432968.96126  43.89002  21.52772  57736.78062       50.79       43.97725   16.39916  56.65165  126.5    0.12293  -20.28626  0.95994 
   -8.32609  0.00876  6.17772     13.89153  1.61552  0.97934  7.38797  0.01045     0.05642  5657.03889   7507.30415  3.59541         3096.91603     18.09451  0.00069  57699.84391  1.41036  0.06474   9434801.50522  43.92077  21.47386  57736.78062    50.83555       43.87534   19.38083  79.01415  111.5      0.159  -20.31924  0.98428 
   -9.11371  0.00374   5.2815     13.84694  1.31687  0.80534   6.1617  0.01276     0.05041  5759.46241   6401.64469  2.34205         3164.01465     16.45487    2e-05  57699.05629  1.21925  0.02306    6902414.2756  44.10387   21.5114  57736.78062    50.73499       43.88819   19.38083  68.57832  105.5    0.14343  -20.30126  0.99445 
   -8.23897  0.03858  7.54481     13.97357  2.09856  1.39679   6.0096  0.01357     0.01468  5811.37596   5481.59872  4.27836         2933.30012     18.75189  0.00314  57699.93103  1.21068  0.23184  12528163.30893  43.73758  21.49521  57734.45194    50.83374       43.83399   19.38083  84.97748   84.0    0.15169  -20.30753  0.94512 
   -8.39588  0.00459  5.81756     13.99255  1.56371  0.60003  2.67863  0.02905     0.07416  6016.06059   6835.16699  4.12067         2918.09322     17.43013  0.00015  57699.77412  0.57831   0.0123   5085657.95038  44.22717  21.51489  57736.78062    50.70893       43.93828   20.87166  56.65165  101.5    0.13377  -20.31275  0.99714 
   -8.48722  0.08521  6.55368     13.94371  1.72184  0.98397  3.72956  0.02154     0.21686  6046.21053   7019.86497  2.73995         3134.95054     16.62837    2e-05  57699.68278   0.8133  0.31781   8899400.87929  43.92251  21.48653  57736.78062    50.81285       43.97066   19.64679  53.40403  114.0    0.14328  -20.34329  0.92595 
   -7.97947  0.00276  6.83712     13.91897  1.97252  1.15831  3.09099  0.02352     0.05539  6064.95658   6379.14911    4.467         2862.61978     18.31145  0.00114  57700.19053  0.67824  0.00853  12435110.62845  43.79947  21.48411  57736.78062    50.77258       43.85565   20.87166  80.50498   97.5    0.12818  -20.31458  0.99806 
   -8.26432  0.04851  5.74357     13.77053   1.4723  1.37916  4.08801  0.01452     0.10478  5293.33004   5299.24088  2.19406         3323.13516     16.03848    1e-05  57699.90568  0.68328  0.19832   12975003.0883  43.80537  21.49608  57736.78062    50.68867       43.83681   20.87166  71.55998  114.5    0.12186  -20.27859  0.95389 
   -8.54453  0.00332  5.85653     14.00083  1.57907  0.64248  6.17037  0.01164     0.19243  5361.11265   3537.22011  3.62163         3087.42195     19.94662  0.04913  57699.62547  1.05791  0.02051   5009893.46622  44.23214  21.50837  57736.78062    50.83255       43.86243   22.36249  77.52332  113.5    0.14458  -20.33975  0.99532 
    -9.2655  0.00529  6.31539     13.83619  1.69348  1.54396  4.74229  0.02003     0.37849   5835.7679   5454.91247  4.58258         2861.71116      16.9254    5e-05   57698.9045  0.96341  0.02507  13335951.45151   43.7718  21.52689  57736.78062    50.86996       43.91365   20.87166  79.01415  116.5     0.1567  -20.32302  0.99401 
   -9.02099  0.00256   6.1494     14.15428  1.67929  0.51503  3.57683  0.01904     0.01862  5107.96763   6515.89787  2.44459         3248.75366      19.7503  0.03126  57699.14901   0.5567  0.00914   2897609.02824  44.45427  21.53332  57736.78062    50.71894       43.85388   20.87166  73.05082   80.5    0.13018  -20.30521  0.99791 
   -8.75488  0.01719  6.57102     13.96505  1.73914  0.93097  7.60641  0.01074     0.04004  5521.58918   3739.43384  3.17872         3108.41986     18.49781  0.00175  57699.41512  1.38336  0.13077   8190598.52411   43.9606  21.48902  57736.78062    50.65104       43.84835   20.87166  61.12415  104.5    0.15337  -20.30008  0.96845 
   -9.09787   0.0039   5.5981     13.77803   1.6439  1.19655  3.28548  0.02676     0.01626  5954.04598   5251.60582  4.96803         2775.76691      20.3096  0.11333  57699.07213  0.69478  0.01281  13296029.40358  43.86492  21.51901  57736.78062    50.73839       43.86674   20.87166  74.54165   67.0    0.13287  -20.42421  0.99744 
   -8.56715   0.0222  7.33927     14.15697  2.11704  0.66994    5.665  0.01365     0.01187  5796.65646   8181.08845  3.28585         3044.05774      18.1959  0.00087  57699.60285  1.13549  0.12577     5139351.606  44.15236  21.45846  57736.78062    50.66557       43.88527   19.38083  58.14249   69.5    0.13316  -20.31534  0.97132 
   -9.57693  0.00101  5.83308     14.01642  1.60402  0.58909  4.71825  0.01991     0.22409  6030.59067   3838.03083  3.83067         2952.43229     19.63346  0.02389  57698.59307  1.02359  0.00477   4698642.12247  44.27029  21.50026  57736.78062    50.81906       43.89797   20.87166  73.05082  107.5    0.13808  -20.35807  0.99893 
   -8.20638  0.12225  7.34849      13.9431  1.86866  1.53048  6.27803  0.01271     0.03258  5670.94452   4948.65995  2.44716          3145.0604     16.32484    1e-05  57699.96362  1.20437  0.76752   12176875.8797  43.72244  21.50178  57736.78062    50.79287       43.86277   19.38083  77.52332   99.5    0.13588  -20.28768  0.82333 
   -8.17038  0.26029  7.76364     14.00216  1.93984  1.17222  3.57794   0.0268      0.1377  6036.94874   5183.62549  3.02861         3047.34653     16.63166    2e-05  57699.99962  0.77785  0.93131  10749721.86297  43.74508  21.55158  57736.78062    50.79247       43.92081   20.87166  74.54165  115.5    0.15368  -20.31736  0.78355 
   -8.73539  0.00521  7.40552     13.95437  2.07284  1.45439  5.49001   0.0147     0.26143  5498.92117   6242.59605  4.33051          3036.1693     17.56007   0.0002  57699.43461  0.99027  0.02862   13024161.6777  43.73155  21.52008  57734.45194    50.81693       43.94013   19.38083  70.06915  125.5    0.15239   -20.2933  0.99301 
    -8.5327  0.04366  5.67227     13.70542  1.63272  1.52226  3.92847  0.01866     0.01492  6026.22732    5865.0183  4.15241         2847.89745     19.70634  0.02825   57699.6373  0.85102   0.1715    18940618.249  43.69685  21.53324  57736.78062    50.72909       43.88288   20.87166  70.06915   68.5    0.10795  -20.33814  0.96483 
   -9.38637  0.00573  6.29004     14.19377  1.80208  0.59269  4.68238  0.01626     0.17807  5415.91167   3611.63153  1.82766         3197.46234     20.24831  0.09841  57698.78363  0.81929  0.02683   2712386.38563  44.49396  21.50494  57734.45194    50.74949       43.87478   19.38083  76.03248  100.5     0.1394  -20.37819  0.99439 
   -8.43649  0.00389  6.47898     14.25802   1.9074  0.36405  3.18718  0.02098     0.01686   5275.3938   3803.06048  4.55804         3068.81472     17.58723  0.00021  57699.73351  0.52911  0.01239     2265899.124  44.57103  21.50515  57736.78062    50.91544       44.10525   18.89775  47.38156   75.0       0.12  -20.29216  0.99728 
   -9.02411  0.00358   5.5084     13.79186  1.35988   1.2492   4.3714  0.01992      0.1078  5600.42534   9357.56624  2.59059         3076.63428     17.19327    9e-05  57699.14589  0.81788  0.01564    9991836.2457  43.92065  21.49681  57736.78062      50.811       43.88605   22.36249  67.08748   85.5    0.16751  -20.30654  0.99614 
    -8.1936  0.05915  6.10297      13.7568  1.72443  1.35453  2.61936   0.0279     0.13881  5997.76884   6070.05707  4.81798         2946.90126     16.48578    2e-05   57699.9764  0.56208  0.15493  18278500.62182  43.67247  21.49257  57734.45194    50.82861       43.89577   19.38083  73.05082  125.5    0.12154  -20.31225  0.96591 
   -8.92416  0.07134  5.42397     13.79281  1.38083  1.10914   6.2352  0.01463     0.02293  5760.21119   4168.88313  2.52037         3050.17326     20.11742   0.0728  57699.24584  1.23411  0.44481   9794374.47012  43.94937  21.48465  57736.78062    50.82448       43.90847   19.38083  68.57832   89.0    0.14895  -20.38408  0.90474 
   -8.67492   0.0394  6.09512     13.83223  1.59385  1.14186  6.30437  0.01302     0.31968  6057.91399    7776.3092  2.81618         3075.61486     18.51961  0.00184  57699.49508  1.38011  0.24837  11906081.76578  43.82556  21.48594  57736.78062    50.78968       43.89729   19.38083  65.59665  111.0    0.13823  -20.32128  0.94237 
   -7.92613  0.00325  6.30848     14.06583  1.76252  0.57584  3.52401  0.01947     0.04351  5496.28845   7373.45572  4.44267         3027.73333     19.02018  0.00582  57700.24387  0.63504  0.01144   4809910.80187  44.23299  21.48099  57736.78062    50.77122       43.88273   20.87166  65.59665  103.5    0.13409  -20.29762  0.99736 
   -7.97803  0.10469  6.68911     14.07575  1.74629   0.6752  3.10923  0.02049      0.4641  5190.25193   8377.82488  2.43254         3297.76023     18.85871  0.00401  57700.19197  0.49964  0.32552   5118778.54496  44.15106  21.46761  57734.45194    50.79561       43.89515   19.38083  64.10582  111.5    0.12475  -20.25228  0.92271 
   -7.91634  0.01118  7.29017     13.94001  2.08771  1.48642  5.10164   0.0128     0.01995  5702.79685   7304.44349  3.61879         3026.53622     17.90369  0.00045  57700.25366  0.98972  0.05703  13581124.03839   43.7301  21.48666  57736.78062    50.89076        44.0706   19.38083  47.70666   85.0    0.12847  -20.28975  0.98666 
    -8.1609  0.00643  5.41745     13.86321  1.38236  0.71461  3.30311  0.02289     0.03244  5669.96711   7215.58639  4.66592         2985.29302       16.355    1e-05   57700.0091  0.63345  0.02123   7072960.18279  44.09227  21.49244  57734.45194    50.80852       43.93218   17.40691   64.5889   91.0     0.1553  -20.30611  0.99488 
   -9.06995  0.00327   6.6113     13.97639  1.82293  1.26146  2.00404  0.02999     0.12627  5463.49794   3410.25378  1.25434         3547.99162     18.72169  0.00293  57699.10005  0.35684  0.00656   8248647.82943  43.97266  21.48018  57736.78062    50.68223       43.90143   19.38083  59.63332   91.0      0.117   -20.2919   0.9985 
   -8.44563   0.0243  6.28713     13.83717   1.6903  1.45387   5.0262  0.01282     0.38172  5939.11013   5069.37892  2.30141         3186.85057     18.41234  0.00144  57699.72437  1.05757  0.12213  13132550.13135  43.78156  21.50644  57736.78062    50.67578       43.89548   22.36249  56.65165  109.0    0.12307  -20.31259  0.97167 
    -9.0436  0.02484   5.3348     13.85917  1.37079  0.71997  2.77276   0.0311     0.48822  6024.49706   5978.24752  3.83516         2949.63963     17.00871    6e-05   57699.1264  0.60032  0.06887   6929128.40294   44.1109  21.50144  57736.78062     50.7473       43.90533   20.87166  67.08748  122.0    0.14372     -20.33  0.98393 
    -8.3162  0.01377   6.4767     13.95925  1.80768  0.94746  2.08468  0.03385       0.453  6957.19273    4721.6178  2.07585         2964.93866      19.2684  0.01031   57699.8538  0.60191  0.02871   8494708.81188  43.97411  21.50307  57736.78062    50.81688       43.90031   20.87166  64.10582   96.0    0.11166  -20.36637  0.99347 
    -7.7409   0.2063  6.43524     13.80972  1.69016  1.18165  3.38609   0.0246     0.07477  5876.37055   4101.64733  4.08756         2988.38567     16.36632    1e-05   57700.4291   0.6975  0.69856  15611373.81849   43.6862  21.45822  57736.78062    50.80871       43.86467   20.87166  74.54165  105.5    0.13659  -20.30789   0.8468 
   -8.24623  0.01401  7.08524     14.16469  1.97783   0.6533   4.5246  0.01581     0.02845  5712.97088   7428.76322   2.6603         3129.50872     19.07956  0.00667  57699.92377  0.88091  0.06339   4318403.72576    44.229  21.49786  57734.45194    50.66408       43.86185   19.38083  62.61499   88.5    0.13868  -20.31073  0.98511 
   -8.23499  0.00655  6.29821     13.87152  1.82137  1.01323  5.67166  0.01275     0.02181  5956.22168   8070.75481  4.28758         2925.44398     19.09475  0.00691  57699.93501  1.20027  0.03717  12122924.00851   43.8472  21.48546  57736.78062    50.77823       43.83385   23.85333  71.55998   85.5    0.11802  -20.32567  0.99187 
   -9.34822  0.00111  5.52134     13.79207  1.45049  0.99289  3.65613  0.02382     0.06362  5593.74604   5658.25127  3.78561         3029.06118     19.37189  0.01308  57698.82178  0.68242  0.00406  10697410.97264  43.91699  21.48807  57734.45194    50.67741       43.90394   18.15595  59.36736  110.0    0.14682   -20.3264  0.99906 
   -8.84051  0.11283  6.46601      13.9276  1.57628  0.95056  7.45863  0.01266     0.14148  6027.21106   5744.47812  2.27777          3143.4349     18.79518  0.00347  57699.32949  1.61629  0.84158   8541118.23843  43.91369   21.5556  57736.78062    50.75289       44.01262   17.40691  54.15307  118.5    0.14306  -20.33321  0.81004 
   -8.50974  0.00799  5.83578     13.90704  1.62406  1.06914  3.68525  0.01785     0.01852  5615.85461    7654.3176  1.98413         3225.21485     20.25487  0.09991  57699.66026  0.69331  0.02945   7880026.07061  44.05072  21.47967  57736.78062    50.80389       43.87058   20.87166  68.57832   69.0     0.1324  -20.39121  0.99376 
     -8.004  0.22405  6.77392     14.01219  1.66921  0.81252  3.39263  0.03036     0.17591  6039.53631   6997.81293  3.98636         2973.08314     19.76409  0.03227    57700.166  0.73819  0.76013   6723855.50821  44.00206  21.49579  57736.78062    50.82721       43.91764   19.38083  71.55998  114.5    0.17736  -20.37811  0.82395 
   -8.42201  0.02462  6.67172     13.94418  1.82295   0.9625  4.05756  0.02345     0.10573  6292.84386   4014.09028  4.86497         2876.01998     16.09993    1e-05  57699.74799  0.95849  0.09989   9743478.51656  43.89243  21.52287  57736.78062    50.70663       43.85997   20.87166  70.06915  103.0    0.15193  -20.33882   0.9763 
   -8.53907  0.09954  6.79353     14.23456  1.58952  0.47063  9.58286  0.01038     0.05499  5540.84991   4066.92898  2.71548         3131.73659      19.3216  0.01165  57699.63093  1.75499  0.95388   2312868.23457  44.44177  21.50118  57736.78062    50.69622       43.87171   19.38083  67.08748  106.0     0.1647  -20.32349  0.77729 
   -9.01619  0.00345  6.36231     14.02389  1.84312   0.8085  3.91005  0.01987     0.12349  5424.43937   4761.47278  3.19709         3068.35965     20.26154  0.10145  57699.15381  0.68631  0.01348   6206014.66733  44.13436  21.47863  57736.78062    50.81077       43.91397   20.87166  64.10582  111.0    0.14319  -20.39696  0.99713 
    -7.6284  0.18905  6.54446     13.96313  1.74975  0.79831  4.71161  0.01803     0.14472  6072.60505   5977.41756  3.85973         2976.85279      20.1751  0.08314   57700.5416  1.03645  0.89074   8246557.54817   43.9638  21.50212  57734.45194    50.85783       43.91748   19.38083  79.01415  133.0    0.14266  -20.39527  0.81729 
    -8.8569  0.00226  5.11991     13.68339  1.29399  1.37508  2.50097   0.0282     0.26767  5497.99299   5590.22743  2.40619         3217.85586     18.24227  0.00097   57699.3131  0.45097  0.00566  13536071.17542  43.83076  21.49702  57736.78062    50.84051       43.94661   20.87166  67.08748  115.0    0.13581  -20.30272  0.99868 
   -8.12261  0.00221  5.19496     13.84871  1.35096  0.74455  5.76374  0.01307     0.13082   5778.8348   3292.01898  3.70223         2993.71232      19.9509  0.04962  57700.04739  1.14819  0.01273     6795191.467  44.13612  21.53747  57736.78062    50.82195       43.86737   19.38083  83.48665  108.0    0.14875  -20.35983   0.9971 
   -8.74723  0.00699  7.13313     14.05372  2.02898  0.83951  3.32796  0.02586     0.14839  5828.18504   4652.55206  4.16541         2946.17002      16.5301    2e-05  57699.42277  0.67433  0.02328   7485483.95165  43.99534  21.53318  57736.78062    50.70452       43.84524   22.36249  73.05082  108.0    0.14199  -20.31305  0.99454 
   -7.50992  0.00428  5.06841     13.86653  1.34143  0.62422  3.60684  0.01823     0.02624  5757.46441    4282.8421  4.52227         2972.85108     19.99165   0.0545  57700.66008  0.71321  0.01544   5916391.16296  44.21461  21.49745  57734.45194    50.77879       43.85617   19.38083  84.97748   84.0    0.14002  -20.35651  0.99657 
   -8.16742  0.43644  6.61962     13.87058  1.70997  0.69278  4.83789  0.02191     0.01036  6164.42908   4361.54712  2.96555         3010.96542     17.12783    7e-05  57700.00258  1.09665  2.11145  12627450.67306  43.75885  21.50341  57736.78062    50.77361       43.87204   22.36249  68.57832   64.0    0.13174  -20.31984  0.61746 
    -8.7267  0.08846  6.69961     14.07039  1.78926  0.72288     3.51   0.0235     0.36598  5648.76818   8649.23003  2.85588         3073.30236     16.04098    1e-05   57699.4433   0.6681  0.31051   5392738.52539  44.13761  21.47074  57736.78062    50.75631       43.94471   20.87166  56.65165  104.0    0.14364   -20.3164  0.92856 
   -8.31112  0.23985  7.17927      14.4756  1.87316  0.22507  5.82301  0.01773      0.0145  6220.39804   6286.59966  3.25408         2993.22554     16.48228    2e-05  57699.85888  1.34404  1.39667   1003122.74481  44.82791  21.50578  57736.78062    50.72955       43.85522   20.87166  73.05082   75.5    0.13089  -20.33591  0.71746 
   -8.60606  0.00523  6.16022      13.8691   1.7233  1.07067  5.52269  0.01309     0.11535  5474.36255   7273.13511  3.24847         3093.47044     19.80242  0.03525  57699.56394  0.98729   0.0289  11096275.30097  43.88084  21.50495  57734.45194    50.69537       43.90475   18.15595  62.34903  122.5    0.13081  -20.32436  0.99355 
   -8.39431  0.09544  7.13569     13.89624  1.88026  1.55914  4.35892  0.01978     0.01844  5493.30691   5788.89817  4.89441         2978.86883     16.09624    1e-05  57699.77569  0.78465  0.41603  14335724.21223  43.67977  21.53102  57736.78062    50.80795       43.85752   20.87166  76.03248   88.5    0.16114  -20.29883  0.90053 
   -8.70641  0.00882  5.65097     13.81583  1.65949   1.4228  7.15837  0.01207     0.30501  5977.62466   8419.13968  4.24683         2722.00763     20.52243  0.18499  57699.46359   1.5258  0.06314  11491247.72911  43.92421  21.49885  57736.78062    50.83653       43.84666   22.36249  80.50498  104.0    0.14558  -20.48005  0.98778 
   -8.78845  0.00203  6.35368     14.03371  1.69322  0.75684   4.7635  0.01746      0.0585  5684.04986    4489.8198  2.77153           3086.784     19.49244  0.01727  57699.38155  0.91806  0.00968   5434492.76425  44.15635  21.47232  57736.78062     50.8092       43.85693   20.87166  76.03248   98.0     0.1512  -20.31903  0.99768 
   -8.76803  0.20365  7.81879     14.22404  1.79652  0.67045  6.95711  0.01232     0.24551   5535.6539   3656.93277  1.59446         3400.31118     17.22891    9e-05  57699.40197  1.27173  1.41683    3634557.0966  44.17655  21.50314  57736.78062    50.80709        43.9294   18.15595   60.8582  105.5    0.14656  -20.28946  0.68258 
    -8.8384  0.29296  7.52995     14.00392  1.81731  1.54718  4.07455  0.01927      0.0318  6002.54468   5703.15046  1.33366         3408.39962     16.80347    4e-05   57699.3316  0.87574  1.19369   9396854.84943  43.80171  21.48305  57734.45194     50.8305       43.87816   18.15595  77.25736   83.0    0.12812  -20.32442  0.73677 
    -7.9722  0.00244  6.60095     13.84738  1.83552  1.40237  1.73342    0.037     0.07118  5373.72689   3189.43222  4.93861         3019.08548     17.81214  0.00036   57700.1978  0.29859  0.00424  14997957.44706  43.71736  21.45728  57736.78062    50.77446       43.87412   19.38083  70.06915   97.0    0.14259  -20.29025    0.999 
   -8.20055  0.00469  6.19905     13.98248  1.66627  0.88087  2.42193  0.02193     0.12403  5826.90156   6985.79498   1.3577         3472.96899     17.27209   0.0001  57699.96945  0.49053  0.01135   6445438.94247  44.09669  21.49973  57736.78062    50.76518       43.90975   20.87166  62.61499   97.0    0.10717  -20.30412  0.99736 
   -8.37554   0.1754  4.88094      13.8554  1.16365    0.544  3.02825  0.02894     0.39966  5940.06327   6334.60802  3.91543         2967.30414     16.51214    2e-05  57699.79446  0.63738  0.53114   5010093.76107  44.25781    21.487  57736.78062    50.68209       43.86863   19.38083  64.10582  130.0    0.14494  -20.32805  0.88035 
   -8.32892  0.00406  6.12615     13.90573  1.63935  0.92883  2.32996  0.03119     0.07338  5905.16288   4451.01578   2.9211         3051.80547     17.95561   0.0005  57699.84108  0.48466  0.00947   8818718.59112  43.96374  21.53131  57734.45194    50.70318       43.84596   19.38083  73.05082   89.0    0.12954  -20.30208  0.99776 
   -8.33521  0.00239  6.26001     13.96196  1.68216   0.8674  3.76157  0.01722     0.03901  5810.90456   8303.28911  2.21828         3200.65077     18.45749  0.00159  57699.83479  0.75768  0.00899   7293136.22169  44.03865  21.51116  57736.78062    50.74445       43.86155   19.38083  76.03248   82.0     0.1206  -20.29908  0.99787 
   -8.07233  0.00132   6.3059     13.87138  1.70914  1.19102  6.39233  0.01129     0.10917  5858.97969   8490.33202  3.31486         2991.98026     18.80541  0.00355  57700.09767  1.30897  0.00841   11410975.9874  43.84481  21.49586  57736.78062    50.75425       43.89157   19.38083  65.59665  103.0    0.13877  -20.31239  0.99801 
    -8.3609  0.00557  6.31763     13.90306  1.64065  1.06657  3.90362   0.0214     0.20489  5967.64054   8288.28492  3.76415         2906.62744     17.54449  0.00019   57699.8091  0.82928  0.02175    9502057.5306  43.90494  21.49168  57736.78062    50.75174       44.03185   16.39916  49.19749  100.5    0.15902  -20.30287  0.99459 
   -8.01876  0.08893  6.38278     13.98306  1.67745  0.70102  3.88928  0.01897     0.02403  5477.06863   5413.79548  4.87771         2952.67575     17.07431    7e-05  57700.15124  0.69597  0.34586   6860617.03957  44.04711  21.50149  57736.78062    50.76639       43.89381   19.38083  67.08748   92.0    0.14542  -20.27351  0.91911 
   -7.68075  0.00451  6.33386       13.841  1.74412  1.14106  4.01303  0.01668     0.22715  5777.00218   4324.74115  4.16774          3035.4204     16.02303    1e-05  57700.48925  0.79892   0.0181  13512382.43731  43.77635   21.5158  57736.78062    50.70938       43.85852   22.36249  70.06915  111.5    0.13585   -20.2906  0.99574 
   -7.67382  0.02372  6.76813     13.90047  1.91415  1.14529  3.76336  0.01688     0.03988  5728.98853    3384.1616    4.079         3013.50262     17.31502  0.00011  57700.49618  0.73682  0.08925  12876066.19641   43.7801  21.50274  57734.45194    50.66388       43.83501   19.38083  67.08748   92.5     0.1304  -20.29559  0.97947 
   -8.58175  0.06227  7.14518     13.92989  1.96175  1.40627  3.41954   0.0242     0.07391  5926.10676   8454.42256  3.48727         2983.29269     17.54419  0.00019  57699.58825  0.71636  0.21295  12844070.79529  43.74476  21.49647  57736.78062     50.8146       43.89298   20.87166  68.57832   97.0    0.13989   -20.3045   0.9498 
   -9.02537  0.04632   7.1776     13.92076  2.02101  1.56871  3.81182  0.02179     0.05565  5701.84053   8630.19803  3.70565          2985.7056      16.2867    1e-05  57699.14463  0.73925  0.17657  13926059.84322  43.71863  21.53983  57736.78062    50.68079       43.88474   19.38083  61.12415   98.5    0.13732  -20.29376  0.95914 
    -7.6454  0.00244  5.96546     13.86395  1.60917  0.90217   5.9936  0.01135     0.02799  6049.96926   5240.52559  4.21661         2925.53437     17.94475  0.00049   57700.5246  1.30864  0.01462   9949477.86546  43.92636  21.46239  57734.45194    50.73931       43.95269   18.15595  54.89486   94.0    0.12973  -20.30128  0.99657 
   -8.65623  0.02473  6.79207      14.1199  1.83761  0.60964  7.10268  0.01177     0.02355  5645.80355    8213.6706  4.06435         2945.91132     18.04547  0.00062  57699.51377  1.35052  0.17568   4531868.85582  44.21282  21.48156  57734.45194    50.66513       43.85032   19.38083  65.59665   95.0    0.14733  -20.28816   0.9583 
   -8.37098  0.10257  7.08947     13.89945  1.75366  1.34493  8.75419  0.01007     0.02905  5776.38305   6976.46029  2.59952         3223.32178     16.06209    1e-05  57699.79902  1.74243  0.89788  13004265.26458  43.69748  21.49848  57736.78062    50.79517       43.94435   19.38083  62.61499  110.5    0.14607  -20.31503  0.79422 
   -7.37932  0.03615  6.94714     14.11696  1.93087  0.60809  5.47104  0.01339     0.28736  5933.75698   3383.42904  4.97643         2951.21752     18.76519  0.00324  57700.79068   1.1491   0.1978   5049644.06523  44.16773  21.45256  57734.45194     50.8074       43.86691   19.38083  79.01415  112.5    0.14421  -20.31452  0.95391 
   -7.82253  0.06933  5.83816     13.74346  1.50209  1.16073  6.49786  0.01216     0.05056  5914.10421   5536.22124  4.45999         2918.34867     16.16537    1e-05  57700.34747  1.35574  0.45053  15492958.96687  43.72286  21.51836  57734.45194    50.84511       43.83382   20.87166  93.92248  120.0    0.13734  -20.29032  0.89773 
   -8.62111   0.0493  6.52516      13.8828  1.74997  1.04829  5.45663  0.01455     0.01857  5251.84734   6103.79002  4.24256         3066.60132     16.86413    4e-05  57699.54889  0.89779    0.269  11869131.24802  43.80827  21.45715  57736.78062    50.73813        43.9268   19.38083  59.63332   98.5     0.1462  -20.28185  0.93723 
   -7.88716  0.05591  6.69434     13.97585  1.78161  0.86613  3.80676  0.02057      0.4684  5726.58275   7300.64487  4.50647          2951.3307     17.61718  0.00023  57700.28284  0.74469  0.21283   8285801.60881  43.94991  21.50813  57734.45194    50.87334       43.86766   19.38083  99.88581  122.5    0.15425  -20.29964  0.94899 
   -9.03705  0.26401  6.34992     13.88566  1.36988  1.38207  5.32957  0.01538     0.04101   5726.0069   9333.26667  1.23345         3545.72646     16.53828    2e-05  57699.13295  1.04237  1.40707   8683757.49706  43.86128  21.49316  57736.78062    50.86476       44.03161   19.64679  53.40403   83.0    0.14471  -20.30858  0.68868 
   -7.82274  0.08061  6.33963      13.9265  1.69832  0.92858  3.78425  0.01664     0.01409  5535.63854   5350.07301  2.43687         3218.54021     18.29444  0.00109  57700.34726  0.69174  0.30506   8891421.87795  43.94577  21.50141  57734.45194    50.80567       43.86664   19.38083  76.03248   67.0     0.1161  -20.29898  0.93125 
    -8.2245  0.00198  5.95736     13.90689  1.61507  0.89586   2.8745  0.02303     0.03102  6020.61568   3344.31514  2.31425         3144.18084     18.49383  0.00173   57699.9455  0.62154   0.0057   8172290.40607  44.01458  21.49797  57736.78062    50.80744       43.98479   20.87166  61.12415   72.5    0.12124   -20.3305   0.9987 
   -8.01399  0.03585  6.81451     13.84623  1.86693  1.50871  6.24071  0.01075     0.29867  5282.17192    5288.9286  4.71857         3042.76595     17.48299  0.00017  57700.15601  1.03869  0.22373  16344150.75008  43.65974  21.48878  57736.78062    50.84911       43.96151   20.87166  61.12415  136.0    0.14274  -20.26169  0.94734 
   -8.66358  0.00278  6.27338     13.86977  1.73078  1.51439  6.73563  0.01167     0.01175  5752.58933   8684.23776  2.92505         2976.85569     20.01277  0.05721  57699.50642  1.32963  0.01875  11521640.06513  43.85057  21.49912  57736.78062    50.81499       43.87292   22.36249  71.55998   70.5    0.14495  -20.34572  0.99577 
   -8.80988  0.06979  7.52727     14.30295  1.93303  0.57166  8.42212  0.01015     0.15677  5825.37643   4105.68706  1.56383         3308.01345     17.02129    6e-05  57699.36012  1.70489   0.5878   2520166.19332  44.40038  21.45659  57734.45194    50.81165       43.90608   19.38083  67.08748   95.0    0.14878  -20.30463  0.86236 
    -8.0944   0.3176  7.10167     13.88997  1.70581  1.08883  3.70824  0.02677     0.06974  5474.83096   4981.00833  4.57279         2971.97234     18.78014  0.00335   57700.0756  0.66303  1.17773  13259269.73485  43.67553  21.48335  57734.45194    50.80466        43.9255      17.89  64.10582  120.0    0.16079  -20.28948   0.7336 
   -8.38907    0.002  6.68648     14.06766  1.78955  0.73817  5.28271  0.01229     0.13401   5229.0178   3772.81865  2.92515         3193.08133     17.99385  0.00055  57699.78093  0.86164  0.01055   5440331.88035  44.13557  21.50023  57734.45194    50.70393       43.87039   19.38083  68.57832  109.0    0.14612  -20.27423  0.99741 
   -8.89557  0.05962  6.23772     13.99977  1.73943  1.07694  7.46367  0.01015     0.28199  5351.34102   8629.45875  1.96126          3238.0558     20.46108  0.16062  57699.27443  1.27499  0.44495   6291311.08256  44.12046  21.47608  57734.45194    50.69271       43.85121   20.87166  68.57832   94.5    0.15481  -20.44167  0.91199 
   -7.28232  0.00543   6.2141     13.98064  1.67867  0.80933  3.06585  0.01876     0.18632  5967.27718   4506.76413  2.31327         3187.07899     19.38559   0.0135  57700.88768  0.65122  0.01664   6580586.47585  44.08879  21.50789  57736.78062    50.79077       44.00121      17.89  52.17915   99.0    0.12206  -20.32515  0.99611 
    -8.1606  0.48149  6.95556     14.01685  1.65314  0.66441  3.27145  0.02771     0.01622  5580.98239   4467.14769    2.864         3119.59133     18.72329  0.00294   57700.0094  0.60784  1.57517   6872153.60106   43.9654  21.50621  57734.45194    50.83837       43.91305      17.89  67.08748   71.5    0.13795  -20.29507  0.67048 
   -8.70659   0.3113  6.79188     14.11763  1.82493  0.53814  3.49585  0.02847     0.01397  5832.86328   4846.86467  3.59634         2980.17583     19.88057   0.0422  57699.46341  0.70949  1.08827   4547505.33644  44.20834  21.49109  57736.78062    50.82449       43.87083   20.87166  74.54165   68.0    0.13194  -20.35972  0.78165 
   -8.79389  0.00134  6.66707     13.89819   1.8724  1.47231  5.88077  0.01234     0.02474  5502.07024   3308.98797  2.86017         3139.72115     19.75562  0.03165  57699.37611  1.06197   0.0079  12351184.42021  43.80167  21.55926  57736.78062    50.82479       43.92367   17.40691  67.57057   93.5    0.13305  -20.32044  0.99819 
   -9.56634  0.00316  6.31143     13.95466  1.67521  0.92547  7.04083  0.01294     0.34535  6103.90642   5388.06821   3.0592         2916.64368     17.20528    9e-05  57698.60366  1.56483  0.02227    7635195.7241  44.00984  21.49384  57734.45194    50.78023        43.8594   19.38083  84.97748  108.5    0.14886  -20.32047  0.99466 
   -8.62397  0.00579  5.02346      13.7945  1.26415  0.74733  5.92381  0.01256     0.10161  4962.09071   5785.18667  4.58455         3060.89228     19.64082   0.0243  57699.54603  0.87008  0.03428   7631545.75473  44.08603  21.48624  57736.78062    50.72732       43.90916   19.38083  64.10582  129.0     0.1539   -20.3107  0.99193 
    -8.0491  0.04911  6.47201     13.83378  1.75535  1.29122  5.57299  0.01378     0.01225   5916.6357   8231.59537  3.81959         3011.40559     17.09255    7e-05   57700.1209  1.16376   0.2737  14679102.56847  43.72443  21.51637  57736.78062    50.73043       43.85844   19.38083  76.03248   69.5    0.13665  -20.31096   0.9374 
   -8.99621   0.0021  5.82423     13.88907  1.46351  0.81369   4.2435  0.02176     0.20909  5380.61108   5575.74223  4.86447         3018.59601     17.63348  0.00024  57699.17379  0.73285  0.00891   7683140.05395  44.01823  21.48978  57736.78062    50.76096       43.86914   22.36249  73.05082  116.5    0.16773  -20.29951  0.99774 
   -7.64376  0.00349  6.44087     13.95941   1.8018  0.89656  4.97045  0.01184     0.01168  5579.38178   6086.83445  2.66221          3171.7082     16.15677    1e-05  57700.52624  0.92298  0.01734   8367256.07334  43.98408  21.48354  57736.78062    50.82636       43.92166   20.87166  65.59665   71.0    0.11878  -20.30136  0.99604 
   -7.72982  0.00161   5.4556     13.99681  1.63491  0.62802  5.45195  0.01071     0.01004  5931.53855   3870.32254  2.40839         3012.97368     20.41411  0.14416  57700.44018  1.14423  0.00877   4585424.44851  44.34728  21.50161  57736.78062    50.74233       44.01453   17.40691   51.1714   63.0    0.10166  -20.44967  0.99835 
   -8.56441  0.01338  5.95004     13.86818  1.52609  0.96493  4.49543  0.01911     0.31265  5648.48692   3404.89188  3.99601         2976.13472     18.39367  0.00138  57699.60559  0.85558  0.06015   9206017.06786  43.93931  21.45492  57736.78062     50.7967        43.8981   20.87166  67.08748  105.5    0.16156  -20.30687  0.98527 
   -8.09846  0.13183  6.75272     13.91094  1.64327  1.04212  8.86542  0.01152     0.06796  6034.10246   6633.96661  3.55586         2892.10177     19.86626  0.04083  57700.07154  1.92554  1.16877  10486051.82457  43.80498  21.50286  57736.78062    50.77205       43.84945   20.87166  77.52332  125.5     0.1526  -20.35364  0.74788 
   -8.44313  0.00136  6.24637     13.93233  1.72806  0.84533  4.91445  0.01538     0.02113  5656.45771   7660.00468  4.28476         2927.82016     19.33295  0.01196  57699.72687  0.93797  0.00668    8550113.8593  43.98318  21.45584  57736.78062    50.79193       43.91939   19.38083  62.61499   86.5    0.13608  -20.29436  0.99846 
     -8.479  0.00173   5.9355     13.80766  1.52328  1.31336  2.88932  0.02987     0.17459  5900.45761   3187.45386  3.44968          2997.0773     16.19723    1e-05    57699.691  0.60006  0.00499   12083601.3514  43.82251  21.50987  57736.78062    50.82434       43.89792   18.15595  68.31236  100.5    0.16128  -20.31752  0.99877 
   -8.44852  0.11668  6.23277     14.21406  1.53303  0.37401  5.72922  0.01668     0.01855  6030.27544   6997.03729  3.64785         2960.52847     17.49141  0.00017  57699.72148  1.24279  0.66851   2063484.07424  44.55043  21.51268  57734.45194    50.74124       43.86405   19.38083  76.03248   86.5    0.15316  -20.31203  0.84501 
   -7.99238  0.00655  5.72611      13.8311  1.46742   1.0218  3.79384  0.02017     0.16243  5904.79939   5248.91618  3.31471         2961.33613     17.07436    7e-05  57700.17762  0.78907  0.02486   9724845.20322   43.9318  21.49174  57736.78062    50.73981       43.84753   20.87166  77.52332  110.5    0.14505  -20.30589  0.99399 
   -7.93511   0.1399  6.70574     14.09544  1.67914  0.58809  5.61155  0.01387     0.17092  5606.18151   3801.29743  3.03884         3065.75758      18.3581  0.00127  57700.23489  1.05207  0.78506   4517663.27424  44.18613  21.49709  57736.78062    50.77064       43.96444   20.87166  59.63332  111.5    0.13968  -20.28061  0.82144 
   -8.55663  0.08333  6.35359     13.83827  1.69787  1.08525  3.75972  0.02123     0.02319  5495.02928   4287.45027  4.57451          3029.2806     16.94135    5e-05  57699.61337  0.67721   0.3133  13403402.38644   43.7655  21.48046  57734.45194    50.83635       43.89927   19.38083  70.06915   87.5    0.14387  -20.28939  0.92766 
   -8.76904  0.20736  6.66672     13.83454  1.67965  1.31967  3.58786  0.02703     0.48774  5974.78959    3087.4364  3.89647         2948.82684     16.44953    2e-05  57699.40096  0.76403  0.74397    14851645.748  43.67446  21.48669  57736.78062    50.81685       43.86845   22.36249  71.55998  110.5     0.1471  -20.30599  0.82975 
   -8.74386  0.00295  4.60546     13.58999  1.23915  1.26662  6.08464  0.01289     0.13921  5787.17188    8447.7882  4.90529           2837.976     20.25323  0.09953  57699.42614  1.21561  0.01796  16124974.08531  43.82793  21.48363  57736.78062    50.70992       43.93165   20.87166  56.65165  115.5    0.13519  -20.39922   0.9963 
   -8.63871  0.00274  6.51321     14.16251  1.81308   0.4941  6.96707  0.01185     0.02191  6157.74204   6074.18985  4.32444         2863.58816      17.1542    8e-05  57699.53129  1.57587  0.01912   3379039.34797  44.37088  21.48108  57736.78062    50.76381       43.88042   20.87166  68.57832   93.0    0.13825  -20.30952  0.99555 
   -8.07587  0.30404  7.05799     14.37391  1.84317  0.26749  4.34385  0.02215     0.01013  5433.81943   6177.12194  4.72306         2990.43063     19.04983  0.00623  57700.09413  0.76509  1.32071   1523774.12367  44.65413  21.54366  57736.78062      50.698       43.92289   22.36249  56.65165   78.0    0.14166  -20.29082   0.7285 
   -8.81912  0.15836  6.26991     14.23935  1.46887  0.33337  6.08835  0.01614     0.03111  5984.88633   9226.52212  3.49766         2986.59576     17.10723    7e-05  57699.35088  1.30088  0.96414   1780796.90886  44.59069  21.49611  57736.78062     50.6731       43.87758   19.38083  61.12415   93.0    0.15394  -20.29154  0.77698 
   -8.21495  0.00904  6.85063     14.06161  1.87975  0.77537  4.13878  0.01731     0.01524  5482.94763   4500.97788  3.24097         3136.16864     17.20147    9e-05  57699.95505  0.74221  0.03743    6168282.1499  44.08132  21.51328  57736.78062    50.83378       43.87284   22.36249  77.52332   76.0    0.14728  -20.30661  0.99104 
   -8.68997   0.1308  7.08179     14.16766  1.86263  0.57718  5.07087  0.01594      0.1044  5288.60226   5047.37118  3.53785         3073.33636      19.9433  0.04876  57699.48003  0.84604  0.66325    4007830.3917  44.23578  21.49182  57736.78062    50.76187       43.91606   18.15595  66.82153  124.0    0.14792  -20.31406  0.85129 
   -8.52661  0.01802  5.02848     13.98067  1.25921  0.44553  5.60083  0.01415     0.09098   5944.2466   3426.50706  3.41567         3067.27745     16.30529    1e-05  57699.64339  1.18052  0.10095   3231778.82127  44.45663  21.48143  57736.78062    50.78945       43.89303   19.38083  70.06915  104.5    0.13704  -20.31629  0.97631 
   -8.82548  0.00474  5.45831      13.8785  1.55061  0.76955  6.29096  0.01351      0.0324  6343.68165   3617.07675  3.88147         2829.73119      20.2175  0.09167  57699.34452  1.51017  0.02979   7506528.04781  44.10979  21.49107  57736.78062    50.80875       43.84384   22.36249  76.03248   91.0    0.12751  -20.41869  0.99386 
   -7.83806  0.16195  8.07425     14.00816  2.15658   1.4935  7.13682  0.01206     0.04193  5910.17201   7078.84902  3.26132         2946.57658     20.14583  0.07773  57700.33194  1.48707  1.15577  12573816.08139  43.68894  21.55431  57736.78062     50.6796       43.87395   19.38083  62.61499  116.5    0.14736  -20.35787  0.75873 
   -8.70865   0.0228  6.06328     13.86395  1.62909  0.99814  6.78011  0.01232      0.0209  6047.47671   7665.62977  4.06927          2813.5034      19.4471  0.01555  57699.46135  1.47915  0.15457  10405788.09045   43.8981  21.50456  57736.78062    50.85864       44.03045   19.58917  51.97082   86.5    0.13149  -20.31368  0.96472 
   -7.56131  0.02123  6.44937       13.885  1.85673  1.05613  5.00947  0.01321     0.02796  5800.58495    3614.0368  4.88781         2925.59897     19.90701  0.04485  57700.60869  1.00545  0.10633   12178750.3474  43.83296    21.494  57736.78062    50.66475       43.83196   20.87166  67.08748   93.0     0.1331  -20.34007  0.97676 
   -8.72875  0.03219  5.68617     13.97598  1.65743  0.95181  5.07391   0.0136     0.33551  5562.08725   8018.50599  1.67336         3303.89998     20.53108  0.18871  57699.44125  0.93637  0.16335   5558154.92126  44.23371  21.46301  57736.78062    50.76918       43.92616   20.87166  56.65165   97.0    0.13794  -20.48067  0.96931 
   -9.21183  0.00397  5.88889     13.79825   1.5389  1.38442  5.88997  0.01674     0.23265  5957.10237    5408.2494  3.67781         2873.75822     16.49365    2e-05  57698.95817  1.24684   0.0234  12548406.24104   43.8174  21.52174  57734.45194     50.7986       43.83349   19.38083  92.43165  111.5     0.1537  -20.32515  0.99443 
   -8.88612  0.07458  5.85942      13.7989  1.48506   1.1121  4.13223  0.02238     0.26873  5900.21302   6925.49251   3.5829         2975.38116     18.34284  0.00122  57699.28388  0.85812  0.30817  11952983.57013   43.8274  21.50774  57736.78062    50.83369       43.88742   20.87166  71.55998  121.0    0.14833  -20.31578  0.92769 
   -8.97671  0.00789  6.82024     14.01882  1.86179  0.83017  4.08589  0.01758     0.08233   5234.0992   8165.62325  3.80427         3124.41618     19.24036  0.00966  57699.19329  0.66772  0.03224   7373931.68107  44.00348  21.48234  57734.45194    50.77154       43.85886   20.87166  74.54165  112.0    0.15149  -20.28688  0.99218 
