 log(Bfield)      Mns    Pspin  cutoff_power  cutoff_wavelength  fnickel    kappa  kappagamma  mejecta  log(nhhost)  temperature  texplosion  thetaPB     vejecta      A_V        MJD_0   log(KE)      M_Ni  Peak_mag     Peak_MJD 
    14.08278  2.01133  7.03825       3.78306         2807.70258  0.00588  0.01559     0.34285  5.08825     17.28563   7603.76516    -8.55951  0.73837  6198.26029  0.00011  57699.61049   52.1155    0.3348  21.53524  57735.02955 
    13.93366  1.81445  6.67223       1.87726         3089.30631  0.00102  0.01739     0.12574  3.93047     18.85435   7322.84681    -7.69579  1.22076  6103.56505  0.00397  57700.47421  52.07267   0.05437  21.50204  57737.77361 
    13.98447  1.88963   6.9579       2.23312         2967.21999  0.00122  0.01754     0.09959  4.40716     18.15599   9197.02215    -8.22018   1.1059  6256.76008   0.0008  57699.94982  52.10751   0.06707  21.55254  57737.77361 
    13.91191  1.91167  6.53317       4.88605         2882.08187  0.00136  0.02183     0.01621   3.2458     17.82188   7236.99559    -8.08728  0.94692  5848.74499  0.00037  57700.08272  52.01242   0.06839  21.50208  57737.77361 
    13.91057  1.68196  6.33662       2.30814         2827.60989   0.0422  0.01116     0.03864  8.07749     17.79635   8059.34604    -8.71847  1.01642  6153.14306  0.00035  57699.45153  52.15736   2.68413  21.53384  57737.77361 
    14.26338  1.62469  6.03353       4.05964         2775.44402   0.0067  0.01681     0.01866  4.57008     18.89516   6442.38488    -8.29444  0.33241  6039.06225  0.00436  57699.87556  52.08088   0.37105  21.49575  57735.02955 
    13.76188  1.62263  5.88028       4.98587         2858.92376  0.00174  0.01296     0.01224  5.02443     18.04247    5402.9856    -7.32933   1.2414   5893.8317  0.00061  57700.84067  52.07036   0.09858  21.52376  57737.77361 
    13.88928  1.70728  6.40908       4.88453         2757.76031  0.04366  0.01594     0.02157  5.05531     16.10638   5456.44752    -7.81504    1.012    5727.589    1e-05  57700.35496  52.04619   2.48152  21.52383  57735.02955 
    13.75742  1.35824  5.34989       2.35012         2881.86102  0.03149  0.01184     0.02756  7.12083     16.15317   7385.55591    -7.81067  1.02493  6777.23691    1e-05  57700.35933  52.22865   1.94551  21.53617  57737.77361 
    13.73477   1.5203  6.24341       4.85857         2843.23893  0.13942   0.0126     0.09619  7.52637     16.65012   4330.98405    -7.70498  1.28321  5800.90688    2e-05  57700.46502  52.09913   8.72638  21.50853  57735.02955 
    13.99323   1.7905  6.69407       4.31841          2923.3576  0.13415  0.01961     0.34391  4.25723      19.3298    4577.4648    -8.12932  0.73685  5628.92596  0.01187  57700.04068  52.01168   7.29106  21.49387  57735.02955 
    13.93406  1.80142  6.46652       4.16723          2851.7209  0.00194   0.0387     0.02856  2.00667     19.01373   8517.90995    -8.58311  0.96058  5351.38107  0.00573  57699.58689  51.87077   0.08427  21.52524  57735.02955 
    13.80926  1.58761  6.73221       3.21854         2934.95409  0.27539  0.01815     0.01411  6.21168     16.01473   6673.87799    -8.56217  1.03698  5609.81673    1e-05  57699.60783  52.05033  16.47234  21.52021  57735.02955 
    13.63274  1.31609   5.1362       4.31711         2865.86817  0.00493   0.0204      0.1071  3.55907      18.2743   5967.18996    -7.99477  1.52021  5581.08658  0.00104  57700.17523  51.98305   0.25506  21.49398  57737.77361 
    13.87208  1.55492  5.98581          2.06         2904.81335  0.01366  0.02236     0.48618  3.46374     19.18873   6422.63214     -7.7375  1.11028   6198.6527  0.00858   57700.4325   52.0709   0.70192  21.52283  57735.02955 
    14.01441  1.90823  6.91957       1.59777         3293.90877  0.02977  0.01648     0.02968   4.1758     19.59524   8588.61589    -8.07831  1.12885  5387.70533  0.02188  57700.09169   51.9714    1.6095  21.46877  57735.02955 
     14.0004  1.67205  6.21839       1.02877         3321.29727  0.00452  0.01856       0.056  4.12697     16.26689   4922.20112     -8.2304  0.97296   5707.3645    1e-05   57699.9396  52.02009   0.24348  21.50485  57735.02955 
    14.05609  1.86621  7.12848       2.14707          2945.0297  0.10715  0.01991     0.11203  3.77377     18.63077   8796.68354    -7.70505  0.86393  6091.51718  0.00237  57700.46495  52.06612   5.63664  21.49147  57735.02955 
     14.0784  1.96159  7.08845       4.91807          2809.8148  0.09809   0.0266     0.10196  2.93976     18.88125   4044.92857    -7.82101  0.69491  6170.46753  0.00423  57700.34899  52.04641    4.8059   21.5249  57735.02955 
    13.87704  1.68922  6.29382       4.94902         2887.93119   0.0023  0.02049     0.12682  3.48777     16.57028   6200.00938    -7.69693  0.98418  5913.53669    2e-05  57700.47307  52.03085   0.11837   21.5513  57737.77361 
    13.87524  1.60535  6.05121       2.93958           2745.745  0.00257  0.02695     0.33815  2.95328     18.22518   8853.77074    -8.39916  1.09078  5970.87681  0.00093  57699.77084  52.01844   0.12613  21.49967  57735.02955 
    14.03805   1.6449  6.32314       4.45823         2753.95349  0.07215  0.02445       0.163   3.9977     18.12739    6166.4699    -8.70646  0.63453  6094.47366  0.00074  57699.46354  52.07337   3.85592  21.52888  57735.02955 
    14.01136  1.72595  6.27152       1.28106         3194.86048  0.00433  0.02158     0.48394  3.32104     19.41911   6131.65716     -8.1091  0.80635  6429.57479  0.01458   57700.0609   52.0975   0.21972  21.53058  57737.77361 
    14.03138  1.64943  6.79044       1.50622         3246.22995  0.17024  0.01466     0.33219  5.57784     17.67682   9328.46499    -8.15424  0.79238    5778.753  0.00026  57700.01576  52.06465   9.91793  21.52872     57739.13 
    13.79573  1.45648  5.81609       1.90552         3206.30717  0.02935  0.01986     0.42703    3.844     17.25816   7583.03761    -8.38725  1.46261  5389.28202   0.0001  57699.78275  51.96193   1.55166  21.48965  57737.77361 
    13.94529  1.85532  7.02114       3.69488         2863.37438  0.13633  0.01827     0.08445  4.47807     16.69029   6341.01071    -7.31808  1.00415  6078.24386    3e-05  57700.85192  52.08419   7.50929  21.51086  57735.02955 
    13.79026  1.79644  6.32664       4.67965         2822.07098  0.03474  0.01253     0.03498  5.45294     18.12505   5737.10964    -7.57443  1.35959   5983.6098  0.00074  57700.59557  52.09246   2.01229  21.54019  57737.77361 
    13.89292  1.50967  6.74699       3.44898         2823.53594  0.12971  0.01347     0.03434  8.47154     16.76046   7461.53784    -8.60134  1.12298  5782.65644    3e-05  57699.56866   52.1081   8.34051  21.53178  57735.02955 
    13.85756  1.73652  6.34375       4.92706         2768.39826  0.00273  0.01611     0.17756  5.22315     16.87209   6332.78563    -8.74622  1.13948  5803.41198    4e-05  57699.42378   52.0612   0.15652  21.50192  57735.02955 
    13.82963  1.73058  6.37163       4.75658         2857.31081  0.00366  0.03795     0.33573  2.23214     17.95104   4985.16472    -8.35768  1.36598  5820.79854   0.0005  57699.81232  51.95892   0.16461  21.49391  57737.77361 
    13.98049  1.88406  7.00557       4.97683         2694.50089  0.23559  0.03525     0.47936  2.94624     18.66857   8240.18006    -9.12471  0.86033  6153.30785  0.00259  57699.04529  52.04428  11.55005  21.52613  57737.77361 
    13.92625  1.81044  6.62711       3.51971           2836.797  0.04449  0.01721     0.14516   4.3672     17.44991   8193.33847    -8.24739  1.00624  5835.70541  0.00016  57699.92261  52.04595   2.43467  21.55436  57737.77361 
    14.05501  2.00075   7.2901        3.9702         2821.31574  0.07828  0.02109     0.02389  4.76116     18.90298    9027.1086    -9.48165   0.8627  5694.35435  0.00444  57698.68835  52.03445   4.38107  21.51047  57735.02955 
     13.8225  1.47107  5.55208       1.23642         3251.91752  0.00749  0.02007      0.1998  2.91998     16.02562    7853.5445    -7.54554  1.04975  6274.87973    1e-05  57700.62446  52.06012   0.36612  21.51232  57735.02955 
    13.84606  1.76305  6.72111       4.64759         2927.00472  0.04366  0.01135     0.02328  8.15619     18.00127    5833.5648    -8.90766  1.54923   5296.5243  0.00056  57699.26234  52.02811   2.78343   21.4993  57737.77361 
    13.86298  1.42565  5.11107       4.83413         2880.45857  0.00102  0.03253      0.0292  1.97539      19.0011   5560.12775    -7.44393  0.57535   6099.8187  0.00557  57700.72607   51.9822    0.0443  21.49484  57737.77361 
    13.92109  1.70042  6.21249       0.86986         3512.60937  0.01255  0.01274     0.02987  6.04912     17.63757   6141.42132    -9.23244  1.22998  5721.56797  0.00024  57698.93756  52.06467   0.74578  21.52338  57735.02955 
    13.76561  1.50514   5.8074       3.77253         2968.18237  0.00134  0.02151     0.02147  3.69032     17.73532   9068.98012     -8.5371  1.30545  5660.89218   0.0003   57699.6329  51.99976   0.07013  21.53073     57739.24 
    13.92831   1.7179  6.39606       1.13149         3417.86662  0.01299  0.02836     0.27535  2.82377     17.87826   6691.87644    -8.76676  1.30774  5851.24875  0.00042  57699.40324  51.99508   0.62881  21.53367  57735.02955 
    13.72266  1.45105  5.54628       4.46475         2757.19381  0.00633  0.01931     0.14938  4.38043     17.87697   3172.86155     -8.6288  1.30905  5927.11906  0.00042   57699.5412   52.0598   0.34682  21.55996  57735.02955 
    13.90495  1.83324  6.86526       4.78342         2761.17613    0.026  0.01544     0.11416  6.55646     18.28315     9888.226    -9.23877  1.44478  5709.19075  0.00107  57698.93123  52.07121    1.5756  21.52907  57737.77361 
    14.07009  1.75515  6.64422       2.33305         2973.47267  0.07738  0.02278     0.10257  3.73316     16.98057   3581.29071    -8.43584  0.72226  5673.12207    5e-05  57699.73416  52.00302    4.0586  21.51975  57735.02955 
    13.82967  1.46654  5.77317       2.31454         3095.99295  0.00472  0.02129     0.18395  3.78569     18.12411   3216.80214    -8.18837  1.15848   5667.3964  0.00074  57699.98163  52.00381   0.24871   21.4869  57735.02955 
    13.89224  1.80699  6.46109       4.44302         2869.26035  0.01283  0.01825      0.0184  4.72259     19.47906   4778.22251    -8.24357  1.09035  5860.63794  0.01674  57699.92643  52.05854   0.71668  21.50731  57735.02955 
    14.03056  1.79183  6.91441       3.43491         3029.93769  0.10077  0.01957     0.03407  4.00352     17.72474   5036.74138    -8.31817  0.78198   5398.6337  0.00029  57699.85183  51.96823   5.38725  21.50433  57735.02955 
    13.84398   1.6389  6.07277       4.71073         2848.16214  0.00425  0.01987     0.03298  4.26565     18.69076   3711.55141    -8.09456  1.03292  6017.24881  0.00273  57700.07544  52.06985   0.23087  21.49285  57735.02955 
     13.7885  1.44317  5.74712       1.38745         3449.14292  0.17559  0.01499     0.01292  3.64038     18.37545   8220.54614    -7.33852  1.13296  5493.46135  0.00132  57700.83148  51.97204   9.14564  21.52576  57735.02955 
    13.77363  1.56165   6.7298       3.15087         2996.54924  0.32581  0.02099      0.0127   4.7974     16.53653    6095.3139    -7.66614  1.32434  5813.81937    2e-05  57700.50386  52.05334  18.27084  21.53444  57735.02955 
    13.86601   1.8892  6.67597       4.95601         2741.76387  0.00158  0.01246     0.03719  6.14428     18.84029   8521.57147     -8.3566  1.49357   5576.6896  0.00385   57699.8134  52.04403   0.09432  21.53249  57735.02955 
    13.75106  1.58607  5.91071        3.2679          2933.4084  0.03879  0.01649     0.02537  4.59941     18.94247   6705.66638    -8.16046  1.52914  5903.05243  0.00487  57700.00954  52.06182   2.15152  21.54741  57735.02955 
    14.18176  1.88471  6.82602       1.87155         3203.03688  0.00235  0.02071     0.08659  3.56346     16.80099   9029.39686    -8.61089  0.59775  5544.16797    4e-05  57699.55911  51.97744   0.12148  21.52372  57735.02955 
     14.0582  1.41112  5.37397       4.81389         2947.85136  0.00636  0.01758     0.02198  3.90865     18.18072   4704.23255     -7.9449  0.40242  5565.09745  0.00084   57700.2251  51.99179   0.33787   21.5275  57737.77361 
    13.62506  1.26337  4.86241       3.33066         2884.53455  0.00295  0.02592       0.277  2.35925     17.76871   8203.57147    -7.41506  1.12488  6012.90682  0.00033  57700.75494  51.99479   0.13508   21.5223  57735.02955 
    13.92246  2.14076  7.28461       4.52175         2830.76836  0.00991  0.02585     0.16184  2.88972     16.38664   8719.81624    -8.87431   1.5427  5661.68992    1e-05  57699.29569  51.96946    0.4831  21.49239  57735.02955 
    13.92311  1.54022  6.03201        1.4835         3225.04134  0.07324  0.02075     0.46923  4.18931     19.33766   7594.71953     -8.8373  1.00763  5546.67823  0.01209   57699.3327  51.99703   3.96367   21.5267  57735.02955 
    13.93294  1.81627  6.69406       3.85667         2705.01721  0.00123  0.01384     0.05704  5.95745     17.19545   7434.48474    -8.22655  1.11551  6498.84229    9e-05  57699.94345  52.17369   0.07257  21.51097  57735.02955 
    13.99489  1.63893  6.38184       3.56322          2786.5245  0.08178  0.01728     0.09929  5.47723     17.57283   8663.22518    -8.01279  0.72092  6430.31365  0.00021  57700.15721  52.15548   4.74292  21.52219  57735.02955 
    13.94165  1.79206  6.73291       1.82854          3229.0789  0.00707  0.01892     0.41308  3.27504     19.26334   9165.59929    -7.19847  1.29278  5841.36234  0.01019  57700.97153  52.01243   0.35724  21.51178  57735.02955 
    13.81942  1.65402  6.15073       4.10468         2720.75243  0.00105  0.01729      0.2676   4.6011     16.93631   4516.31196     -7.5282  1.28538  6602.45609    5e-05   57700.6418  52.15912   0.05817  21.52677  57735.02955 
    13.90149   1.8977  6.89822       3.45549         2861.52127  0.00104  0.02232     0.12131  3.26533     17.27261   4741.60141    -8.04781   1.4088  6087.43087   0.0001  57700.12219  52.04791   0.05235  21.50049  57737.77361 
    13.90619  1.65211  6.12749        2.1407         3043.58198  0.00234  0.02378     0.29375  3.72842     19.02864   6365.46956    -8.70238  0.99876  6215.73027  0.00593  57699.46762  52.08221   0.12258  21.50296  57735.02955 
    13.89671  1.56661  6.14526       0.96703          3340.2668  0.09921  0.01688     0.15225  4.59951     17.40705   8062.67737    -8.60514  1.11994   6267.2406  0.00014  57699.56486  52.11382   5.50285   21.5284  57735.02955 
    14.05664   1.6408  6.40869       1.70939         3074.08243  0.12096  0.02534     0.38793  2.79811     16.81674    7131.0314    -7.31758  0.72478  6047.57479    4e-05  57700.85242  52.02256   5.83999   21.5096  57737.77361 
    14.20634  2.15295  7.56985       1.55778         2967.65001  0.09861  0.02627     0.24332  3.34204     18.65694   6839.98791    -8.58826  0.68699  6608.26287  0.00252  57699.58174  52.12209   5.01416  21.52986  57735.02955 
    13.86332  1.50694  5.94008       4.38771         2740.61887  0.13168  0.01806     0.03163  4.24962       17.178   6324.04853    -7.59286  0.79155  5900.00889    8e-05  57700.57714  52.05232   7.15342  21.48767  57735.02955 
    13.84634  1.45907  5.43665       3.30355           2917.574  0.00248  0.02445     0.01995  3.03624     19.23683    7823.3347    -8.33282  0.79473  5828.15777  0.00958  57699.83718  52.00096   0.12263  21.52564  57735.02955 
    13.85091  1.67851  6.07007       4.97124         2920.34825  0.00169  0.01679     0.01403  3.55423     19.29276   5403.75966    -7.13713  0.96965  5485.60114   0.0109  57701.03287   51.9679   0.08722  21.53783  57735.02955 
    13.97404  1.87776  6.81791       2.98701         2945.09367  0.00302  0.02203     0.16338  3.92402     18.62457   9269.07044     -8.9128  1.04698  5834.12637  0.00234   57699.2572  52.03326   0.16062  21.51866  57735.02955 
    13.92984  1.99512  7.23429       2.83489         2884.98045  0.07237  0.01086     0.08248  7.72879     16.33162    5002.4992    -8.54673  1.33075  5826.06013    1e-05  57699.62327  52.10554   4.55723  21.52902  57737.77361 
    14.15536   2.0893  7.90652       1.53985         3524.91484  0.07392  0.01241     0.06297  4.82855     18.14336   4742.97765    -7.55916  0.99953  5036.98349  0.00077  57700.61084  51.92948   4.15237  21.54845  57737.77361 
     13.9552  1.69307  6.80192       4.89039         2738.62758   0.1957  0.02383     0.47327  4.25481     18.66897   7945.48015    -8.02083  0.86311  6117.19316  0.00259  57700.14917  52.08386  10.63449  21.51056  57735.02955 
    14.01719  1.82691  6.34179       3.81041         2759.22647  0.00661  0.01237     0.13824   6.3401     17.55638   7322.42531    -8.30037  0.65548  6583.74169   0.0002  57699.86963  52.19152    0.3975  21.50884  57737.77361 
    14.21961  1.59018  6.82771       2.08652         3202.66019  0.17887  0.01292     0.06308  7.34336        19.17   4557.54472    -8.18018  0.43077  5635.56547  0.00822  57699.98982  52.07153   11.1317  21.51216  57737.77361 
     13.9452   1.5778  5.96625       2.13943         3028.01973  0.02957  0.01298     0.01747  6.07567     19.73749   6273.81582    -8.37089  0.81581  5807.28819  0.03035  57699.79911  52.07804   1.75948  21.54482  57735.02955 
    13.91382   2.0301  7.48629       4.33471          2934.1684  0.11559  0.01478     0.02381   5.0035     17.94592    8217.5355    -7.49871   1.4188  5555.37252  0.00049  57700.67129  52.01853   6.55236  21.50946  57735.02955 
    13.89343  1.58667  5.83644       1.72517         2985.98363   0.0011  0.02306     0.29818  3.06861     19.12399   4568.59615    -8.25054  0.91297  6346.40713  0.00739  57699.91946   52.0763   0.05459  21.52885  57735.02955 
    13.92456  1.62848  6.09963       1.98051         3086.56357  0.00216  0.01299     0.05232  5.48763     19.08507   5185.55732    -7.82558  0.90798  6165.70908  0.00676  57700.34442  52.11918   0.12509   21.5198  57735.02955 
    13.96046  2.06694  7.22235       4.42247         2679.89563  0.00177  0.02851     0.36387  3.13523      19.1059   4235.73052    -8.88122  1.31189  6067.95621  0.00709  57699.28878  52.04004   0.08828  21.52716  57737.77361 
    13.97522  1.35656  5.88054       4.11599         2911.00444  0.18462   0.0149     0.02124  6.37778     19.40924    4736.5212    -7.91576  0.52888  5523.52741  0.01426  57700.25424  52.03962  11.11353  21.54221  57735.02955 
    13.91134  1.71916  6.59357        3.3666          2965.7493  0.25704  0.01952      0.0112  4.91727     17.50687   5059.28339    -8.16384  0.74226  5931.85224  0.00018  57700.00616  52.07355  14.50574   21.5074  57735.02955 
    14.24985  1.97877  7.13187       1.14976         3245.12309  0.00259  0.02302     0.06765   3.1261     17.06702   6077.07553    -8.64427  0.61836  5762.33191    6e-05  57699.52573  51.99478   0.12903  21.50904  57737.77361 
    14.04533  1.56167  5.97071       0.56443         3090.33514  0.05693  0.02818     0.18506  3.56358     16.12447   3391.62271    -9.44185  0.77769  6636.49945    1e-05  57698.72815  52.13365   2.94753   21.5089  57735.02955 
    13.91812   1.4837   5.8639       1.34501         3294.63657  0.03227  0.01816     0.35808  4.37421     18.72811   8482.20544    -8.50684  0.98169  5647.00957  0.00297  57699.66316  52.01758   1.76678  21.54125  57735.02955 
     14.0335  2.03608  7.37788       4.92135         2786.16998  0.06048  0.01872     0.01868  4.26442     18.75981   4383.59788    -7.80516  0.92179  6000.00852   0.0032  57700.36484  52.06732    3.2885  21.50764  57737.77361 
    13.81421  1.69107  6.47678       4.92642         2648.03565  0.05611  0.01022      0.2357  9.56327     18.50101   7712.20925    -8.39091  1.50747  6084.27793  0.00176  57699.77909  52.16395   3.70639  21.53881  57735.02955 
    13.98824  1.82297   7.1154       1.78471         3099.31657   0.1603  0.01911     0.05715  4.10549     17.53467   8666.70179    -8.30145  1.08893  5534.87825  0.00019  57699.86855  51.99283   8.62818  21.51329  57735.02955 
    13.78456  1.41105  5.42044       4.87536         2913.66101  0.00139  0.01003     0.02382  6.76361     18.18609   3806.46947    -7.48038  0.85768  6059.31829  0.00085  57700.68962  52.12612    0.0848  21.54067  57735.02955 
    14.05722   1.7951  7.25546       1.45135         3241.47126  0.13217  0.01924      0.0121  5.35259      18.6677   3296.09323    -9.33544  1.05755  5542.67673  0.00258  57698.83456  52.02395     7.621  21.53542  57735.02955 
    14.01933  1.74082  6.20075       1.60454         3007.77413  0.00273  0.03775     0.03143  1.99395     18.87097   3156.17768    -9.21887  0.76688  5956.47249  0.00413  57698.95113   51.9629   0.11822  21.52238  57737.77361 
    13.93858  1.67241  6.04619       0.56484         3560.62263  0.00218  0.01676     0.01947  3.51785     18.56418   8888.32624    -8.01114  1.14337  6109.46404  0.00204  57700.15886  52.06021   0.11256   21.5361  57735.02955 
    13.95392  1.58473  5.87712       1.87575         3116.94847   0.0326  0.02585      0.0249  2.63037     17.29918    7100.2164    -7.56858  0.73329  6364.79914  0.00011  57700.60142  52.05885   1.54457  21.51139  57737.77361 
    13.83978  1.64835  6.14033       3.78162         2848.76318  0.00118  0.01791     0.03013  4.45983      19.5329   8697.04415    -8.25288  1.23414  5757.90896  0.01895  57699.91712   52.0367   0.06475  21.51166  57735.02955 
    14.07747  1.98761  7.13361       1.20023           3297.696  0.00131  0.01524     0.01717  4.14214     18.37409   6178.01499    -7.38854  0.97244  6158.45452  0.00131  57700.78146  52.08659   0.07086  21.53186  57735.02955 
    13.79354  1.53873  5.74664       2.62096         3083.65768  0.00309  0.01756     0.01635  3.82484     19.36388   7888.61218    -7.60524  1.15984  5858.66993  0.01284  57700.56476  52.03387    0.1631  21.52506  57735.02955 
    14.06434  1.71969    6.455       3.42409         2900.94749  0.00239   0.0176     0.04215  4.29136      18.3021   8845.29368    -7.75086  0.66003  6017.79691  0.00111  57700.41914  52.07062   0.13024  21.49003  57737.77361 
    14.07637  1.81746  6.49643       4.83581         2888.71905  0.04411   0.0199     0.01661  4.12695      17.7883   5506.85429    -8.48872   0.5732  5646.39705  0.00034  57699.68128  52.01076   2.37742  21.52781  57735.02955 
    14.31682  2.11978  7.67866         1.957         3156.21411  0.08636  0.01611       0.057  5.04231     17.53955   7753.64295    -8.46704  0.51159  5545.60102  0.00019  57699.70296  52.01785   4.90523  21.53505  57735.02955 
    13.91556  1.79334   6.2886       4.99598         2718.56778  0.00842  0.01378     0.01432  6.49007      16.4006   4021.77898    -9.47823   0.8705  6023.52054    1e-05  57698.69177  52.11671   0.50904  21.51641  57735.02955 
    13.99576   1.6384  6.23532       1.50207         3138.49581  0.02977   0.0158     0.04141  5.08743      18.1526   8160.55845    -8.39244  0.84201  6087.59457  0.00079  57699.77756  52.09983   1.69458  21.53752  57737.77361 
    13.86086  1.75581  6.43149       4.63641         2816.22547  0.02897  0.02818     0.14585  3.54027      17.0228   9826.04889    -9.55289  1.17166   5898.1386    6e-05  57698.61711   52.0304   1.49706  21.54554  57735.02955 
    13.98415  1.75437  6.39896       4.95923         2765.49706   0.0042  0.01778     0.04546  4.85413     17.84734   7224.31693    -8.21916  0.79245  5910.39041  0.00039  57699.95084  52.06896   0.23603  21.49471  57735.02955 
     13.9879  1.81694  7.10518        3.3844         2795.05362  0.05922  0.01083     0.02643  9.46351     16.47539   9389.07488    -8.37537  1.00431  6114.81107    2e-05  57699.79463   52.1673   3.90258  21.52212  57735.02955 
    13.76371  1.49451  5.86506       4.24972         2733.18633  0.01621  0.01374     0.11591  6.69496     17.93414   4288.98201    -8.55789  1.53519  6003.64797  0.00048  57699.61211  52.11706   0.98691  21.51517  57735.02955 
    13.96773  1.66773  6.49877       4.62757         2813.37656  0.02464  0.02807     0.47151  3.24885     18.64153   7521.54384    -8.22245  0.92116  5868.77003  0.00243  57699.94755   52.0155    1.2431  21.51316  57735.02955 
    13.89476  1.83711  7.13337       4.74555         2703.19634  0.12912  0.01466     0.02972  6.88108     16.79307   9418.26552    -7.52355  1.22113  6513.91457    3e-05  57700.64645  52.19073   7.91456  21.51193  57735.02955 
    13.75186  1.40439  5.52303        4.1926         2745.35663  0.01991  0.01583     0.16074  5.68917     17.89183    6444.8654     -8.6134  1.20522  5906.27601  0.00043   57699.5566  52.08573   1.16573  21.50963  57737.77361 
    14.17347  2.03754  7.44182       4.87283         2765.94268  0.07005  0.01591     0.44505  5.74252     19.05581    9963.3344    -8.08728  0.61556  6066.76013  0.00632  57700.08272  52.11002   4.11022  21.52915  57737.77361 
    13.73824  1.18269  4.89094       4.85619         2837.61851  0.12779  0.01975     0.46012  4.24969     16.75534   9030.82469    -7.62157  0.68447  6049.66728    3e-05  57700.54843  52.07408   6.94199  21.51919  57735.02955 
     13.9438  1.51156  6.35169       1.10326         3247.16833  0.15289  0.01968     0.07209  4.96823     18.13823   3637.80941    -8.95982  1.15672  5739.31582  0.00076  57699.21018  52.04604   8.65101  21.52746  57735.02955 
    14.04993  1.94883  7.06832       2.69446         2797.26762  0.00173  0.01305     0.06248  6.48915     19.50613   6437.09885    -8.21546  0.97169  6220.44599  0.01782  57699.95454  52.14464    0.1044  21.48523  57735.02955 
    13.84487  1.66508  6.29635       4.48886         2809.24038  0.01907  0.01412     0.48619  6.51318     17.74967   3975.05824    -8.30289   1.2359  5964.18815  0.00031  57699.86711  52.10848   1.15388  21.54049  57735.02955 
    13.88145  1.75115  6.33181       2.85344         2888.28884  0.00259  0.01584     0.04463  5.45317     19.78803   7598.53859    -8.48869  1.34779  5932.92013   0.0341  57699.68131  52.08507   0.15029  21.51116  57737.77361 
     13.9895  1.69903  6.31761       1.53442         3225.58892  0.00187  0.01568     0.05643  4.25438     17.65358    5489.5317    -8.12725  0.85264  6060.54237  0.00025  57700.04275  52.07577   0.10186  21.51911  57737.77361 
      14.097  1.91322  8.35673       4.30144         2775.34949  0.33632  0.03174     0.02816  4.69986     16.49136   6537.16617   -10.10032  0.91378  5353.56876    2e-05  57698.06968   51.9794   18.7603  21.49625  57737.77361 
    13.91472   1.4503  5.60692       1.36832         3160.28855  0.01171  0.01378     0.13943  5.61848     19.19532   3007.64165    -8.52424  0.84032  6129.15662  0.00871  57699.64576  52.11656   0.68336  21.52753  57735.02955 
    13.90247   1.9872  6.95076        3.8154         2871.32262   0.0288   0.0128     0.13418  6.10551     19.15463   5964.10515    -8.27741  1.32805  5751.73389  0.00793  57699.89259  52.07021   1.71537  21.54852  57735.02955 
    14.05022   1.6255  6.28313        1.1764         3186.42168  0.08034  0.01547     0.06878  5.23641     19.28197   5322.09695    -7.99138  0.75112   6223.4166  0.01063  57700.17862  52.12217   4.60683  21.50492  57737.77361 
    14.01026  1.60103  6.85486       3.25838         3002.81942  0.30502  0.02447     0.02265  3.72054     19.19959   4332.15176     -7.7599  0.70256  5699.28337   0.0088   57700.4101  52.00661  15.98351  21.52733  57735.02955 
    14.07399  1.61007  6.07401        4.9295         2706.53576  0.08408  0.02309     0.02207  4.08022     19.16528   5652.55835    -8.32852  0.51349  6274.44013  0.00813  57699.84148  52.10104   4.51797  21.49356  57735.02955 
    13.84052  1.72311   6.2637       2.51419         3054.58957  0.00656  0.01798     0.02113   4.6399      19.3785   5978.40104    -9.06724  1.55345  5565.75113  0.01328  57699.10276  52.01171   0.36477   21.5309  57737.77361 
    13.79252  1.42001  5.49754       4.26711         2784.57795  0.00164  0.01917     0.35816  4.50477     17.66384   9258.56587    -8.45497  0.93978  6237.81749  0.00026  57699.71503  52.10737   0.09059  21.55908  57735.02955 
    13.86057  1.24068  4.97187       4.86363         2933.17292  0.00168  0.01147     0.08285  6.25685     19.13541    5382.1711    -7.84957  0.58447  5451.67795  0.00759  57700.32043  52.02625   0.10066  21.50327  57735.02955 
    13.93573  1.69234   6.2895       1.97192         2763.12607   0.0147  0.01571     0.27846  5.48359     18.08936   4015.93013    -8.11259  1.00134  7020.25587  0.00068  57700.05741  52.23184   0.85253  21.48682  57735.02955 
     13.8806  1.68093  6.26769        3.9932         2872.76897   0.0281  0.02381     0.09729  3.30509     16.73296   4790.58206     -8.4587  0.98744  5636.13768    3e-05   57699.7113   51.9825   1.42433  21.50198  57735.02955 
    14.07441  1.85786  6.98382        2.4001         2874.40856   0.0712  0.02041     0.02523  3.85364     16.39464   4900.38861     -7.6416  0.80809  6058.78661    1e-05   57700.5284  52.06393   3.76719  21.52998  57735.02955 
    13.99841   1.6519  6.18055       1.22816          3223.1168  0.02231  0.01447     0.05708  4.85349     19.43461    3767.0565    -8.23234  0.87605  5699.91635  0.01511  57699.93766  52.03745   1.25501  21.44311  57735.02955 
    13.91143  1.87434  6.96244       4.18551          2723.8065  0.07115  0.02357     0.44517   3.8175     18.04786   7351.30028    -8.87755  1.35124  5629.07696  0.00062  57699.29245  51.99892   3.75496  21.50656  57735.02955 
    13.75199  1.44492  5.61746       4.98133         2522.18708  0.00228   0.0118     0.01602  7.07886     16.50776   7305.09991    -7.86302  1.53102  6211.54335    2e-05  57700.30698  52.15234   0.14098   21.5722  57735.02955 
    14.05488  1.86071  6.67132       3.79673         2824.30147  0.00299  0.01992     0.28315  4.72226     16.80207   4479.71226    -8.58911  0.72445  6362.51654    4e-05  57699.58089   52.1299   0.16718   21.4841  57735.02955 
    13.75236  1.36571  5.31151       1.63229         3109.87554  0.00185  0.02242     0.16278  2.86645     16.39067   5503.08417    -7.96086   1.2019  5890.98926    1e-05  57700.20914   52.0029   0.09017  21.49914  57735.02955 
    14.21651   1.7594  6.51935       1.05823         3295.38998  0.01495  0.01463     0.04875  4.59054     17.60486   7437.42073    -7.74348  0.56184  5835.35195  0.00022  57700.42652  52.05159   0.82873  21.49818  57735.02955 
    13.80145  1.47982  5.70717       2.12223         3027.88344  0.00935  0.01709     0.39311  4.04119     17.27944   5427.75379     -7.6683  1.17788  5989.94892  0.00011   57700.5017  52.05961   0.50106  21.51984  57735.02955 
     14.0772  1.78089  7.07639       1.91177         3118.98016  0.14191  0.01655     0.13706   4.9842      18.3413     4578.712    -7.90673  0.80696  5594.63477  0.00122  57700.26327  52.02422   8.03654  21.49274  57737.77361 
    13.86429  1.84389   6.6517        4.1002         2873.26355  0.10042  0.01928     0.01393  4.40398     18.58379   7796.77791    -8.51019  1.13754  5672.15852  0.00213  57699.65981  52.02222   5.50698  21.53002  57735.02955 
    13.77105  1.64851  6.03085       4.78615         2697.77551  0.05662  0.02386     0.43598  3.54898     16.68046   6156.95939    -8.41319   1.2716  6345.76189    3e-05  57699.75681  52.09424    2.9285  21.50856  57737.77361 
    13.73152  1.44781  5.51251       4.18923         2796.21658  0.00265  0.01188     0.09756  7.70581     18.71978   9607.48951    -9.28037  1.23229  5871.66239  0.00291  57698.88963  52.11201   0.16662  21.51072  57737.77361 
    14.06343  1.51994  5.76636       4.72916         2867.99148  0.00191  0.01165     0.04579  6.95761      17.1572   3980.14345    -8.64631  0.47953   5843.5536    8e-05  57699.52369  52.09753    0.1172   21.4702  57735.02955 
    14.08803  1.81376  6.59019       4.98034          2825.3827  0.00715  0.02211     0.15126  3.93738      17.4972   7331.13342    -8.56399  0.62907  5850.61827  0.00017  57699.60601  52.03611   0.38064  21.49707  57737.77361 
    14.43058   1.7931  6.68485       2.93435         2981.86489  0.04012  0.01787     0.04435  5.20513     18.33777   7462.24674    -8.88254  0.28106   6079.0426  0.00121  57699.28746  52.10113   2.29702  21.49525  57735.02955 
    14.02525  2.03511   7.4271       4.15751          2802.5128  0.09353  0.02569     0.47783  3.46366     18.32089   4501.08437    -7.72977  1.00797  5969.15615  0.00116  57700.44023  52.03813   4.80443  21.51038  57735.02955 
    14.09259    1.842  6.86932       4.13669         2937.41044  0.02764  0.01462     0.06777  5.51845     17.84843   3077.11153    -8.27859  0.67053  5579.37325  0.00039  57699.89141  52.03299   1.60617  21.51423  57735.02955 
    14.00189  1.29155  5.50825       1.79078         3077.70038  0.16333  0.02077     0.03037  4.13374     16.52303    5373.1279    -8.65598  0.53794   5804.4447    2e-05  57699.51402  52.03493   8.80753  21.49197  57735.02955 
     13.8161   1.4356  5.21476       3.99693         2850.80668  0.01751  0.01237      0.0114  6.53022     19.57945   3576.75943    -8.58345  0.72698  5924.97989  0.02109  57699.58655  52.10302   1.06004  21.53273  57735.02955 
    13.96536  1.96465  6.94389       4.06716         2752.69437  0.01394  0.01382     0.09283  5.73728     17.40882   8691.38344    -7.75593  1.01523  6502.65099  0.00014  57700.41407  52.17019   0.81782  21.52591  57735.02955 
    13.64145    1.177    4.647       4.95229         2760.51385  0.03024  0.01374     0.01042   5.8285     16.71035   3374.71507    -8.63561  0.86884  5748.59488    3e-05  57699.53439  52.06481     1.781  21.50323  57735.02955 
    13.86937  1.96351   6.6194       4.81118         2845.08515  0.01425  0.01558     0.01362  4.44044      19.2483   5177.17577    -7.59712  1.15658  6109.91331  0.00984  57700.57288  52.08774   0.78328  21.51155  57735.02955 
    13.82389  1.49176  5.71628       1.48478         3095.43727  0.02514   0.0213     0.07507  3.91146     19.56813   7791.92251    -8.80173  1.25887  5966.51003  0.02055  57699.36827  52.05237   1.33582  21.55073  57735.02955 
    13.87352  1.62977  6.04964       2.65893         2899.91536  0.00275  0.01809     0.16041  4.24018     16.80351    5196.6261    -8.25154  1.01661  6200.59832    4e-05  57699.91846  52.09523   0.14911  21.55163  57735.02955 
    13.88345  1.65804  6.82087        2.1429         2988.48872  0.21416  0.02093     0.27683  4.61048     18.91742   4483.10025     -8.2129  1.35292  5882.75719  0.00459   57699.9571   52.0591  11.88666  21.52856  57735.02955 
    13.97587  1.65946  6.21849       4.62043         2760.47999  0.00874  0.02599     0.20368  3.05136     18.95393   6673.48187    -7.82622  0.75287  6143.97377    0.005  57700.34378  52.04743   0.43282  21.51065  57735.02955 
