 texplosion  fnickel    Pspin  log(Bfield)      Mns  thetaPB   mejecta    kappa  kappagamma      vejecta  temperature    alpha  cutoff_wavelength  log(nhhost)      A_V         MJD0  kenergy  mnickel             TSD   log(L0)  Peak_mag     Peak_MJD  log(E_rad)  log(Peak_lum)  Rise_Time    E_fold  tau_1  delta_m15     r_peak     frac 
  -10.93044  0.01636  5.18294     14.26771  1.72727  0.94391    7.2126  0.14073     0.04011   9392.37264   5190.36458  0.71495         3770.53269     17.48093  0.00017  58326.44354  3.79551  0.11801   1255753.52627  44.97815  18.13103  58373.40893     50.7258       43.98512   32.20705  41.20267   40.5    0.23514  -20.87171  0.98327 
  -12.06131  0.28132  5.72083     14.08222  1.63334  1.34903   6.95465  0.10772     0.01567   9419.20358      5158.39   0.4941         2711.17748     18.15415  0.00079  58325.31267   3.6807   1.9565   3399123.60134  44.43564  18.12403    58375.984     50.7385       44.01924   33.64707  39.50988   40.0    0.24771  -20.87938  0.72547 
  -13.02074  0.38836  6.32857      14.1745  1.55942  0.80971   8.19317   0.0915     0.01175   9625.86597   5077.42182  0.73061         2692.87351      18.6321  0.00238  58324.35324  4.52855  3.18192   2596528.83481   44.4448  18.15414  58373.40893    50.74526       44.01845   31.72583  41.43112   41.0    0.25513  -20.86771  0.55093 
  -12.06066  0.22384  5.89385     14.43435  1.73912  0.33395   5.59811  0.10262     0.01897   9748.99424    4939.4492  0.87045         2423.65365     16.84376    4e-05  58325.31332  3.17386  1.25308    759018.00912  45.08812  18.17569    58375.984    50.76072       44.02329    28.7445   42.0285   41.5    0.25163   -20.8655  0.80595 
  -12.71662  0.05276  5.77447     14.10542  1.77923  0.80883    9.2136  0.06748     0.01206    9497.3488   5075.60237  0.28598         3491.50853     16.60968    2e-05  58324.65736  4.95748  0.48615   3390213.16021  44.46583   18.1459  58373.40893     50.7694        44.0407   27.84536   42.1214   40.5    0.25224  -20.84559  0.92055 
  -12.01436  0.03504  6.06404     14.61436  2.12609  0.49787    8.2493  0.11079     0.03745   9713.15341   5039.01952   0.2181         2143.99482     16.29035    1e-05  58325.35962  4.64264  0.28903    428753.15268   45.3987  18.17932    58375.984    50.74765       43.99913   31.18495  43.65794   41.0    0.24123  -20.84808  0.95985 
  -12.33236  0.08816  5.21287     13.99943   1.6336  1.41958   3.93431   0.1528     0.03666   9263.96088   5376.13524  0.02256         2720.90021     19.51058    0.018  58325.04162  2.01414  0.34686   4132943.45905  44.43158  18.15289    58375.984    50.76744       44.03011   29.55575  42.16118   42.0    0.25365  -20.85423    0.947 
  -13.17858  0.21276  5.92567     14.06361  1.67344  1.18507   8.62261  0.08864     0.01302   9642.92167   5111.99771  0.30471         2699.64032     17.70389  0.00028   58324.1954  4.78281  1.83454   4070729.07126  44.33731  18.16757  58373.40893    50.77887       44.03649   29.28538  41.48762   40.0     0.2441  -20.86638  0.72965 
  -11.34502  0.04138  5.21673     14.34789   1.8039  0.82294   7.87297  0.13194     0.04196    9936.2605   5144.48074  0.24061         2528.82665     19.19547  0.00871  58326.02896  4.63673  0.32575    918421.20105  45.12722  18.14195  58373.40893     50.7623       44.02625   30.99577  40.41102   40.0    0.23912  -20.86014  0.95738 
   -8.69077  0.06514   1.8818     14.58898   1.7788  0.93432  14.59802  0.13733      0.0714  10116.75119   5233.08804   0.6913         2558.40247     19.29557  0.01097  58328.68322  8.91257   0.9509     38826.67472   47.3807  18.14452  58373.19945    50.72997       44.00576   30.28581  41.48762   41.5    0.18988   -20.8216  0.98625 
  -11.74183  0.22253    5.388     14.06927  1.42819   0.8006   7.91399  0.09684     0.01421   9777.33108   5091.72031  1.28549         2637.81926     16.14775    1e-05  58325.63215  4.51298  1.76106    2798391.4591  44.51387  18.13427  58371.42283    50.77829       44.08336   27.84536  37.62177   40.0    0.25743  -20.87094  0.72792 
  -10.99443  0.15821  5.32155     14.31854  1.69529  0.92673   8.72116  0.10828     0.02158   9465.03578   5317.08964  0.46091         3067.60104     17.92471  0.00047  58326.37955  4.66064  1.37975   1028128.35968  45.03397  18.16133  58373.40893    50.76262       44.05154   29.55575  39.46501   41.0    0.23677  -20.84124  0.82298 
  -10.23756    0.123  3.70713     14.39381  1.71277  1.12795   9.14781  0.13143     0.03774   9259.62517   5075.81446  0.16142         4175.48644      19.1107  0.00717  58327.13642  4.67876  1.12518    356423.67642   45.8125  18.14551  58373.40893    50.73141       43.99372   33.64707  41.19582   41.0    0.22885  -20.82563  0.92366 
  -13.15312  0.03961  4.76031     14.00911  1.45979  1.22624   8.21342  0.08938     0.02481   9421.25114   5143.90835  0.16377         2676.91749     18.72661  0.00296  58324.22086  4.34879  0.32533   2945534.86383   44.6087  18.13166  58373.25501    50.75545       44.04825   31.72583  38.73494   42.0      0.248  -20.85123  0.95112 
  -11.62176  0.01784  5.42998     14.14154  1.73455   1.2963   5.44006  0.16527     0.04436    9729.2727   5197.97589  0.35673         4126.35034     17.10296    7e-05  58325.75222  3.07179  0.09705   2474648.38863  44.64492  18.17925  58373.40893    50.68346       43.91995   36.29534  43.81274   39.5    0.24243  -20.87857  0.98488 
  -11.43995  0.01735    5.585     14.35619  1.87729  0.80955   6.45165  0.13865     0.05809   9695.86828   4955.49916  0.78458         3013.17642     17.49782  0.00017  58325.93403  3.61802  0.11196   1054433.32687  45.02531  18.14079  58373.40893    50.77402        44.0425   28.55532  40.41102   41.5    0.25474   -20.8688  0.98371 
  -10.23821  0.38617   5.9945     14.25357  1.65102  1.24355   7.83164    0.101     0.01451   9710.54259   5119.60648  0.26112         2839.62996     17.70419  0.00028  58327.13577  4.40522  3.02435   1713712.40368  44.69715  18.13249  58373.19945    50.80214       44.10624   27.84536  39.04717   39.5    0.26664  -20.86985   0.6158 
  -10.49778  0.22939  4.84462      14.2412   1.5724  1.34066   7.17686  0.13398     0.02802   9524.76184   5213.04367  0.32594         3394.34202     18.96261   0.0051   58326.8762  3.88392   1.6463   1128496.43652  45.04239   18.1385  58373.27571    50.76374       44.04093   29.55575  39.77724   41.0    0.23918  -20.83259   0.8083 
  -11.90411   0.4629   7.4906     14.09864  1.95123  1.56617    6.1696  0.10985     0.01488   9726.25821   5152.47124  2.28446          2517.3388      17.8236  0.00037  58325.46987  3.48157  2.85588   6454805.35317  44.00024  18.13982  58373.40893    50.74521       44.02243   31.72583  39.68096   41.5    0.24739  -20.85962  0.57323 
  -11.45309  0.14437  5.67191     14.21226  1.77967  1.22192   7.27551  0.11588     0.02313   9442.65971   5287.92647  0.07953         4299.86851     19.03541  0.00603  58325.92089  3.86972  1.05039    2000279.0366  44.71064  18.17203  58373.40893    50.78505       44.06007   29.28538  41.18224   40.0    0.24282  -20.84095  0.85183 
  -12.93494  0.17697  5.75654     14.29117  1.87401  0.70811   8.98322  0.08137     0.01277   9467.01815    5391.4774  0.06579         5391.97985     20.30889  0.11314  58324.43904   4.8027  1.58974   1508560.52154  44.84273  18.13935  58373.40893    50.73579        44.0105   32.20705  39.56638   40.5    0.25901  -20.97467  0.79757 
  -11.73176  0.18159  5.28626      14.1346  1.60134  1.24674   6.68522  0.11281     0.02505   9507.42679   5288.02863  0.07557         2362.42052     17.95193   0.0005  58325.64222   3.6047  1.21396   2235593.17415  44.67764  18.16639  58373.40893    50.75638       44.02484   31.18495    41.972   41.0    0.24465  -20.84809  0.83004 
     -9.796  0.02161  4.70255     14.23456   1.7355  1.30223   6.92891  0.13978     0.28704   9591.95324   4934.97709  0.55653           2000.657     19.00919  0.00567  58327.57798  3.80283  0.14973     1209994.205  45.08082  18.13751  58373.40893      50.781       44.06083   29.28538  41.17539   39.5    0.25558  -20.85196  0.98275 
  -11.79027  0.08284  6.42051     14.29925  2.06543  1.06091    8.7529   0.0838     0.02208    9522.1311    5026.0115  0.27204         3631.96625     18.61916  0.00231  58325.58371  4.73421  0.72511   1992808.09255  44.66925  18.13214  58373.40893    50.75429       44.01861   30.28581  41.48762   42.0    0.24781  -20.86594  0.88998 
  -12.70532  0.36098  5.71427     14.02117  1.62641  1.47093   4.23109  0.14638     0.03083   9580.03116   5064.79665  0.01926          2669.9746     18.04464  0.00062  58324.66866   2.3164  1.52733   4473250.63633  44.31553  18.15297  58373.40893    50.74523       44.00845   34.16628  41.48762   42.0     0.2529  -20.85811  0.76998 
  -13.07404  0.01029  5.30416     14.20934  1.86333  1.54035   6.98656   0.1524     0.05041   9751.00117   5065.13475  0.02152          4516.5369     18.67927  0.00265  58324.29994  3.96268  0.07192   1856301.02767  44.82125   18.1614  58373.40893    50.70708       43.96133   36.29534  40.35297   40.0    0.23184  -20.84757   0.9904 
   -12.6758  0.32411  5.60405     13.89747  1.85833  1.19066   4.89852  0.11979     0.01267   9329.67232   5316.44703  0.33195         3714.47045     17.46407  0.00016  58324.69818  2.54346  1.58764    8689732.1065  44.10196  18.15903  58373.40893    50.74809       44.01477   31.72583  41.43112   40.5    0.27083  -20.89007  0.79613 
  -10.99488  0.04687  5.42864     14.36829  1.96388  0.96085   8.14753  0.11779     0.03815   9773.32301   5036.44773  0.02517         2958.35954     18.56514  0.00204   58326.3791  4.64235  0.38191    985690.00696  45.09884  18.16552    58375.984     50.7505       44.02511   33.64707  39.50988   39.5    0.25191  -20.86098  0.95268 
  -12.32104  0.12591  6.21437     14.07628  1.83376  1.21496   6.92081  0.09918     0.01896   9483.60027   5054.42286  2.67072         2427.00203     17.65329  0.00025  58325.05294  3.71305  0.87141   4627970.45617     44.28  18.15111    58375.984      50.792       44.06051   27.84536   42.1214   42.5    0.23785  -20.84698  0.85489 
  -12.60518  0.09921  5.14586     14.21925  1.54738   0.7093   9.51059  0.08353     0.01618   9462.07019   5103.44778  0.23982         3039.58614      18.5941  0.00218   58324.7688  5.07933  0.94354   1386178.53883  44.89371  18.14479  58373.40893    50.80987        44.1069   30.99577  37.33679   40.0    0.24279  -20.86761  0.86233 
   -11.9681  0.36422  5.09117     13.76937  1.59591   1.2668    4.4169  0.14276     0.01734  10129.94885     5058.984  0.22359         3932.02846       18.375  0.00132  58325.40588   2.7037  1.60873  11110290.26097  44.01249   18.1486  58373.40893     50.7494       44.02604   31.18495  40.22183   40.0    0.27109  -20.90046  0.78639 
   -9.89703  0.27813  3.90245     14.25316  1.49746  1.46032   5.36795  0.20409     0.04238   9319.32807   5272.04046  0.15551         5173.76722     17.68662  0.00027  58327.47695  2.78102  1.49297    659981.47852    45.442  18.13369  58373.40893    50.88889       44.20904   27.84536  35.81763   40.5    0.23465  -20.83466  0.87011 
   -13.5545   0.4679  5.68921     14.17375  1.54934  0.53057   6.02007  0.10534     0.01327    9550.4243   5185.20347  0.45334         2170.71857     16.22357    1e-05  58323.81948  3.27547  2.81679    2091977.0822  44.62833  18.15087  58373.40893     50.7811       44.02538   29.55575  40.41102   41.5    0.26133  -20.87215  0.62395 
  -11.23986  0.20943  6.24439     14.02996  1.73847  1.47789   7.70093  0.07935     0.01527   9701.01299   5102.62914  0.90216         2640.51977     16.65014    2e-05  58326.13412  4.32319  1.61278   5483290.50017  44.17899  18.18717    58375.984     50.7421       44.00847   30.28581  41.48762   41.5    0.25594  -20.85813  0.74407 
  -10.58493   0.0611  4.65512     14.40503  1.69748   0.7452   9.33624  0.12089     0.03931   9954.01265   5167.97839  0.11927         2596.01943     18.16394  0.00081  58326.78906  5.51817   0.5704    528953.18219  45.43937  18.15646  58373.40893    50.73191       43.99877   33.64707  39.56638   39.5    0.23828   -20.8492  0.93664 
   -8.83895   0.0126  4.35191     14.15889  1.51881  1.46789   7.60472  0.15818     0.07577   9715.59183   5125.75633  1.15832         3096.12263     16.49671    2e-05  58328.53503  4.28202  0.09584   1284956.73028   45.0641  18.15558  58373.19945    50.72156       43.97879   30.28581  43.12391   40.0    0.22503  -20.84496  0.98839 
  -10.96006  0.45277  6.00343     14.39663  1.42638  0.51927   7.81143  0.09899     0.01195   9599.51463   5135.53304  0.87094         2538.82777     18.31705  0.00115  58326.41392  4.29394  3.53678    768387.33571   44.9807  18.14673  58373.19945    50.74829       44.02106   31.18495    41.972   40.0    0.25829   -20.8571  0.52126 
  -11.11321  0.02924  5.26922     14.17008  1.72308  1.25442   7.79219  0.11284      0.0351   9598.60614   5112.24312  0.52639         2764.99609     19.02412  0.00587  58326.26077  4.28256  0.22787   2029775.87049  44.75421  18.15532  58373.19945    50.76427       44.04589   30.99577  39.77724   41.0    0.23366  -20.84976  0.96696 
  -11.21731      0.1  5.62932     13.91072  1.74075  1.14986    5.0933  0.09418     0.01633   9078.31746   5109.40252  1.11573          3350.3545     16.78672    3e-05  58326.15667  2.50401  0.50932   7727289.45251  44.12064  18.16001    58375.984    50.77368       44.04831   29.55575  40.41102   42.5    0.26457  -20.84765  0.91688 
  -13.24858  0.11739  5.65205     14.00234  1.66918  1.27537   7.12081  0.11046     0.01758    9675.7185   5137.89159  1.14567         2578.75835     17.03485    6e-05   58324.1254   3.9767  0.83591   4898301.87332  44.29689  18.16969  58373.40893    50.70401       43.95958   34.68018  41.96813   40.5    0.24319   -20.8581  0.86588 
  -10.56673  0.03875  6.32849     14.88433  2.03166  0.21737   7.30571   0.0964     0.03487   9892.37385   4959.06407  0.59504         2664.59976     18.18788  0.00086  58326.80725  4.26472  0.28306    128708.05442  45.86449  18.17379    58375.984    50.78784       44.06057   30.99577  40.41102   42.0    0.25929  -20.85476  0.95409 
  -13.97157  0.41986  6.44171     14.09196  1.77855  1.14545    6.0958  0.12657     0.01351   9020.73393   5246.47254  0.31791         4031.03271     19.54674  0.01956  58323.40241  2.95898  2.55938   4487017.19965  44.24895  18.15592  58373.40893    50.75774       44.03183   31.18495  40.22183   41.0    0.25615  -20.85784  0.64058 
   -8.74777   0.1626  5.28094     14.71236  1.91674  0.52226  10.89532  0.09754     0.02107   9904.61955   5000.81619  0.73666         3099.95449     17.09344    7e-05  58328.62621  6.37592  1.77153     186671.9293  45.83491  18.15357  58373.40893    50.75857       44.02535   31.18495    41.972   41.0    0.23928  -20.85477  0.81665 
  -13.64714  0.44857  6.46578     14.15099  1.85976  0.99859   5.62134  0.14135     0.01567   9532.33723   5161.62415  0.00333         3777.49963     18.02836  0.00059  58323.72684  3.04695  2.52159   3601931.98577  44.36052  18.14544  58373.40893    50.73135       44.01221   32.72626  39.04717   39.5    0.25264  -20.86704  0.65787 
  -12.79185   0.2685  5.91501     14.28012  1.61941  0.54058     8.477  0.08212     0.01124   9552.41524   5126.24305  0.06618         3003.30116     18.12439  0.00074  58324.58213  4.61419  2.27605   1448274.32521  44.77344  18.14788  58373.40893     50.7422       44.00804   30.28581  41.48762   40.0    0.26296  -20.85739  0.67408 
  -12.52627  0.30701  4.61544     14.12905  1.28921  1.05207   9.16351  0.10582     0.01294   9519.51771   5264.13432  0.07702         3573.55381     18.70698  0.00283  58324.84771  4.95357   2.8133   1407569.30908  44.90227  18.14182  58373.40893    50.78441       44.05687   27.84536  41.18224   40.0     0.2377  -20.86147  0.66775 
  -14.60398  0.31224  6.20747     14.16452  1.84821  0.98537   4.99314  0.16552       0.023   9483.06923   5172.62206  0.05943         3045.51647     18.14579  0.00078     58322.77  2.67854  1.55907   3099901.15956  44.45842  18.14603  58373.40893    50.73041       43.99828   31.72583  43.11707   40.0    0.25002  -20.84824  0.77066 
  -11.62277  0.09642  5.19456     14.02301  1.52833  1.18538   5.14711    0.111     0.03151   9133.44297   5025.78339  0.15849         4983.99625     18.69321  0.00274  58325.75121   2.5613  0.49628   3444430.19604  44.48485  18.13468  58373.40893    50.76182       44.03827   31.72583  41.43112   43.0    0.25275  -20.84301  0.91942 
  -11.31462  0.31409   6.7676     14.41225   2.0455  1.06737   7.56985   0.1085     0.02055   9824.61666   4966.70543  0.11434         3403.74786     17.36275  0.00013  58326.05936  4.35859  2.37758   1303112.58913  44.80379  18.15489    58375.984    50.75903       44.03093   29.74493    41.972   41.0    0.24913  -20.86497  0.68811 
  -13.14043  0.02181  4.82911     13.90868  1.57736  0.82959   4.80411  0.08779     0.01708   9053.93523   5097.10861  0.13879         4799.78277     17.60491  0.00022  58324.23356  2.34917  0.10476   5201355.08675  44.38293  18.16498  58373.40893    50.75785       44.03285   30.99577  40.41102   43.0    0.24556  -20.85527  0.98436 
  -12.13816  0.23252  5.15316     14.07117  1.55073  1.53974   5.77352   0.1142     0.02356   9008.39892   5098.91306  0.07718         5904.25278     19.59531  0.02188  58325.23582  2.79488  1.34246   2755252.41361  44.59507   18.1659  58373.40893    50.77531        44.0451   29.55575  40.41102   41.5    0.24283  -20.86698  0.81554 
   -9.48317  0.48946  4.02384     14.36847  1.40879  1.19721   8.72898  0.11314     0.01092   9473.36867   5285.36524  0.15843         3899.36821     17.54327  0.00019  58327.89081  4.67304  4.27251    388147.80065  45.61941  18.16393    58375.984    50.76629        44.0336   29.55575  42.16118   40.0    0.24964  -20.84749  0.66884 
  -10.31249  0.13415  4.76154     14.25042  1.57797  1.19556   10.4404  0.09089     0.02039    9450.5734   5021.78801  0.29092         4124.99741     18.50816  0.00179  58327.06149  5.56238  1.40063   1048481.21299  45.09089  18.15926    58375.984    50.72373       43.98484   33.68465  41.96925   40.5    0.24524  -20.85698  0.83758 
  -11.13104  0.10076  5.20323     14.21662   1.6767  1.24337  10.16081  0.08824     0.02066   9490.74619   5155.64781  0.15996         4318.44725     18.67116  0.00261  58326.24294  5.45954   1.0238   1554439.59325  44.86918   18.1658    58375.984     50.7241       43.98176   34.16628  41.48762   40.5    0.23639  -20.85202  0.86559 
  -11.58631  0.09733  5.46351     14.19743  1.69707  1.02379   7.94392  0.10018      0.0236   9576.20335   5147.53066  0.80181         2424.57341     17.93258  0.00048  58325.78767  4.34559   0.7732   1894945.65103    44.746  18.15397  58373.40893    50.75251       44.02372   31.72583  41.43112   41.0    0.24762  -20.85746  0.88663 
  -12.47726   0.0128  4.99396     14.61284  2.15292  0.61565   7.98707  0.15202     0.14029   9676.81099   5026.62663  0.05642         3167.17553     19.40943  0.01426  58324.89672  4.46148  0.10224    296519.79123  45.73293  18.15668  58373.40893    50.74494       44.01302   30.28581  41.48762   39.0     0.2319    -20.881  0.99034 
  -10.19539  0.05137  5.01249     14.36343  1.86701  1.10664   8.15319  0.16412     0.06243   9692.16612   5002.95947  0.57415         3820.09257     19.38158  0.01338  58327.17859  4.56874  0.41885    816993.10242  45.22767  18.13779  58373.40893    50.85757       44.13471   25.40491  40.06906   41.0    0.21875  -20.82987  0.95248 
  -11.85351  0.23117  5.85153     14.16562   1.7682  1.28152   5.84633  0.12007     0.02496   9505.90288   5178.64377   0.0189         5132.60675     17.91611  0.00046  58325.52047  3.15135  1.35149   2622057.25745   44.5632  18.13992  58373.40893    50.75322       44.03253   33.64707  39.50988   40.5    0.24725  -20.85794  0.80536 
  -12.83686  0.18926  5.76669     14.08407   1.6248   0.9786   7.76182  0.09452     0.01453   9323.16139   5103.41488  0.20749         4253.14137     18.54724  0.00196  58324.53712  4.02455  1.46901   3406697.67492  44.42546  18.13751  58373.40893     50.7579       44.02528    31.0165  42.14045   40.5     0.2438   -20.8511  0.77279 
  -11.52987  0.39006  6.50064     14.12211  1.70185  1.21167   6.64526  0.11587     0.01591   9881.62055   5149.40454  1.99371           2210.565     18.10267   0.0007  58325.84411  3.87075  2.59205   3805562.79109  44.29344  18.12828  58373.19945    50.73954       44.02533   30.28581  39.68096   40.0    0.25298  -20.87069   0.6201 
  -11.38666  0.03774   5.2719     14.24272  1.78623  1.23929   9.39783   0.1188     0.03366   9655.93467   5064.20402  0.85602         3019.32714     18.91656  0.00458  58325.98733  5.22689  0.35472   1507458.37582   44.8986  18.14602    58375.984    50.72389       43.98875   34.16628  40.68346   41.0    0.22308  -20.84253  0.95218 
  -11.52834  0.02696    5.178     14.20633  1.62412  0.73635   3.73154  0.17848     0.06008   9716.21303   4949.63946  0.37521         2511.60726     17.62492  0.00023  58325.84564   2.1014  0.10061   1563496.77565  44.85704  18.13569  58373.27571    50.72652       43.98515   33.64707  41.20267   42.5    0.25379  -20.87181  0.98419 
   -9.97907  0.18999  5.13851     14.48728  2.01946  0.88849   5.45855  0.18202     0.05585   9798.35566   5172.48423  0.02864         4727.17745     19.44909  0.01562  58327.39491  3.12616  1.03706    525009.37587  45.43224  18.15187  58373.19945    50.72701       43.99758   31.72583  41.48762   39.5    0.25788  -20.87798  0.89665 
  -11.39427  0.01872  5.66422     14.24897  1.88774  1.14248   7.46031  0.12073     0.04023   9361.45123   5136.82834  0.29294         3884.73191     17.34399  0.00012  58325.97971  3.90005  0.13965   1786855.96072  44.78642  18.14527  58373.19945    50.78106       44.07255   29.55575  37.33679   41.5    0.23914  -20.83617  0.97933 
  -10.53741   0.0377  4.28637     14.39829  1.82304   0.9535   8.62265  0.14717     0.06423   9628.32277   5153.18545  0.12115         3565.70333     19.15473  0.00793  58326.83657  4.76836  0.32508    496824.23618  45.56926  18.17448  58373.40893    50.78449       44.05213   27.84536  41.17539   39.5    0.23972  -20.85078  0.97158 
   -11.0364  0.30281   5.9993     14.05072  1.63615  1.44007   4.99319  0.15139     0.02149   9424.17122   5260.04311  0.85535          3414.5646     18.80246  0.00353  58326.33758   2.6454    1.512   4329035.29381  44.29008  18.15172  58373.40893    50.73187        43.9977   33.64707  41.19582   39.5    0.26224  -20.85539  0.75596 
  -14.90901  0.03593   4.8847     14.04149  1.52394  0.65546   6.73345  0.09299     0.01508   9175.38008   5221.66265  0.24594         2339.52673     17.25186   0.0001  58322.46497  3.38153  0.24192   2789208.89393  44.62866   18.1573  58373.19945    50.80315       44.10018   29.55575  37.33679   41.5    0.24027  -20.83204  0.96254 
   -11.4765  0.23084  5.44515     14.10734  1.71532    1.385   6.06387  0.11704     0.02063   9344.07837   5297.84836   0.3211         3481.99722     20.11949  0.07315  58325.89748  3.15827   1.3998   2880684.70301  44.57167  18.12982  58373.40893    50.74422       44.01795   33.64707  39.56638   40.0    0.25463  -20.94258    0.815 
  -11.04472  0.07495   4.3977     14.14016  1.52271  1.21879  16.77774  0.05128     0.01315   9426.33897   5321.77179  0.06299         3336.93161     20.35371  0.12544  58326.32926  8.89297  1.25757   1434052.37278  45.00845  18.15948  58373.40893    50.75159       44.02899   31.72583  41.43112   42.0    0.24022  -20.93314  0.86417 
  -15.15473  0.24044  4.04013      14.2755  1.11557  0.26159   4.15956  0.16006     0.02129   8526.14894   5369.04499   0.1389         5018.83662     16.33143    1e-05  58322.21925  1.80377  1.00014    475452.47939  45.42644  18.17405  58373.40893    50.74075       43.98994   32.20705  43.00123   42.0    0.23586  -20.82936  0.85185 
  -11.30057  0.04629  5.36894     14.40679  1.63673  0.35843     2.951   0.2029     0.04655   9556.74123   5059.15454  1.92126         2170.93012     18.89162  0.00433  58326.07341  1.60774  0.13659    672965.87257  45.19505  18.17321    58375.984    50.72293       43.97971   33.64707  42.00683   41.5    0.25158  -20.84712  0.97701 
  -13.50343  0.06495  5.47593     14.21042  1.73515  0.58858   7.25152  0.08811     0.01497   9363.34543   5212.95522  0.24633         2132.81794     17.09735    7e-05  58323.87056  3.79244  0.47098   1833284.77665  44.76804  18.15053  58373.40893    50.88883       44.19846   27.84536  35.85339   41.0    0.24458  -20.85619  0.92789 
  -11.67583  0.14893  5.70064     14.38192  1.67064  0.49545   8.09352  0.08213     0.01788   9661.70794   4961.76977  0.26534         3070.80741     18.89026  0.00432  58325.69815  4.50684  1.20539    868371.11424  45.04118  18.15368  58373.40893    50.77314       44.06806   28.55532  37.33679   41.0    0.24832  -20.87812  0.81678 
  -11.49921    0.017   4.7491     14.24341  1.73099  1.10832   5.39317  0.18187     0.08509   9338.66034   4885.95006  0.12755         2812.78293     18.53482   0.0019  58325.87477  2.80569  0.09169    1181714.1805   45.0814  18.16186  58373.40893    50.80485       44.07819   27.84536  41.17539   40.5    0.24335   -20.8414   0.9891 
  -12.12981  0.02625  4.81943     14.04321  1.52038  1.40999   8.85722  0.08579     0.02808   9324.61904   4922.68694  0.04194         4624.10882     18.18359  0.00085  58325.24417  4.59396  0.23252   2687471.68418  44.65546  18.16165  58373.27571    50.77005       44.04483   30.99577  40.41102   42.0    0.24442  -20.84045  0.96591 
  -11.21531  0.01525  4.00191     14.23682  1.69936  1.53334   8.73829  0.12915     0.06222   9049.15725   5460.03585  0.07156         5125.28326     19.72563  0.02954  58326.15867  4.26845  0.13325    849184.95592   45.3656  18.16128  58373.40893    50.78114       44.05038   27.84536  41.48762   39.5    0.24064  -20.86339  0.98851 
  -12.71261  0.44742  6.87782     14.33289  1.98817  0.57212   4.82309   0.1195     0.02003   9600.78871   4875.25894  0.07885         3249.64159     16.10449    1e-05  58324.66137  2.65196  2.15796   1885314.58769  44.61701  18.13907    58375.984    50.80828       44.09169   31.72583  39.04717   42.0    0.24922  -20.85422  0.68434 
  -11.98387  0.14376  4.81804      14.1166  1.52295  1.39047   7.91173  0.10193     0.02606   9197.27413   5052.53388  0.22164         3658.39575     19.87967  0.04211  58325.39011  3.99224  1.13736   1918879.50507  44.80274  18.15531  58373.40893    50.76659       44.05066   30.99577  39.46501   42.5    0.23868  -20.86614  0.85391 
  -11.46115  0.03945  5.59056     14.02092  1.72399  0.99407   8.84327   0.0629     0.01312   9509.82529   5076.73397  0.63993         3143.53269     19.13615   0.0076  58325.91284  4.77073  0.34887   4543826.49902  44.35305  18.15248  58373.40893    50.80391        44.0624   28.55532  39.46501   41.5     0.2453  -20.87226  0.94267 
   -12.8434  0.18454  5.51921     14.12563    1.613  1.10817   7.37429  0.10356     0.02018   9427.99585   5103.60557  0.08517         2848.40486     17.55149   0.0002  58324.53058  3.91008  1.36082    2558224.0137  44.58479  18.13805  58373.27571      50.756       44.03236   30.99577  40.41102   41.0    0.24486   -20.8415  0.80072 
  -12.20941   0.2749  5.42813     14.24099  1.79047  1.13552   3.91323  0.21197     0.04759   9414.14012   4942.95733  0.06893         3170.69916     18.79163  0.00344  58325.16457  2.06883  1.07573   1614771.43496   44.8444  18.14843  58373.40893    50.76593       44.04184   30.99577  40.41102   40.5    0.24144   -20.8668   0.8611 
  -11.28113  0.03127  5.13181     14.24205   1.7585  1.11356  10.01413  0.10105     0.03157   9732.59648   5113.04349  0.18826         4274.68619      17.5818  0.00021  58326.09285  5.65845  0.31313   1410565.79825  44.94405  18.16574  58373.40893    50.75586       44.01041    31.0165  42.19695   40.0    0.24453  -20.87563  0.95874 
  -14.83951  0.17827  5.79712     14.48467  1.92793   0.2773   3.72594  0.15838     0.02513   9624.39111   5035.32132    0.008         4685.75822     18.41578  0.00145  58322.53447  2.05878  0.66422    645647.10973  45.21752  18.11061  58373.19945    50.74033       44.02671   33.64707  37.75971   41.5    0.25045  -20.86013  0.90301 
  -14.21406  0.24071  5.14886     13.84426  1.65623  1.06665   4.99672  0.14963     0.01314   9035.50217   5266.66859  0.67039          3668.0746     19.36063  0.01275  58323.15992  2.43342  1.20274   8352900.04079  44.14271  18.14644  58373.40893    50.76967       44.04977   29.55575  39.47185   41.5    0.25931  -20.85937  0.83686 
  -13.70335   0.2296  5.31647     14.02233   1.4534  0.94877   7.92175  0.08963     0.01368   9418.70226   5079.30184  0.06035         3545.61015     17.57369  0.00021  58323.67063  4.19209  1.81887   3441797.56667   44.4432  18.16162  58373.40893    50.72126       43.97632   33.68465  42.96366   41.0    0.25184  -20.84985  0.73225 
  -12.67071  0.23331  5.31948      13.9798  1.51781  1.09479   6.53328  0.10038     0.01479   9147.59482   5252.32029  0.31539         2791.58084     19.29781  0.01103  58324.70327  3.26116  1.52429   4377018.21223  44.35715  18.14129  58373.40893    50.75634       44.02751   31.72583  41.43112   41.0    0.24924  -20.84948  0.77616 
  -10.88511  0.04692  4.61077     14.27008  1.79941  1.37338   9.90773  0.11208     0.04106   9678.27714   5103.89284  0.10571         4014.09468     19.86238  0.04047  58326.48887  5.53602  0.46492   1024064.48553   45.1861   18.1147  58373.40893    50.72576       43.99852   34.16628  40.67662   40.0    0.23728  -20.89229  0.95281 
  -12.89426  0.02215  4.24145     13.82139  1.41984  0.90833   6.85408  0.06693     0.01263   9389.47781   5194.80516  0.18407         2013.68389     20.18856  0.08576  58324.47972  3.60462  0.15184   5399009.29559  44.43374  18.16539  58373.40893    50.76814       44.03756   27.84536   42.1214   42.0    0.26245  -20.93689  0.97981 
  -11.79847  0.09095  5.87437     14.46263  1.93119  0.59995   6.12853  0.14323     0.03464   9951.20647   5224.93581  0.05697         2039.92807      18.3671  0.00129  58325.57551  3.62022   0.5574     735024.9989  45.15044   18.1338  58373.40893    50.75611       44.02911   31.72583  41.43112   39.0    0.25251  -20.86438  0.91938 
  -10.32403  0.00259  4.22273     14.39493  1.72557  0.59279   4.54848  0.15937     0.05799   8794.30935   5395.23522   0.1308          5678.4394     20.49084  0.17202  58327.04995  2.09844  0.01179    463531.40806  45.58851  18.14904  58373.40893    50.73586        44.0054   32.20705  41.19582   41.5    0.25468  -21.01855  0.99888 
  -10.60273  0.02784  4.42496     14.53472  1.67188  0.51505   8.65323  0.13496     0.21031   9761.26481   5210.57828  0.41267         3025.19702     17.56243   0.0002  58326.77125  4.91833  0.24094    259056.41598  45.78684  18.16102    58375.984    50.76097       44.02853   29.55575  40.41102   39.5    0.24078  -20.85351  0.97429 
  -10.52785  0.31566  5.61985     14.37675  1.70419  1.03167   8.79513  0.11024     0.01375   9349.09867   5289.50656  1.33418         2338.84271      17.8368  0.00038  58326.84613  4.58573   2.7763    881623.26937  45.05563  18.17131    58375.984    50.74842       44.02348   30.28581  41.43112   40.5    0.22341  -20.81698  0.67695 
  -14.17478  0.23466    4.645      14.1412    1.479  0.38045   5.22256  0.11689     0.01377   9608.73194   5134.22942  0.00135         3278.74812     17.84674  0.00039   58323.1992  2.87636  1.22552    1546499.3435  44.91549  18.16025    58375.984    50.72643       43.97993   31.20662  42.00683   40.5    0.27027  -20.86916  0.83952 
  -10.98692  0.04859  5.67518     14.27655  1.96354  1.30079   6.48768  0.13591     0.05111   9757.35447   5066.91064  0.71662         2415.51135     16.97001    5e-05  58326.38706  3.68452  0.31523   1643280.30398  44.83821  18.14895  58373.19945    50.71643        43.9786   33.68465  41.96925   40.5    0.25001  -20.86297  0.95699 
  -10.72278  0.05968  6.05384      14.4921  2.11188  0.56705   6.58975  0.09551     0.02619   9317.23635   5226.94894  0.10591         5096.81241     20.08247  0.06717   58326.6512  3.41248  0.39325    745327.99026  45.15711  18.13216  58373.40893    50.76042       44.04869   29.74493  39.58805   41.5     0.2507  -20.92508  0.94549 
  -12.76589  0.01529   5.2352     14.35329  2.10148  1.38468   5.01869  0.22206     0.12016      9275.57   5069.93617  0.07745          4197.7884     16.92653    5e-05  58324.60809  2.57572  0.07672   1051074.18642  45.13187  18.12462  58373.40893    50.75517       44.03488   31.72583  39.68096   40.0    0.22868   -20.8321  0.99171 
  -11.77491   0.1808  5.80834     14.06273  1.73579   1.2794   6.78737  0.10917     0.01655   9697.60892     5331.448  0.46282         2775.55505     18.36846   0.0013  58325.59907  3.80766  1.22716   4073386.00933  44.37028  18.14245  58373.40893    50.73878       44.00267   33.64707  39.56638   39.0    0.25781  -20.88587   0.8163 
  -12.01285  0.04076   5.4746     14.27698  1.82092  0.88538   7.80086  0.11531     0.02407    9383.2279   5247.70994  1.39588         2274.69057     18.71231  0.00286  58325.36113  4.09708  0.31795   1415327.83597  44.90157    18.143  58373.40893    50.74033       44.01107   31.72583  41.48762   39.5    0.22402  -20.85356   0.9547 
   -9.41211   0.0836  4.48805     14.94906    1.564  0.18245  11.61558  0.09173     0.02729   9628.98515    4933.9628  0.28875         3071.81208     17.65082  0.00025  58327.96187  6.42435   0.9711     36987.25034  46.59091  18.16511  58373.40893    50.72371       43.99137   33.64707  41.19582   41.0    0.24087  -20.82891   0.8921 
  -10.72494   0.1999  5.06445     14.39685  1.70724  0.80742   7.11425  0.13723     0.03281    9813.3985   4956.41355  0.10484         3686.62229     17.60215  0.00022  58326.64904  4.08691  1.42217    653839.27187   45.2766  18.15981  58373.40893    50.76195       44.02892   30.99577  40.41102   40.5    0.23623  -20.85994  0.83466 
   -11.7666  0.03715  5.27307      14.3024  1.92756  1.28873   6.98632  0.16175     0.05571    9437.7294   5130.72732  0.27265         3656.69995     17.57741  0.00021  58325.60738  3.71202  0.25951    1236371.5226  45.01758  18.16441  58373.40893    50.77454       44.06116   30.99577  39.47185   41.0    0.23405  -20.82923  0.96832 
   -10.7613   0.0813  4.98496     14.37661  1.88361  1.01579    7.4396   0.1502     0.05075    9689.8395   5086.86603   0.1056         4566.16079     18.83369  0.00379  58326.61268  4.16687  0.60483    767197.21384  45.26361  18.14573    58375.984    50.74106       44.00588   33.64707  41.19582   40.0    0.23674  -20.85731  0.93428 
  -11.78693  0.03514   5.7821     14.44085  1.99767  0.72514   7.77075  0.11589      0.0455   9534.63221   4980.85878    0.249         3904.20668     18.79264  0.00345  58325.58705  4.21403  0.27308    814354.64406  45.13438  18.15986    58375.984    50.75535        44.0193   29.74493   42.0285   41.5    0.24508   -20.8638  0.96208 
   -9.25857  0.04657   4.6226     14.32735  1.80074  1.14508    7.6944  0.14525     0.08013   9743.13041   5109.41349  0.36882         3384.11681     19.38771  0.01357  58328.11541  4.35711   0.3583    791295.51557  45.29619  18.22345    58375.984    50.78657       44.00991   20.89783  49.06416   39.5    0.24071  -20.87279  0.96312 
   -11.1677  0.41089  5.89339     13.96002  1.66603  1.45164   3.01449  0.18064      0.0367   9666.96366   5056.93773  0.76517         3006.89129     18.30307  0.00112  58326.20629  1.68044  1.23863   6459435.79548   44.1396  18.14131  58373.40893    50.71972       43.98447   34.68018  40.97372   42.0    0.25179  -20.86068  0.79839 
  -10.11446  0.06946  4.89937      14.6938  1.52792  0.23862   4.51763  0.13007     0.05394   8898.69478   4882.29993  0.19088         5058.94157      17.1736    8e-05  58327.25952  2.13398  0.31381    139507.06436  45.92807  18.16393  58373.40893    50.74937       44.01616   29.74493   42.0285   43.0    0.26094  -20.84511  0.95351 
  -11.28503  0.04238  5.37531     14.56175  1.70468  0.34329   6.07997  0.11238     0.03261   9502.84926   5083.33213  0.01185         2626.88899     16.47896    2e-05  58326.08895  3.27519  0.25767    344166.74082  45.50291  18.17801  58373.40893    50.78943       44.05501   25.40491  43.61584   41.0     0.2576  -20.84056  0.96051 
  -13.64854   0.1197  5.03037     14.05278  1.43959  0.69826   7.60663  0.09055     0.01501   9500.90046   5155.85633  0.40527         3277.48132     16.60073    2e-05  58323.72545   4.0959  0.91051   2652724.21862  44.60019  18.15367  58373.27571    50.76768       44.04191   29.28538   42.1214   40.5    0.24817  -20.86375  0.85643 
  -12.52342   0.4591  5.67397     14.42567  1.60801  0.30179   5.90887  0.10328     0.01156   9390.21221   5313.67914  0.05553         3594.01488     16.27553    1e-05  58324.85056  3.10801  2.71275    676908.94422  45.13683  18.12973  58373.40893    50.72851       43.99363   31.72583  43.11707   40.5    0.27502  -20.86945  0.64742 
  -12.20222  0.10347   6.9193     14.09474  2.05271  1.30909   7.03181  0.10085     0.01782   9431.38897   5018.08739  3.92529          2767.2807     16.37076    1e-05  58325.17176  3.73118  0.72761   5899039.31611  44.13027  18.13254  58371.42283    50.74957       44.01663   29.55575  40.41102   42.5    0.23323  -20.83331  0.86954 
  -11.61185  0.48764  6.54194     14.20353  1.60639  1.25771   7.09886  0.11681      0.0137   9445.07326   5213.60939  0.37112         3550.00159     16.20308    1e-05  58325.76213  3.77769  3.46171   2500428.79243  44.44527  18.17446  58373.25501    50.75477       44.02441   27.84536   42.1214   40.0    0.25834  -20.85071  0.52856 
   -9.93686  0.13698   4.3684      14.6408   1.2425  0.24017   7.25635  0.12536     0.03204   9205.30117   5046.79756  0.72304         3948.55598     18.37318  0.00131  58327.43712  3.66794  0.99401    115119.96229  46.02135   18.1542  58373.40893    50.74369       44.01825   33.64707  39.50988   42.0    0.23813   -20.8434  0.85719 
  -11.78808  0.09969  5.16786     14.04699  1.48124  1.02217   7.75978  0.08599      0.0216   9562.92717   4950.46125  0.93098         2575.57594     16.07842    1e-05   58325.5859   4.2331  0.77354   2958608.46133  44.54176  18.14768  58373.40893    50.73803         44.018   32.20705  39.50988   42.5    0.24749   -20.8562  0.87589 
  -12.41057  0.05016  4.76051     14.29192  1.44878  0.51505   9.05652  0.07929     0.01951   9316.53965   5218.28568   0.2445         2487.36164     17.38649  0.00014  58324.96341  4.68919  0.45431     794831.4297  45.17427  18.15044  58371.42283    50.70802       43.97865   32.24462   41.1651   41.5    0.24769  -20.84571  0.93235 
  -12.28393  0.27379   6.5192     14.04133  1.92081  1.28142    8.3852  0.07427     0.01032   9755.01378   5107.51829  0.12219         2713.12395     19.44049  0.01532  58325.09005  4.75988  2.29578   6266569.85896  44.12691  18.16049    58375.984    50.72997        43.9908   33.64707  41.20267   40.5    0.25924   -20.8839  0.68244 
  -12.97778  0.37269  5.90789     14.00085  1.65482  1.32112   4.48179  0.13634     0.02874   9938.38682   4968.79433  0.01468         4598.94668     17.74154  0.00031   58324.3962  2.64065  1.67033   5342213.24157  44.21701  18.14055  58373.40893    50.72836       43.99951   33.68465  41.15825   41.5    0.24726  -20.87407  0.74438 
  -10.89459  0.02811  6.56347     14.23062  2.15124  1.17232   4.75267   0.1404     0.03662   9837.00602   5239.36616  2.82928         2122.85258     17.68379  0.00027   58326.4794  2.74341  0.13362   2975273.37605  44.49374  18.17202  58373.40893    50.73033       43.97896   30.28581  43.92807   41.0    0.25236  -20.87462  0.97792 
  -12.80396  0.12867  5.74873     14.08105  1.71681  0.96175   7.28302  0.10585     0.01655   9856.82744   5245.08184  1.06978         2316.74838     16.65577    3e-05  58324.57002  4.22098  0.93708   3627198.63313  44.42485  18.13005  58373.19945     50.7683       44.05142   30.99577  39.77724   39.5    0.25786  -20.86952  0.85297 
  -13.23678  0.18831  6.23804     14.07357  1.75724   1.2363   8.85341  0.08316     0.01263    9473.1814   5217.89705  1.30021           2830.976      18.2669  0.00103   58324.1372  4.73946  1.66714   4524779.48108  44.26798  18.13673  58373.40893    50.79414       44.07973   27.84536  39.04717   41.0    0.24252   -20.8718  0.74184 
  -11.64873  0.02323  5.38462      14.2695   1.6278  0.61218   4.54921  0.15837     0.04238   9607.20332    5139.1257  0.98214         2861.85271     16.22976    1e-05  58325.72525  2.50471  0.10566   1266831.53381  44.91542  18.16946  58373.40893    50.74204       44.00189   30.28581  43.11707   41.5     0.2486  -20.85276  0.98209 
  -10.14036  0.02116  5.26523     14.40557  1.80185  0.64743   6.64413  0.11616     0.05119   9605.32493   5038.63514  0.39538         2274.82626     19.38099  0.01336  58327.23362   3.6567  0.14061     716508.0761  45.22651  18.16181    58375.984    50.77798       44.04073   27.84536   42.1214   41.0    0.25624  -20.86307  0.98073 
  -10.28719  0.07317  4.48116     14.31167  1.77143  1.28075   8.01564  0.13377      0.0676   9381.14344   5058.62969  0.15915         3195.43823     18.55818  0.00201  58327.08679  4.20801   0.5865    786277.32651  45.31881  18.15469  58373.40893    50.69939       43.97122   33.24016  40.16956   40.5    0.24318  -20.82589  0.94314 
  -12.80949  0.45945  7.50291     14.17332  1.93727   1.1385   7.22586  0.09903     0.01164   9475.48602     5097.692  0.50093         3072.89314     17.23184    9e-05  58324.56449  3.87008  3.31994   4558531.31049  44.14675  18.17609  58373.40893    50.74175       44.00485   34.16628  41.48762   41.0    0.24799   -20.8556  0.53447 
  -10.12732   0.3121  5.63634     14.33459  1.69575  0.77798   7.44497  0.09034     0.01669   9250.89868   5101.68012  0.44827         3157.88243     20.21073  0.09025  58327.24666  3.80065  2.32356   1071477.21202  44.96623  18.12517  58373.40893     50.7927        44.0847   29.74493  39.27582   41.5    0.24301  -20.92066  0.71019 
  -12.35798  0.23016  5.43046     13.86321  1.70559  1.54169   3.58058  0.14964     0.02629   9729.46014   5218.29052  1.09457         2327.32442     16.44099    2e-05  58325.01601  2.02189  0.82411   8768806.44673  44.08811  18.18753    58375.984    50.83338        44.1149   27.84536  41.17539   42.0    0.26209  -20.87724   0.8771 
  -11.69636   0.0745  5.63834     14.14373  1.74524  1.18492   9.20358  0.07859     0.01734   9245.83878   5039.21715  0.16529         4237.87657       19.198  0.00876  58325.67762  4.69328  0.68568   2657746.33419  44.58388  18.16949  58373.40893    50.74746       44.00931    34.7378  41.48762   40.5    0.24104  -20.85154  0.89582 
   -10.5941   0.0683  5.49878     14.27566  1.77647  0.94633   7.95707  0.12341      0.0337   9548.34719   4958.90814  0.67251         3837.18497     20.07314  0.06575  58326.77988   4.3275  0.54344    1401473.8394  44.89128  18.16264  58373.40893    50.73488       44.01123   32.20705  39.56638   41.5    0.22612  -20.89709  0.92189 
  -12.26364  0.14698  5.97713     14.08539   1.7301  1.16771   6.66847  0.11193      0.0215   9659.17635   5030.32347   1.1584         2498.05666     17.57978  0.00021  58325.11034  3.71136   0.9801   3873386.33483  44.36584  18.15221    58375.984    50.74985       44.02277   31.72583  41.43112   41.0    0.23697  -20.84068   0.8393 
  -10.37192  0.00478  3.85361     14.09757  1.54326  1.31398   5.70527  0.14332       0.075   9460.06323   5179.37262  0.16216         2160.01959     20.49756   0.1747  58327.00206  3.04573  0.02728   1357822.86525  45.15271  18.13046  58373.40893    50.75976       44.03909   31.18495  40.22183   41.0    0.25952  -21.00751  0.99744 
  -10.99265  0.05956  4.26138     14.32114  1.93194  1.53662   8.14308  0.13266     0.08995   9554.95238   4992.17688  0.03942         4948.44474     20.23907  0.09634  58326.38133  4.43479  0.48504    742391.19185  45.42511  18.14542  58373.40893    50.76562       44.05179   30.99577  39.46501   40.0    0.24079  -20.95124  0.96195 
   -9.63886  0.03265  5.74364      14.3612   2.0304  0.96766   6.30413  0.12578     0.04799   9567.41434    5175.2932  0.32569         2347.22897     19.30018  0.01109  58327.73512  3.44224  0.20583   1178636.56114  44.98667  18.16076  58373.40893    50.74987       44.02032   30.28581  41.43112   40.5    0.25328  -20.85293  0.97221 
  -11.20103  0.04732  5.53997      14.3362  1.83471  0.82587   7.78135  0.12009     0.03472    9804.4851   5083.08786  0.93899         2333.59352     17.77803  0.00033  58326.17295  4.46202   0.3682   1111719.66776   44.9994   18.1951    58375.984    50.72507       43.95831   32.20705  44.44728   40.5    0.23511   -20.8517  0.94742 
  -12.49132  0.40043  7.20419     14.34613    2.141  1.06337   5.16884  0.17475     0.02155   9242.74543   5326.25186  1.03696         2930.75793     19.30049   0.0111  58324.88266  2.63404  2.06978   2095723.83635  44.56296  18.14621  58373.40893    50.75259       44.02984   31.18495  40.22183   40.5    0.24245   -20.8526  0.70343 
  -10.90148  0.05133  4.58315     14.14949  1.57159  1.27094   8.88455  0.10672     0.02949   9338.06525   5168.79648  0.18244         4271.81716     19.84535  0.03891   58326.4725  4.62143  0.45604   1539962.57665  44.95535  18.15644  58373.40893     50.7183        43.9754   34.16628  41.48762   40.5    0.24457  -20.87893  0.94421 
  -12.23993  0.21561  6.21024      13.9893  1.67632  1.48216    8.7881  0.08395     0.01116    9476.4494   5214.83814  3.46716         2431.60676     18.19387  0.00087  58325.13405  4.70775  1.89479   6306396.82763   44.1072  18.14884  58373.19945     50.7478        44.0283   29.74493  40.22183   41.0    0.24824  -20.84121  0.70203 
  -12.13774  0.47136   4.9182     14.14127  1.38101  1.45655   7.78508  0.11581     0.01281   9264.42295   5371.52324  0.51869         2457.07837     20.03736  0.06055  58325.23624  3.98591   3.6696   1618363.93591  44.81635   18.1666  58373.40893    50.73253       43.99219   33.68465   41.1651   41.0    0.23905  -20.88658  0.60101 
  -11.96562  0.03744  4.76551     14.17627  1.53484  0.88717   7.34839  0.11764     0.03075   9342.77327   5108.70806  0.50735         2665.75386     18.79148  0.00344  58325.40836  3.82623  0.27516   1437331.19613  44.94113  18.14648  58373.19945    50.75149       44.01871   28.55532  42.16118   41.0     0.2354  -20.84958   0.9614 
  -11.79693  0.07119  5.27804     14.21561  1.77346  1.23853   7.06785  0.13577     0.03744   9707.02451   5021.33225  0.47341         2333.46745     18.43685  0.00152  58325.57705  3.97271  0.50315   1699690.26512  44.84235  18.14382    58375.984    50.74547       44.01536   33.64707  39.56638   40.5    0.23104  -20.85622  0.93256 
  -10.82061  0.36143    6.041     14.02862  1.66971  1.04939   6.09705  0.10641     0.01414   9650.52709   5182.95029   3.6111         2098.42918     19.40239  0.01403  58326.55337  3.38726  2.20363    4959469.6891  44.23383  18.15305    58375.984    50.74513       44.01877   33.64707  39.50988   40.5    0.26547  -20.87309  0.67996 
  -11.07007  0.17492  5.50751     14.23703  1.62243  1.04989   9.33866  0.09385     0.01797   9511.99111   5068.18684  0.45523         3596.50107      18.9315  0.00474  58326.30391  5.04028  1.63352   1534017.89174  44.81127  18.14848    58375.984    50.76118       44.02848   31.18495    41.972   41.0     0.2349  -20.86084  0.77383 
  -10.91383   0.0485  4.40808     14.32788  1.79028  1.10023   7.54565  0.15855     0.06032   9912.56389   5140.21156  0.03988           3355.143     19.46487   0.0162  58326.46015  4.42279  0.36598    713616.87912   45.3798  18.16442    58375.984    50.73933       43.99514   36.08752  41.19582   39.0    0.24787  -20.88071  0.96539 
  -11.60358  0.22753  6.99453     14.37115  2.05819  0.80094   6.57031  0.11406     0.02157    9722.2274   5077.71629  0.40777         3445.86567      18.0805  0.00067   58325.7704  3.70463  1.49498   1692496.24265  44.66429  18.15493  58371.42283      50.757       44.04185   30.99577  39.77724   40.5    0.24131  -20.86343   0.7658 
  -13.23611  0.22547  5.02554      13.8456  1.51232  1.24937   6.23584  0.09695      0.0139   9472.49616   5045.77319  0.45898         2717.58955     19.75978  0.03195  58324.13788  3.33773  1.40598   7221604.24033  44.18749  18.14122  58373.40893    50.76449       44.03865   29.55575  40.41102   41.0    0.25445   -20.9006  0.80452 
  -11.24891  0.06668  5.17281     14.22926  1.68908  1.01053    8.5083  0.10478     0.02907   9586.55581   5038.57669  0.11883         3673.54206     17.99547  0.00055  58326.12507  4.66439  0.56731   1460180.42073  44.90463  18.14231  58371.42283    50.75814       44.04118   30.99577  39.77724   40.5     0.2397  -20.85185  0.92224 
  -13.03204  0.14056   4.6877     13.98696   1.3223  0.74454   6.09742  0.09342     0.01994   9384.58196   5128.03023  0.01381         4938.42585     16.43348    2e-05  58324.34195  3.20334  0.85704   2865158.48965  44.59111   18.1535  58373.40893    50.78272        44.0754   29.28538  39.04717   42.0    0.24815  -20.84076  0.86567 
  -11.03869  0.12402  4.69565     14.36951  1.67362  0.76365   5.99316  0.17266     0.04786   9619.41895   5174.68794  0.37032         2847.58457     19.79453  0.03461  58326.33529  3.30811  0.74328    624952.34384  45.35326  18.15047  58373.40893    50.77823       44.05469   26.84493  41.17539   40.5    0.23038  -20.87146  0.91598 
  -11.21327  0.11444  4.77855     14.37142  1.62063  0.69781   7.35446   0.1365     0.03527   9607.58912   5062.12297  0.04114         3446.40708     17.62301  0.00023  58326.16071  4.04955  0.84161    621237.18209  45.32668  18.14261  58373.19945    50.75861       44.03266   27.84536   42.1214   40.5    0.24071  -20.84339  0.89842 
  -11.72823  0.10186  5.73779     14.15413  1.67733   1.0072  10.09732  0.08259     0.01469   9585.15046   5100.77001  2.22884         2361.25893     17.68746  0.00027  58325.64575   5.5339  1.02852   2521547.87002  44.57431  18.15346  58373.40893    50.75486       44.02948   29.55575  40.41102   40.5    0.23199  -20.85144  0.83872 
  -13.14289  0.26651  6.28895     14.03344  1.92521  1.07743    7.4574  0.08389      0.0104   9433.70892   5285.62034  1.39365         2228.44419     19.54585  0.01952  58324.23109  3.95894  1.98747   6061358.97625   44.1736  18.13518  58373.40893     50.8059       44.05939   29.28538  41.17539   41.5    0.25913  -20.86948  0.72643 
  -11.04644  0.06599  4.96774     14.24627  1.62212  0.88719   8.31255  0.11042     0.02898   9703.15203   5227.70062    0.053         2649.35734     17.49169  0.00017  58326.32754  4.66861  0.54856   1195865.88375  45.00893  18.16034    58375.984    50.75683       44.03256   29.74493  40.22183   40.0    0.24548   -20.8474  0.92606 
