# Wavelength Flux
# STATUS = PUBLIC
# OBJECT = 2018lzx
# TELESCOPE = P200
# INSTRUMENT =
# DATE-OBS = 2018.1213
# MJD =
# EXPTIME =
# SLIT =
# DISPERSER =
# SOURCE = 2023ApJ...943...41C
# FILTER =
# FLUX_STANDARD =
# EXTINCTION_CORRECTED = False
# PHOTOMETRY_CALIBRATED =
# FLUX_UNITS = erg/s/cm^2/Angstroms
# QUALITY =
# MIN_WAVE =
# MAX_WAVE =
# COMMENT =
3800.0 1.4475e-17
3801.525 9.2042e-18
3803.05 1.3913e-17
3804.575 8.8157e-18
3806.1 8.3735e-18
3807.625 -4.1406e-18
3809.15 3.021e-18
3810.675 1.3423e-17
3812.2 2.3693e-17
3813.725 1.3003e-17
3815.25 1.1821e-17
3816.775 -1.2128e-18
3818.3 5.2806e-18
3819.825 8.0031e-18
3821.35 1.0674e-18
3822.875 8.6169e-18
3824.4 8.9214e-18
3825.925 -6.3167e-18
3827.45 1.2298e-18
3828.975 2.1848e-17
3830.5 2.4553e-17
3832.025 1.5543e-17
3833.55 8.4252e-18
3835.075 2.9064e-19
3836.6 -1.6767e-18
3838.125 -3.4565e-19
3839.65 4.2618e-18
3841.175 6.7324e-18
3842.7 1.4997e-17
3844.225 2.0949e-17
3845.75 -1.0866e-17
3847.275 1.6429e-18
3848.8 2.1697e-17
3850.325 1.452e-17
3851.85 -4.0443e-18
3853.375 2.0525e-17
3854.9 2.5965e-18
3856.425 -2.7135e-19
3857.95 2.0825e-17
3859.475 1.753e-17
3861.0 7.2644e-18
3862.525 6.3864e-18
3864.05 2.2114e-17
3865.575 1.232e-17
3867.1 1.2241e-17
3868.625 8.4506e-18
3870.15 6.4394e-18
3871.675 -3.3509e-18
3873.2 1.1809e-17
3874.725 1.6117e-17
3876.25 1.2284e-17
3877.775 2.112e-17
3879.3 2.8881e-17
3880.825 8.807e-18
3882.35 1.9392e-17
3883.875 1.6662e-17
3885.4 8.9763e-18
3886.925 9.9946e-18
3888.45 1.8051e-17
3889.975 7.6643e-18
3891.5 1.2641e-17
3893.025 9.7628e-18
3894.55 1.066e-17
3896.075 2.3598e-17
3897.6 7.2945e-18
3899.125 4.4027e-18
3900.65 1.5747e-17
3902.175 3.361e-17
3903.7 3.6976e-17
3905.225 2.3566e-17
3906.75 6.347e-18
3908.275 2.3234e-17
3909.8 1.4496e-17
3911.325 3.3001e-17
3912.85 1.081e-17
3914.375 2.848e-17
3915.9 7.8964e-18
3917.425 1.456e-17
3918.95 9.1413e-18
3920.475 1.4141e-17
3922.0 1.6397e-17
3923.525 1.112e-17
3925.05 1.242e-17
3926.575 2.2485e-17
3928.1 2.7551e-17
3929.625 1.5245e-17
3931.15 2.5058e-17
3932.675 3.8402e-17
3934.2 2.7133e-17
3935.725 1.6849e-17
3937.25 1.8348e-17
3938.775 1.2806e-17
3940.3 1.587e-17
3941.825 2.9187e-17
3943.35 1.8024e-17
3944.875 1.6879e-17
3946.4 3.3411e-17
3947.925 3.117e-17
3949.45 2.7374e-17
3950.975 2.5282e-17
3952.5 2.1872e-17
3954.025 3.4044e-17
3955.55 2.5605e-17
3957.075 3.3497e-17
3958.6 3.3749e-17
3960.125 2.9602e-17
3961.65 1.4174e-17
3963.175 2.9776e-17
3964.7 2.6439e-17
3966.225 2.2292e-17
3967.75 3.1648e-17
3969.275 3.7973e-17
3970.8 2.9758e-17
3972.325 2.3168e-17
3973.85 3.6998e-17
3975.375 3.8391e-17
3976.9 3.3769e-17
3978.425 3.5932e-17
3979.95 3.349e-17
3981.475 3.2873e-17
3983.0 2.7465e-17
3984.525 1.9678e-17
3986.05 3.0424e-17
3987.575 3.917e-17
3989.1 4.298e-17
3990.625 3.0308e-17
3992.15 2.1825e-17
3993.675 3.3135e-17
3995.2 3.7362e-17
3996.725 3.8173e-17
3998.25 3.157e-17
3999.775 2.8884e-17
4001.3 2.8197e-17
4002.825 4.1971e-17
4004.35 3.0907e-17
4005.875 2.8695e-17
4007.4 3.2499e-17
4008.925 3.0598e-17
4010.45 2.6089e-17
4011.975 3.022e-17
4013.5 2.8126e-17
4015.025 2.6962e-17
4016.55 3.2104e-17
4018.075 1.8772e-17
4019.6 1.0288e-17
4021.125 3.7206e-17
4022.65 3.1479e-17
4024.175 2.5074e-17
4025.7 2.5964e-17
4027.225 2.7636e-17
4028.75 1.7239e-17
4030.275 2.0957e-17
4031.8 2.7233e-17
4033.325 4.0156e-17
4034.85 3.7125e-17
4036.375 2.9537e-17
4037.9 3.0766e-17
4039.425 2.7526e-17
4040.95 1.5406e-17
4042.475 1.1431e-17
4044.0 3.4563e-17
4045.525 5.4603e-17
4047.05 7.8025e-17
4048.575 6.9462e-17
4050.1 5.4329e-17
4051.625 4.373e-17
4053.15 3.4302e-17
4054.675 2.1883e-17
4056.2 1.6318e-17
4057.725 2.1535e-17
4059.25 2.238e-17
4060.775 2.8908e-17
4062.3 1.8494e-17
4063.825 3.2297e-17
4065.35 2.953e-17
4066.875 1.73e-17
4068.4 2.7091e-17
4069.925 3.1322e-17
4071.45 3.5381e-17
4072.975 2.5535e-17
4074.5 2.7541e-17
4076.025 2.4173e-17
4077.55 2.644e-17
4079.075 1.9156e-17
4080.6 1.9763e-17
4082.125 2.105e-17
4083.65 2.5302e-17
4085.175 2.5992e-17
4086.7 2.3812e-17
4088.225 2.3361e-17
4089.75 1.6728e-17
4091.275 1.2644e-17
4092.8 1.2319e-17
4094.325 2.5311e-17
4095.85 2.0053e-17
4097.375 1.8574e-17
4098.9 3.0057e-17
4100.425 1.5709e-17
4101.95 1.4832e-17
4103.475 2.6402e-17
4105.0 2.4835e-17
4106.525 2.542e-17
4108.05 1.6388e-17
4109.575 1.0907e-17
4111.1 1.5509e-17
4112.625 2.2708e-17
4114.15 3.4711e-17
4115.675 4.0614e-17
4117.2 3.6008e-17
4118.725 2.8715e-17
4120.25 2.7491e-17
4121.775 3.5907e-17
4123.3 3.4214e-17
4124.825 2.6037e-17
4126.35 1.2847e-17
4127.875 2.1606e-17
4129.4 1.4333e-17
4130.925 1.4284e-17
4132.45 3.9623e-17
4133.975 1.9329e-17
4135.5 2.3084e-17
4137.025 3.2867e-17
4138.55 1.7288e-17
4140.075 1.0213e-17
4141.6 1.9868e-17
4143.125 2.9491e-17
4144.65 3.1792e-17
4146.175 3.1875e-17
4147.7 3.4253e-17
4149.225 3.1209e-17
4150.75 2.4337e-17
4152.275 2.9176e-17
4153.8 3.3305e-17
4155.325 2.8595e-17
4156.85 2.9748e-17
4158.375 2.9961e-17
4159.9 3.2265e-17
4161.425 3.6659e-17
4162.95 3.7411e-17
4164.475 3.8091e-17
4166.0 2.651e-17
4167.525 2.7554e-17
4169.05 3.3288e-17
4170.575 3.6542e-17
4172.1 4.5596e-17
4173.625 3.9548e-17
4175.15 3.1958e-17
4176.675 2.3562e-17
4178.2 3.5718e-17
4179.725 2.9329e-17
4181.25 2.8449e-17
4182.775 5.1814e-17
4184.3 4.8576e-17
4185.825 5.4794e-17
4187.35 4.4659e-17
4188.875 3.8154e-17
4190.4 3.618e-17
4191.925 3.3255e-17
4193.45 3.8579e-17
4194.975 4.5283e-17
4196.5 3.67e-17
4198.025 4.0907e-17
4199.55 3.8018e-17
4201.075 4.1121e-17
4202.6 5.6285e-17
4204.125 4.8838e-17
4205.65 4.3615e-17
4207.175 4.0177e-17
4208.7 4.0463e-17
4210.225 4.6509e-17
4211.75 4.2497e-17
4213.275 4.4423e-17
4214.8 5.8154e-17
4216.325 4.0554e-17
4217.85 4.6027e-17
4219.375 4.908e-17
4220.9 4.1841e-17
4222.425 4.4636e-17
4223.95 5.2108e-17
4225.475 4.5385e-17
4227.0 4.332e-17
4228.525 3.4185e-17
4230.05 4.0706e-17
4231.575 4.7658e-17
4233.1 3.858e-17
4234.625 3.711e-17
4236.15 3.5796e-17
4237.675 4.2495e-17
4239.2 5.7848e-17
4240.725 4.4996e-17
4242.25 3.089e-17
4243.775 3.601e-17
4245.3 3.8236e-17
4246.825 2.778e-17
4248.35 3.7498e-17
4249.875 2.8013e-17
4251.4 2.7616e-17
4252.925 4.873e-17
4254.45 4.9501e-17
4255.975 4.773e-17
4257.5 4.6467e-17
4259.025 4.8531e-17
4260.55 5.1649e-17
4262.075 5.5336e-17
4263.6 5.7244e-17
4265.125 4.7262e-17
4266.65 4.8039e-17
4268.175 5.3174e-17
4269.7 4.9302e-17
4271.225 2.9201e-17
4272.75 3.7161e-17
4274.275 3.8239e-17
4275.8 4.0829e-17
4277.325 4.9669e-17
4278.85 5.1919e-17
4280.375 4.5767e-17
4281.9 3.9505e-17
4283.425 4.2034e-17
4284.95 3.0309e-17
4286.475 3.2571e-17
4288.0 2.87e-17
4289.525 3.0473e-17
4291.05 4.0385e-17
4292.575 4.3918e-17
4294.1 5.0438e-17
4295.625 4.6929e-17
4297.15 4.0416e-17
4298.675 4.1227e-17
4300.2 3.8466e-17
4301.725 4.0302e-17
4303.25 3.7675e-17
4304.775 3.2276e-17
4306.3 3.4083e-17
4307.825 3.1914e-17
4309.35 3.672e-17
4310.875 3.3684e-17
4312.4 3.588e-17
4313.925 4.3094e-17
4315.45 3.9895e-17
4316.975 3.9477e-17
4318.5 4.5808e-17
4320.025 2.7416e-17
4321.55 4.4126e-17
4323.075 5.9942e-17
4324.6 4.472e-17
4326.125 4.06e-17
4327.65 5.1649e-17
4329.175 3.5662e-17
4330.7 5.2167e-17
4332.225 5.5061e-17
4333.75 4.783e-17
4335.275 4.9256e-17
4336.8 3.8146e-17
4338.325 4.149e-17
4339.85 4.2037e-17
4341.375 4.435e-17
4342.9 4.5804e-17
4344.425 3.9286e-17
4345.95 5.0299e-17
4347.475 4.1677e-17
4349.0 2.2362e-17
4350.525 5.3068e-17
4352.05 4.8661e-17
4353.575 3.9634e-17
4355.1 3.4129e-17
4356.625 6.3512e-17
4358.15 1.0349e-16
4359.675 8.8828e-17
4361.2 5.5623e-17
4362.725 2.7976e-18
4364.25 1.0842e-17
4365.775 3.5355e-17
4367.3 3.6502e-17
4368.825 3.7699e-17
4370.35 4.3247e-17
4371.875 3.5436e-17
4373.4 3.4854e-17
4374.925 1.6063e-17
4376.45 3.0403e-17
4377.975 3.9235e-17
4379.5 3.7543e-17
4381.025 1.7322e-17
4382.55 2.8235e-17
4384.075 2.4612e-17
4385.6 2.3716e-17
4387.125 2.8642e-17
4388.65 2.7163e-17
4390.175 3.413e-17
4391.7 2.5811e-17
4393.225 1.9321e-17
4394.75 2.3732e-17
4396.275 3.4094e-17
4397.8 3.0938e-17
4399.325 2.7773e-17
4400.85 3.9321e-17
4402.375 4.5571e-17
4403.9 3.6596e-17
4405.425 2.9338e-17
4406.95 3.9692e-17
4408.475 4.4922e-17
4410.0 3.1875e-17
4411.525 1.1183e-17
4413.05 4.3814e-17
4414.575 5.0349e-17
4416.1 4.3332e-17
4417.625 4.5526e-17
4419.15 3.9063e-17
4420.675 5.5327e-17
4422.2 5.914e-17
4423.725 3.5163e-17
4425.25 4.3512e-17
4426.775 3.8897e-17
4428.3 3.9311e-17
4429.825 3.2188e-17
4431.35 1.7137e-17
4432.875 3.0903e-17
4434.4 4.1673e-17
4435.925 4.1858e-17
4437.45 2.6563e-17
4438.975 4.0184e-17
4440.5 4.7822e-17
4442.025 2.9514e-17
4443.55 2.1454e-17
4445.075 2.7366e-17
4446.6 2.1694e-17
4448.125 2.552e-17
4449.65 3.9334e-17
4451.175 3.5732e-17
4452.7 3.2755e-17
4454.225 4.6572e-17
4455.75 2.6758e-17
4457.275 4.3586e-17
4458.8 4.2372e-17
4460.325 5.1009e-17
4461.85 2.7735e-17
4463.375 2.8382e-17
4464.9 2.8923e-17
4466.425 3.0889e-17
4467.95 5.2059e-17
4469.475 4.2026e-17
4471.0 3.3827e-17
4472.525 2.5943e-17
4474.05 3.3771e-17
4475.575 3.118e-17
4477.1 3.3059e-17
4478.625 4.7825e-17
4480.15 3.9819e-17
4481.675 4.3229e-17
4483.2 3.6671e-17
4484.725 5.4739e-17
4486.25 3.2272e-17
4487.775 2.5644e-17
4489.3 3.7349e-17
4490.825 5.4411e-17
4492.35 4.9231e-17
4493.875 4.1162e-17
4495.4 3.6016e-17
4496.925 4.3316e-17
4498.45 4.0658e-17
4499.975 5.0122e-17
4501.5 3.1215e-17
4503.025 3.656e-17
4504.55 3.8837e-17
4506.075 2.4919e-17
4507.6 3.5147e-17
4509.125 4.668e-17
4510.65 3.8186e-17
4512.175 6.4726e-17
4513.7 3.8738e-17
4515.225 3.6816e-17
4516.75 3.3804e-17
4518.275 3.2602e-17
4519.8 2.7165e-17
4521.325 4.6746e-17
4522.85 4.2347e-17
4524.375 4.3711e-17
4525.9 3.1373e-17
4527.425 2.2095e-17
4528.95 3.0748e-17
4530.475 3.5773e-17
4532.0 3.5964e-17
4533.525 5.5826e-17
4535.05 4.812e-17
4536.575 4.4369e-17
4538.1 4.2586e-17
4539.625 3.983e-17
4541.15 4.0644e-17
4542.675 3.3494e-17
4544.2 4.7167e-17
4545.725 4.4112e-17
4547.25 2.7784e-17
4548.775 4.5489e-17
4550.3 4.2342e-17
4551.825 3.2892e-17
4553.35 4.9206e-17
4554.875 4.8812e-17
4556.4 4.3377e-17
4557.925 4.8004e-17
4559.45 3.1717e-17
4560.975 1.7086e-17
4562.5 4.0318e-17
4564.025 5.3173e-17
4565.55 4.6818e-17
4567.075 5.1751e-17
4568.6 3.7886e-17
4570.125 5.6326e-17
4571.65 4.1844e-17
4573.175 4.2918e-17
4574.7 5.3673e-17
4576.225 4.2402e-17
4577.75 4.0128e-17
4579.275 2.4233e-17
4580.8 3.2507e-17
4582.325 3.7487e-17
4583.85 2.4479e-17
4585.375 3.5975e-17
4586.9 1.8458e-17
4588.425 3.9522e-17
4589.95 4.3328e-17
4591.475 2.3645e-17
4593.0 3.4383e-17
4594.525 4.7782e-17
4596.05 3.813e-17
4597.575 3.1751e-17
4599.1 4.2022e-17
4600.625 5.3142e-17
4602.15 4.947e-17
4603.675 5.2558e-17
4605.2 4.5188e-17
4606.725 4.7794e-17
4608.25 4.1303e-17
4609.775 4.4248e-17
4611.3 4.5102e-17
4612.825 3.52e-17
4614.35 4.5839e-17
4615.875 4.554e-17
4617.4 4.2631e-17
4618.925 3.9016e-17
4620.45 4.6826e-17
4621.975 3.929e-17
4623.5 4.3846e-17
4625.025 3.7117e-17
4626.55 3.7405e-17
4628.075 3.423e-17
4629.6 3.2797e-17
4631.125 3.2217e-17
4632.65 3.2491e-17
4634.175 4.629e-17
4635.7 3.421e-17
4637.225 5.2171e-17
4638.75 4.6552e-17
4640.275 3.7478e-17
4641.8 3.5998e-17
4643.325 3.5688e-17
4644.85 4.6203e-17
4646.375 3.4583e-17
4647.9 3.2394e-17
4649.425 2.8477e-17
4650.95 3.235e-17
4652.475 3.9083e-17
4654.0 4.6832e-17
4655.525 3.971e-17
4657.05 4.11e-17
4658.575 4.2892e-17
4660.1 3.6695e-17
4661.625 3.0489e-17
4663.15 3.1209e-17
4664.675 5.3057e-17
4666.2 4.2721e-17
4667.725 3.8559e-17
4669.25 3.7347e-17
4670.775 4.5866e-17
4672.3 4.0221e-17
4673.825 4.4677e-17
4675.35 3.4121e-17
4676.875 3.0814e-17
4678.4 3.5193e-17
4679.925 3.6977e-17
4681.45 3.4256e-17
4682.975 3.9522e-17
4684.5 3.4693e-17
4686.025 3.8006e-17
4687.55 2.1687e-17
4689.075 3.4651e-17
4690.6 3.5812e-17
4692.125 4.3137e-17
4693.65 4.7151e-17
4695.175 3.7946e-17
4696.7 3.9689e-17
4698.225 4.0306e-17
4699.75 2.7394e-17
4701.275 2.8282e-17
4702.8 2.7085e-17
4704.325 2.6722e-17
4705.85 3.2357e-17
4707.375 3.7864e-17
4708.9 4.9485e-17
4710.425 5.0989e-17
4711.95 4.8311e-17
4713.475 4.6847e-17
4715.0 3.7631e-17
4716.525 3.5931e-17
4718.05 3.2581e-17
4719.575 3.9195e-17
4721.1 4.177e-17
4722.625 4.3233e-17
4724.15 4.5533e-17
4725.675 3.7992e-17
4727.2 3.2471e-17
4728.725 4.4917e-17
4730.25 4.9576e-17
4731.775 4.3249e-17
4733.3 2.344e-17
4734.825 3.7919e-17
4736.35 3.8165e-17
4737.875 2.2486e-17
4739.4 3.369e-17
4740.925 4.9489e-17
4742.45 4.0509e-17
4743.975 4.5787e-17
4745.5 4.4236e-17
4747.025 3.0645e-17
4748.55 3.6201e-17
4750.075 5.0328e-17
4751.6 3.5338e-17
4753.125 2.9357e-17
4754.65 3.1926e-17
4756.175 3.7914e-17
4757.7 4.0406e-17
4759.225 3.2912e-17
4760.75 2.4072e-17
4762.275 3.412e-17
4763.8 3.6143e-17
4765.325 4.1484e-17
4766.85 4.35e-17
4768.375 3.7816e-17
4769.9 3.2814e-17
4771.425 3.4386e-17
4772.95 3.4059e-17
4774.475 2.7419e-17
4776.0 2.553e-17
4777.525 2.8449e-17
4779.05 3.0292e-17
4780.575 4.2289e-17
4782.1 4.1465e-17
4783.625 4.9789e-17
4785.15 4.5758e-17
4786.675 4.2209e-17
4788.2 4.5067e-17
4789.725 3.4641e-17
4791.25 2.926e-17
4792.775 4.1438e-17
4794.3 4.0625e-17
4795.825 3.6394e-17
4797.35 3.5843e-17
4798.875 5.0121e-17
4800.4 4.9197e-17
4801.925 3.0664e-17
4803.45 3.0999e-17
4804.975 3.1907e-17
4806.5 3.1064e-17
4808.025 3.9264e-17
4809.55 3.7825e-17
4811.075 3.612e-17
4812.6 4.0407e-17
4814.125 3.3361e-17
4815.65 4.994e-17
4817.175 4.6018e-17
4818.7 4.3589e-17
4820.225 3.4288e-17
4821.75 3.6137e-17
4823.275 4.4339e-17
4824.8 3.5424e-17
4826.325 4.0287e-17
4827.85 3.9547e-17
4829.375 4.1737e-17
4830.9 4.4259e-17
4832.425 4.2362e-17
4833.95 3.6435e-17
4835.475 3.7347e-17
4837.0 3.9925e-17
4838.525 3.9393e-17
4840.05 4.2711e-17
4841.575 3.9171e-17
4843.1 4.9667e-17
4844.625 3.5286e-17
4846.15 3.0144e-17
4847.675 2.9542e-17
4849.2 2.8359e-17
4850.725 4.4793e-17
4852.25 4.6296e-17
4853.775 2.4762e-17
4855.3 3.0556e-17
4856.825 3.3784e-17
4858.35 3.2559e-17
4859.875 2.7667e-17
4861.4 3.9156e-17
4862.925 3.9624e-17
4864.45 3.4723e-17
4865.975 3.1657e-17
4867.5 3.3024e-17
4869.025 4.1305e-17
4870.55 3.676e-17
4872.075 2.9498e-17
4873.6 2.6046e-17
4875.125 3.543e-17
4876.65 3.5519e-17
4878.175 2.9217e-17
4879.7 4.8453e-17
4881.225 3.0197e-17
4882.75 2.8898e-17
4884.275 2.9346e-17
4885.8 2.3959e-17
4887.325 3.437e-17
4888.85 3.7658e-17
4890.375 3.0655e-17
4891.9 3.0383e-17
4893.425 2.8997e-17
4894.95 2.1437e-17
4896.475 2.6556e-17
4898.0 4.6768e-17
4899.525 4.8953e-17
4901.05 3.4497e-17
4902.575 3.6249e-17
4904.1 4.0889e-17
4905.625 3.0305e-17
4907.15 2.7808e-17
4908.675 3.3356e-17
4910.2 2.9592e-17
4911.725 2.772e-17
4913.25 2.7614e-17
4914.775 3.5451e-17
4916.3 2.4461e-17
4917.825 3.0125e-17
4919.35 3.5991e-17
4920.875 3.3138e-17
4922.4 3.3452e-17
4923.925 1.5664e-17
4925.45 3.1394e-17
4926.975 3.6642e-17
4928.5 2.6344e-17
4930.025 4.1124e-17
4931.55 4.5401e-17
4933.075 3.3153e-17
4934.6 3.0553e-17
4936.125 3.8613e-17
4937.65 3.4084e-17
4939.175 3.0365e-17
4940.7 2.7815e-17
4942.225 2.9076e-17
4943.75 4.1037e-17
4945.275 3.6435e-17
4946.8 2.9572e-17
4948.325 3.2463e-17
4949.85 4.1691e-17
4951.375 2.9954e-17
4952.9 3.6972e-17
4954.425 3.5668e-17
4955.95 2.6849e-17
4957.475 2.6826e-17
4959.0 3.8827e-17
4960.525 4.4706e-17
4962.05 3.9825e-17
4963.575 3.533e-17
4965.1 2.9632e-17
4966.625 3.9398e-17
4968.15 3.1512e-17
4969.675 4.03e-17
4971.2 3.4615e-17
4972.725 2.0559e-17
4974.25 3.461e-17
4975.775 2.5365e-17
4977.3 2.8822e-17
4978.825 4.4418e-17
4980.35 3.5522e-17
4981.875 3.1139e-17
4983.4 3.4676e-17
4984.925 4.6398e-17
4986.45 4.4595e-17
4987.975 4.2367e-17
4989.5 3.9551e-17
4991.025 4.4717e-17
4992.55 3.4617e-17
4994.075 3.1085e-17
4995.6 4.5626e-17
4997.125 4.2093e-17
4998.65 3.1515e-17
5000.175 3.2943e-17
5001.7 3.0464e-17
5003.225 3.7241e-17
5004.75 2.9526e-17
5006.275 3.6476e-17
5007.8 4.3892e-17
5009.325 3.6029e-17
5010.85 4.0098e-17
5012.375 2.4039e-17
5013.9 3.0705e-17
5015.425 3.3909e-17
5016.95 3.2599e-17
5018.475 3.6218e-17
5020.0 2.9758e-17
5021.525 3.7115e-17
5023.05 5.3259e-17
5024.575 4.6915e-17
5026.1 4.1873e-17
5027.625 2.9035e-17
5029.15 4.1577e-17
5030.675 3.3343e-17
5032.2 3.3222e-17
5033.725 3.9868e-17
5035.25 3.5595e-17
5036.775 3.3504e-17
5038.3 2.9269e-17
5039.825 3.3043e-17
5041.35 2.8683e-17
5042.875 3.7013e-17
5044.4 3.1423e-17
5045.925 2.3486e-17
5047.45 2.9017e-17
5048.975 4.0933e-17
5050.5 3.4889e-17
5052.025 2.8209e-17
5053.55 3.5804e-17
5055.075 4.3835e-17
5056.6 4.4146e-17
5058.125 3.501e-17
5059.65 3.0112e-17
5061.175 3.4455e-17
5062.7 3.6925e-17
5064.225 1.5606e-17
5065.75 3.2816e-17
5067.275 3.7249e-17
5068.8 3.1364e-17
5070.325 3.8518e-17
5071.85 6.1141e-17
5073.375 4.6199e-17
5074.9 2.8678e-17
5076.425 3.0909e-17
5077.95 3.2632e-17
5079.475 3.1684e-17
5081.0 3.3277e-17
5082.525 4.4391e-17
5084.05 4.8188e-17
5085.575 4.3487e-17
5087.1 3.6967e-17
5088.625 3.7243e-17
5090.15 3.5613e-17
5091.675 3.7293e-17
5093.2 4.0342e-17
5094.725 3.7585e-17
5096.25 5.0552e-17
5097.775 3.762e-17
5099.3 4.2683e-17
5100.825 3.9779e-17
5102.35 5.4353e-17
5103.875 4.9433e-17
5105.4 4.2211e-17
5106.925 4.3742e-17
5108.45 4.5259e-17
5109.975 2.7742e-17
5111.5 2.5575e-17
5113.025 2.7091e-17
5114.55 3.7465e-17
5116.075 2.8552e-17
5117.6 2.2656e-17
5119.125 3.9613e-17
5120.65 3.5185e-17
5122.175 3.2745e-17
5123.7 4.5591e-17
5125.225 3.6474e-17
5126.75 3.3965e-17
5128.275 2.5162e-17
5129.8 3.584e-17
5131.325 4.5346e-17
5132.85 4.2031e-17
5134.375 3.404e-17
5135.9 3.0027e-17
5137.425 3.8957e-17
5138.95 3.0806e-17
5140.475 3.3136e-17
5142.0 4.4343e-17
5143.525 3.9065e-17
5145.05 3.69e-17
5146.575 4.0936e-17
5148.1 5.7455e-17
5149.625 3.4771e-17
5151.15 2.599e-17
5152.675 4.1556e-17
5154.2 3.2477e-17
5155.725 3.0195e-17
5157.25 5.0801e-17
5158.775 3.6548e-17
5160.3 3.2318e-17
5161.825 3.7322e-17
5163.35 3.8447e-17
5164.875 4.1763e-17
5166.4 3.5828e-17
5167.925 4.3797e-17
5169.45 4.6004e-17
5170.975 4.5931e-17
5172.5 4.357e-17
5174.025 5.1258e-17
5175.55 3.9391e-17
5177.075 4.3841e-17
5178.6 3.6289e-17
5180.125 4.2287e-17
5181.65 4.4553e-17
5183.175 4.0477e-17
5184.7 3.6236e-17
5186.225 3.6326e-17
5187.75 2.9792e-17
5189.275 3.6541e-17
5190.8 3.7304e-17
5192.325 4.9167e-17
5193.85 4.3461e-17
5195.375 6.045e-17
5196.9 5.2035e-17
5198.425 4.2527e-17
5199.95 3.5809e-17
5201.475 2.6525e-17
5203.0 4.3633e-17
5204.525 4.2853e-17
5206.05 4.5228e-17
5207.575 5.1973e-17
5209.1 3.7498e-17
5210.625 2.7496e-17
5212.15 3.7697e-17
5213.675 5.2793e-17
5215.2 4.5892e-17
5216.725 2.5617e-17
5218.25 2.8782e-17
5219.775 2.7348e-17
5221.3 2.6434e-17
5222.825 2.4463e-17
5224.35 3.5855e-17
5225.875 3.0515e-17
5227.4 2.8527e-17
5228.925 3.531e-17
5230.45 4.1624e-17
5231.975 3.1904e-17
5233.5 2.9749e-17
5235.025 3.9274e-17
5236.55 4.5186e-17
5238.075 3.4296e-17
5239.6 4.7371e-17
5241.125 4.7454e-17
5242.65 4.3053e-17
5244.175 3.6333e-17
5245.7 2.6411e-17
5247.225 2.4736e-17
5248.75 3.3931e-17
5250.275 2.8731e-17
5251.8 3.6006e-17
5253.325 4.1474e-17
5254.85 2.4929e-17
5256.375 3.5428e-17
5257.9 3.6301e-17
5259.425 3.4236e-17
5260.95 2.1689e-17
5262.475 1.6526e-17
5264.0 3.3416e-17
5265.525 3.2255e-17
5267.05 3.287e-17
5268.575 3.2688e-17
5270.1 3.6799e-17
5271.625 4.1938e-17
5273.15 3.5546e-17
5274.675 4.1942e-17
5276.2 3.3296e-17
5277.725 3.6943e-17
5279.25 3.0221e-17
5280.775 2.9155e-17
5282.3 3.3258e-17
5283.825 2.3841e-17
5285.35 3.2544e-17
5286.875 3.063e-17
5288.4 2.0199e-17
5289.925 3.846e-17
5291.45 4.2408e-17
5292.975 3.2191e-17
5294.5 3.3246e-17
5296.025 3.7835e-17
5297.55 4.2764e-17
5299.075 4.9982e-17
5300.6 3.6652e-17
5302.125 4.4952e-17
5303.65 2.8211e-17
5305.175 2.6994e-17
5306.7 3.2162e-17
5308.225 4.559e-17
5309.75 5.7728e-17
5311.275 5.3529e-17
5312.8 3.8601e-17
5314.325 3.5969e-17
5315.85 3.6312e-17
5317.375 3.0552e-17
5318.9 4.5833e-17
5320.425 4.2238e-17
5321.95 3.4712e-17
5323.475 3.9148e-17
5325.0 3.9324e-17
5326.525 3.5926e-17
5328.05 3.4483e-17
5329.575 3.2194e-17
5331.1 3.6894e-17
5332.625 5.8526e-17
5334.15 5.3017e-17
5335.675 4.3408e-17
5337.2 4.5364e-17
5338.725 4.6643e-17
5340.25 5.4185e-17
5341.775 5.7801e-17
5343.3 4.4856e-17
5344.825 4.0353e-17
5346.35 5.1552e-17
5347.875 4.6863e-17
5349.4 3.9894e-17
5350.925 3.2112e-17
5352.45 4.5773e-17
5353.975 3.726e-17
5355.5 4.1433e-17
5357.025 5.1468e-17
5358.55 4.2678e-17
5360.075 3.8137e-17
5361.6 4.707e-17
5363.125 2.3351e-17
5364.65 3.506e-17
5366.175 5.5276e-17
5367.7 5.8466e-17
5369.225 4.2999e-17
5370.75 3.6721e-17
5372.275 3.2777e-17
5373.8 3.1413e-17
5375.325 5.514e-17
5376.85 6.2531e-17
5378.375 3.9046e-17
5379.9 3.4897e-17
5381.425 3.5004e-17
5382.95 2.7221e-17
5384.475 2.0977e-17
5386.0 2.2201e-17
5387.525 4.3291e-17
5389.05 4.1456e-17
5390.575 2.9848e-17
5392.1 4.4926e-17
5393.625 3.7753e-17
5395.15 3.6856e-17
5396.675 3.5932e-17
5398.2 4.6408e-17
5399.725 4.0953e-17
5401.25 4.6731e-17
5402.775 3.8347e-17
5404.3 4.4899e-17
5405.825 6.4257e-17
5407.35 5.9914e-17
5408.875 4.4266e-17
5410.4 7.3577e-17
5411.925 5.2794e-17
5413.45 1.7813e-17
5414.975 3.5983e-17
5416.5 2.4092e-17
5418.025 4.1008e-17
5419.55 4.9486e-17
5421.075 4.4768e-17
5422.6 4.9274e-17
5424.125 3.3171e-17
5425.65 3.6413e-17
5427.175 3.3646e-17
5428.7 1.3736e-17
5430.225 4.5594e-17
5431.75 4.2101e-17
5433.275 4.9307e-17
5434.8 4.9189e-17
5436.325 2.9248e-17
5437.85 3.1339e-17
5439.375 3.2779e-17
5440.9 2.8934e-17
5442.425 4.0607e-17
5443.95 3.9146e-17
5445.475 3.8365e-17
5447.0 5.7003e-17
5448.525 4.1638e-17
5450.05 4.2747e-17
5451.575 2.6596e-17
5453.1 2.9794e-17
5454.625 4.3134e-17
5456.15 5.1753e-17
5457.675 2.56e-17
5459.2 5.5576e-17
5460.725 6.6399e-17
5462.25 3.3009e-17
5463.775 3.0297e-17
5465.3 3.928e-17
5466.825 5.9712e-17
5468.35 3.089e-17
5469.875 5.2612e-17
5471.4 6.362e-17
5472.925 5.7795e-17
5474.45 3.4148e-17
5475.975 3.9178e-17
5477.5 3.7107e-17
5479.025 3.2043e-17
5480.55 5.0639e-17
5482.075 2.3782e-17
5483.6 1.1786e-17
5485.125 2.7252e-17
5486.65 5.5893e-17
5488.175 3.0896e-17
5489.7 3.7422e-17
5491.225 3.0024e-17
5492.75 5.3422e-17
5494.275 4.8591e-17
5495.8 3.52e-17
5497.325 5.0859e-17
5498.85 4.39e-17
5500.375 5.0248e-17
5501.9 4.2509e-17
5503.425 4.076e-17
5504.95 3.4893e-17
5506.475 4.6854e-17
5508.0 5.8827e-17
5509.525 5.3706e-17
5511.05 4.1842e-17
5512.575 4.6935e-17
5514.1 5.5775e-17
5515.625 4.247e-17
5517.15 2.9709e-17
5518.675 4.2872e-17
5520.2 3.2849e-17
5521.725 4.2492e-17
5523.25 5.3255e-17
5524.775 4.7574e-17
5526.3 4.2576e-17
5527.825 4.9688e-17
5529.35 4.599e-17
5530.875 2.8723e-17
5532.4 3.6283e-17
5533.925 5.4205e-17
5535.45 5.5725e-17
5536.975 4.6549e-17
5538.5 5.3954e-17
5540.025 3.3492e-17
5541.55 3.3726e-17
5543.075 4.3077e-17
5544.6 4.0673e-17
5546.125 4.8281e-17
5547.65 4.6469e-17
5549.175 5.5353e-17
5550.7 5.1886e-17
5552.225 3.9078e-17
5553.75 4.1167e-17
5555.275 4.5949e-17
5556.8 5.3819e-17
5558.325 2.9538e-17
5559.85 2.8748e-17
5561.375 4.5368e-17
5562.9 4.781e-17
5564.425 3.8883e-17
5565.95 5.3589e-17
5567.475 3.8208e-17
5569.0 3.1595e-17
5570.525 4.7151e-17
5572.05 6.2274e-17
5573.575 7.015e-17
5575.1 4.5847e-17
5576.625 6.0124e-17
5578.15 7.8266e-17
5579.675 4.7873e-17
5581.2 4.5711e-17
5582.725 5.1739e-17
5584.25 3.8149e-17
5585.775 6.0258e-17
5587.3 7.5643e-17
5588.825 6.2333e-17
5590.35 4.771e-17
5591.875 5.5349e-17
5593.4 5.3346e-17
5594.925 5.9761e-17
5596.45 5.2132e-17
5597.975 5.0526e-17
5599.5 5.0551e-17
5601.025 5.3334e-17
5602.55 6.3812e-17
5604.075 5.0163e-17
5605.6 3.6164e-17
5607.125 3.4181e-17
5608.65 3.9781e-17
5610.175 4.071e-17
5611.7 4.638e-17
5613.225 3.6732e-17
5614.75 4.1986e-17
5616.275 6.1536e-17
5617.8 6.2993e-17
5619.325 6.5415e-17
5620.85 4.3945e-17
5622.375 4.0715e-17
5623.9 4.4892e-17
5625.425 4.6278e-17
5626.95 4.0452e-17
5628.475 3.6186e-17
5630.0 4.0421e-17
5631.525 6.242e-17
5633.05 3.8404e-17
5634.575 4.591e-17
5636.1 4.3036e-17
5637.625 3.7674e-17
5639.15 4.7694e-17
5640.675 5.3642e-17
5642.2 5.6908e-17
5643.725 4.881e-17
5645.25 5.7922e-17
5646.775 5.3902e-17
5648.3 3.4321e-17
5649.825 4.11e-17
5651.35 5.6892e-17
5652.875 4.2767e-17
5654.4 4.8757e-17
5655.925 5.1018e-17
5657.45 5.7719e-17
5658.975 6.1863e-17
5660.5 6.3289e-17
5662.025 4.7989e-17
5663.55 6.8289e-17
5665.075 7.167e-17
5666.6 5.5526e-17
5668.125 4.5619e-17
5669.65 5.8629e-17
5671.175 5.8333e-17
5672.7 5.5349e-17
5674.225 6.5084e-17
5675.75 6.8094e-17
5677.275 4.3455e-17
5678.8 4.2374e-17
5680.325 3.9464e-17
5681.85 4.431e-17
5683.375 6.6215e-17
5684.9 7.4965e-17
5686.425 6.8045e-17
5687.95 5.7453e-17
5689.475 6.0942e-17
5691.0 7.5243e-17
5692.525 4.8509e-17
5694.05 5.6558e-17
5695.575 7.8156e-17
5697.1 5.1853e-17
5698.625 4.525e-17
5700.15 5.0871e-17
5701.675 5.0249e-17
5703.2 4.8525e-17
5704.725 3.5718e-17
5706.25 3.8252e-17
5707.775 5.7752e-17
5709.3 8.0884e-17
5710.825 8.0951e-17
5712.35 6.4448e-17
5713.875 5.0591e-17
5715.4 5.04e-17
5716.925 3.807e-17
5718.45 3.0363e-17
5719.975 3.9013e-17
5721.5 4.3076e-17
5723.025 5.6262e-17
5724.55 5.7236e-17
5726.075 6.4039e-17
5727.6 6.0267e-17
5729.125 4.3986e-17
5730.65 3.9975e-17
5732.175 3.6801e-17
5733.7 3.9872e-17
5735.225 5.2039e-17
5736.75 5.476e-17
5738.275 4.729e-17
5739.8 4.5922e-17
5741.325 5.0227e-17
5742.85 5.8456e-17
5744.375 6.2746e-17
5745.9 6.193e-17
5747.425 4.8064e-17
5748.95 4.4857e-17
5750.475 3.6695e-17
5752.0 4.4205e-17
5753.525 5.6375e-17
5755.05 4.2475e-17
5756.575 3.5381e-17
5758.1 4.3058e-17
5759.625 4.3446e-17
5761.15 5.706e-17
5762.675 7.6446e-17
5764.2 6.5389e-17
5765.725 4.6762e-17
5767.25 4.9235e-17
5768.775 4.4799e-17
5770.3 4.6799e-17
5771.825 5.8438e-17
5773.35 5.9096e-17
5774.875 3.874e-17
5776.4 3.9226e-17
5777.925 3.2468e-17
5779.45 3.4969e-17
5780.975 5.1423e-17
5782.5 5.4794e-17
5784.025 4.8941e-17
5785.55 3.9471e-17
5787.075 4.4626e-17
5788.6 5.537e-17
5790.125 6.3647e-17
5791.65 6.0249e-17
5793.175 4.5285e-17
5794.7 4.2973e-17
5796.225 5.138e-17
5797.75 6.5841e-17
5799.275 5.9451e-17
5800.8 4.8301e-17
5802.325 5.5307e-17
5803.85 6.2498e-17
5805.375 5.2694e-17
5806.9 4.6605e-17
5808.425 4.8662e-17
5809.95 5.6566e-17
5811.475 5.3647e-17
5813.0 4.4827e-17
5814.525 4.4596e-17
5816.05 5.3635e-17
5817.575 6.014e-17
5819.1 5.3577e-17
5820.625 5.1496e-17
5822.15 4.3583e-17
5823.675 4.2369e-17
5825.2 6.0583e-17
5826.725 6.1718e-17
5828.25 4.6899e-17
5829.775 4.6659e-17
5831.3 4.2596e-17
5832.825 4.428e-17
5834.35 5.9812e-17
5835.875 4.8774e-17
5837.4 3.6552e-17
5838.925 4.1792e-17
5840.45 4.5849e-17
5841.975 3.4477e-17
5843.5 3.489e-17
5845.025 4.1753e-17
5846.55 4.5867e-17
5848.075 6.4913e-17
5849.6 7.9225e-17
5851.125 7.14e-17
5852.65 5.8926e-17
5854.175 4.675e-17
5855.7 4.9997e-17
5857.225 5.8213e-17
5858.75 5.0543e-17
5860.275 4.7166e-17
5861.8 4.1783e-17
5863.325 5.1065e-17
5864.85 7.8685e-17
5866.375 7.9006e-17
5867.9 5.2388e-17
5869.425 4.4323e-17
5870.95 3.7244e-17
5872.475 3.7781e-17
5874.0 4.4754e-17
5875.525 5.1754e-17
5877.05 6.4136e-17
5878.575 6.9543e-17
5880.1 5.3617e-17
5881.625 3.3276e-17
5883.15 6.612e-17
5884.675 1.0011e-16
5886.2 5.1047e-17
5887.725 5.3987e-17
5889.25 1.4659e-16
5890.775 1.5951e-16
5892.3 8.171e-17
5893.825 3.8707e-17
5895.35 4.4499e-17
5896.875 5.7776e-17
5898.4 3.631e-17
5899.925 1.784e-17
5901.45 2.0096e-17
5902.975 2.8749e-17
5904.5 4.9199e-17
5906.025 5.4979e-17
5907.55 5.649e-17
5909.075 5.4424e-17
5910.6 5.5992e-17
5912.125 4.4274e-17
5913.65 3.3339e-17
5915.175 3.4808e-17
5916.7 3.428e-17
5918.225 3.1297e-17
5919.75 4.3892e-17
5921.275 5.6326e-17
5922.8 6.1921e-17
5924.325 6.5271e-17
5925.85 3.5709e-17
5927.375 2.411e-17
5928.9 4.5895e-17
5930.425 5.9312e-17
5931.95 6.6078e-17
5933.475 6.0228e-17
5935.0 3.8585e-17
5936.525 3.4134e-17
5938.05 5.5807e-17
5939.575 6.6839e-17
5941.1 6.1405e-17
5942.625 4.2575e-17
5944.15 3.0654e-17
5945.675 4.2748e-17
5947.2 6.1982e-17
5948.725 6.3748e-17
5950.25 6.1196e-17
5951.775 6.267e-17
5953.3 5.8866e-17
5954.825 4.6413e-17
5956.35 4.2572e-17
5957.875 5.537e-17
5959.4 4.4805e-17
5960.925 3.5111e-17
5962.45 3.7287e-17
5963.975 3.9596e-17
5965.5 3.4271e-17
5967.025 3.3227e-17
5968.55 3.1834e-17
5970.075 3.9314e-17
5971.6 5.3204e-17
5973.125 5.5149e-17
5974.65 5.6957e-17
5976.175 6.0732e-17
5977.7 4.7324e-17
5979.225 4.726e-17
5980.75 6.5541e-17
5982.275 6.7959e-17
5983.8 5.24e-17
5985.325 3.4938e-17
5986.85 3.0939e-17
5988.375 3.577e-17
5989.9 4.4547e-17
5991.425 4.6517e-17
5992.95 4.8489e-17
5994.475 4.0418e-17
5996.0 2.2072e-17
5997.525 3.3876e-17
5999.05 4.6007e-17
6000.575 3.4243e-17
6002.1 3.215e-17
6003.625 3.9781e-17
6005.15 5.5355e-17
6006.675 6.1278e-17
6008.2 6.4254e-17
6009.725 5.6029e-17
6011.25 4.5394e-17
6012.775 4.8665e-17
6014.3 3.5151e-17
6015.825 2.6892e-17
6017.35 4.0357e-17
6018.875 3.6534e-17
6020.4 3.0957e-17
6021.925 2.6519e-17
6023.45 3.3464e-17
6024.975 4.4918e-17
6026.5 3.9662e-17
6028.025 4.6756e-17
6029.55 6.0698e-17
6031.075 6.2567e-17
6032.6 5.2148e-17
6034.125 3.1898e-17
6035.65 2.8218e-17
6037.175 4.2496e-17
6038.7 4.0102e-17
6040.225 3.9147e-17
6041.75 3.4896e-17
6043.275 2.8272e-17
6044.8 3.3027e-17
6046.325 4.7721e-17
6047.85 5.4597e-17
6049.375 5.0364e-17
6050.9 5.7846e-17
6052.425 6.5365e-17
6053.95 5.8878e-17
6055.475 3.8679e-17
6057.0 2.9547e-17
6058.525 2.7273e-17
6060.05 3.2171e-17
6061.575 4.439e-17
6063.1 3.8479e-17
6064.625 3.5915e-17
6066.15 3.4289e-17
6067.675 2.6949e-17
6069.2 2.48e-17
6070.725 3.6191e-17
6072.25 4.6368e-17
6073.775 2.9902e-17
6075.3 2.4406e-17
6076.825 3.3227e-17
6078.35 4.0873e-17
6079.875 4.9502e-17
6081.4 4.4723e-17
6082.925 3.4262e-17
6084.45 3.7053e-17
6085.975 4.6872e-17
6087.5 4.7005e-17
6089.025 3.5199e-17
6090.55 4.2724e-17
6092.075 4.9202e-17
6093.6 4.2096e-17
6095.125 5.0267e-17
6096.65 5.3577e-17
6098.175 3.6768e-17
6099.7 3.4526e-17
6101.225 4.8252e-17
6102.75 3.8761e-17
6104.275 3.8713e-17
6105.8 5.3425e-17
6107.325 4.767e-17
6108.85 3.9177e-17
6110.375 3.6052e-17
6111.9 2.4053e-17
6113.425 2.5228e-17
6114.95 3.3661e-17
6116.475 2.6819e-17
6118.0 3.2657e-17
6119.525 3.5836e-17
6121.05 2.6533e-17
6122.575 3.0252e-17
6124.1 3.0073e-17
6125.625 3.2132e-17
6127.15 3.3904e-17
6128.675 3.3931e-17
6130.2 4.6086e-17
6131.725 4.1016e-17
6133.25 2.7818e-17
6134.775 3.4477e-17
6136.3 5.0919e-17
6137.825 4.1723e-17
6139.35 2.9399e-17
6140.875 2.8245e-17
6142.4 1.7599e-17
6143.925 1.9567e-17
6145.45 2.8819e-17
6146.975 3.969e-17
6148.5 4.766e-17
6150.025 4.0809e-17
6151.55 3.8167e-17
6153.075 4.0943e-17
6154.6 4.723e-17
6156.125 4.2238e-17
6157.65 3.8737e-17
6159.175 3.8767e-17
6160.7 3.904e-17
6162.225 4.6131e-17
6163.75 3.769e-17
6165.275 3.2714e-17
6166.8 4.1805e-17
6168.325 3.7378e-17
6169.85 4.1213e-17
6171.375 4.8598e-17
6172.9 4.0166e-17
6174.425 2.537e-17
6175.95 3.2802e-17
6177.475 4.0843e-17
6179.0 2.9899e-17
6180.525 2.402e-17
6182.05 1.9694e-17
6183.575 3.2071e-17
6185.1 4.7991e-17
6186.625 4.662e-17
6188.15 3.6616e-17
6189.675 3.8713e-17
6191.2 3.1021e-17
6192.725 2.1092e-17
6194.25 3.2162e-17
6195.775 3.7454e-17
6197.3 3.1476e-17
6198.825 3.9089e-17
6200.35 4.7369e-17
6201.875 4.6832e-17
6203.4 4.2263e-17
6204.925 4.3024e-17
6206.45 4.4584e-17
6207.975 3.6859e-17
6209.5 3.4574e-17
6211.025 3.5172e-17
6212.55 3.742e-17
6214.075 4.3561e-17
6215.6 4.2223e-17
6217.125 3.3515e-17
6218.65 4.2742e-17
6220.175 5.5179e-17
6221.7 4.3704e-17
6223.225 3.468e-17
6224.75 3.9089e-17
6226.275 4.7105e-17
6227.8 4.8067e-17
6229.325 3.3094e-17
6230.85 2.8252e-17
6232.375 3.6774e-17
6233.9 3.6064e-17
6235.425 2.5824e-17
6236.95 2.1524e-17
6238.475 2.9535e-17
6240.0 4.4469e-17
6241.525 5.2321e-17
6243.05 4.4993e-17
6244.575 3.2784e-17
6246.1 2.2757e-17
6247.625 2.0944e-17
6249.15 2.5007e-17
6250.675 3.7806e-17
6252.2 3.9204e-17
6253.725 3.4683e-17
6255.25 3.3452e-17
6256.775 3.762e-17
6258.3 3.8998e-17
6259.825 2.7536e-17
6261.35 3.3746e-17
6262.875 2.919e-17
6264.4 2.0308e-17
6265.925 2.9733e-17
6267.45 3.8494e-17
6268.975 3.7545e-17
6270.5 2.6529e-17
6272.025 3.1073e-17
6273.55 4.1143e-17
6275.075 3.3703e-17
6276.6 2.5089e-17
6278.125 4.26e-17
6279.65 4.7967e-17
6281.175 4.1738e-17
6282.7 4.2882e-17
6284.225 4.834e-17
6285.75 4.3765e-17
6287.275 4.2399e-17
6288.8 3.7247e-17
6290.325 1.9305e-17
6291.85 1.8655e-17
6293.375 2.1601e-17
6294.9 3.9493e-17
6296.425 3.4899e-17
6297.95 4.4126e-17
6299.475 7.2835e-17
6301.0 6.9731e-17
6302.525 5.0995e-17
6304.05 3.526e-17
6305.575 2.9456e-17
6307.1 1.7592e-17
6308.625 2.6048e-17
6310.15 4.2903e-17
6311.675 3.0718e-17
6313.2 2.6598e-17
6314.725 3.0518e-17
6316.25 3.6446e-17
6317.775 3.83e-17
6319.3 3.8218e-17
6320.825 4.8489e-17
6322.35 4.8037e-17
6323.875 3.8236e-17
6325.4 3.7177e-17
6326.925 3.4146e-17
6328.45 2.7795e-17
6329.975 3.7799e-17
6331.5 4.0649e-17
6333.025 4.5145e-17
6334.55 3.7077e-17
6336.075 2.158e-17
6337.6 3.3673e-17
6339.125 3.844e-17
6340.65 3.2629e-17
6342.175 3.0888e-17
6343.7 2.4609e-17
6345.225 2.9988e-17
6346.75 3.5958e-17
6348.275 3.3846e-17
6349.8 3.3867e-17
6351.325 5.3146e-17
6352.85 6.1721e-17
6354.375 3.722e-17
6355.9 3.0636e-17
6357.425 4.8195e-17
6358.95 5.1644e-17
6360.475 3.3989e-17
6362.0 3.8437e-17
6363.525 4.0212e-17
6365.05 3.2845e-17
6366.575 2.9661e-17
6368.1 2.9325e-17
6369.625 3.1452e-17
6371.15 3.2599e-17
6372.675 3.8567e-17
6374.2 4.1577e-17
6375.725 4.7142e-17
6377.25 4.527e-17
6378.775 4.3134e-17
6380.3 4.7029e-17
6381.825 3.8482e-17
6383.35 3.681e-17
6384.875 4.7387e-17
6386.4 5.0315e-17
6387.925 4.2924e-17
6389.45 4.192e-17
6390.975 4.1001e-17
6392.5 5.4636e-17
6394.025 4.7378e-17
6395.55 3.6474e-17
6397.075 3.151e-17
6398.6 3.5612e-17
6400.125 3.3133e-17
6401.65 3.4046e-17
6403.175 2.9576e-17
6404.7 3.6134e-17
6406.225 4.8619e-17
6407.75 4.6714e-17
6409.275 3.4914e-17
6410.8 3.8795e-17
6412.325 4.3962e-17
6413.85 4.445e-17
6415.375 4.52e-17
6416.9 4.6462e-17
6418.425 4.3944e-17
6419.95 4.7827e-17
6421.475 4.9041e-17
6423.0 4.6128e-17
6424.525 3.9053e-17
6426.05 3.6164e-17
6427.575 2.9151e-17
6429.1 3.8412e-17
6430.625 3.705e-17
6432.15 3.2611e-17
6433.675 3.1795e-17
6435.2 2.7232e-17
6436.725 5.0485e-17
6438.25 5.588e-17
6439.775 4.0309e-17
6441.3 3.6474e-17
6442.825 5.6111e-17
6444.35 6.491e-17
6445.875 5.1911e-17
6447.4 4.7579e-17
6448.925 4.5251e-17
6450.45 5.3671e-17
6451.975 5.9081e-17
6453.5 5.97e-17
6455.025 4.868e-17
6456.55 4.2053e-17
6458.075 5.0224e-17
6459.6 5.1165e-17
6461.125 3.9171e-17
6462.65 3.9386e-17
6464.175 5.2166e-17
6465.7 4.2733e-17
6467.225 3.7396e-17
6468.75 3.6167e-17
6470.275 4.5257e-17
6471.8 4.1571e-17
6473.325 4.8807e-17
6474.85 6.1566e-17
6476.375 5.3717e-17
6477.9 4.6004e-17
6479.425 3.4426e-17
6480.95 3.0684e-17
6482.475 4.6137e-17
6484.0 4.766e-17
6485.525 4.1965e-17
6487.05 4.3297e-17
6488.575 4.814e-17
6490.1 5.1135e-17
6491.625 5.6138e-17
6493.15 5.2169e-17
6494.675 4.5767e-17
6496.2 4.9208e-17
6497.725 4.4147e-17
6499.25 2.8381e-17
6500.775 2.7503e-17
6502.3 3.7502e-17
6503.825 4.2636e-17
6505.35 4.6508e-17
6506.875 5.1738e-17
6508.4 5.436e-17
6509.925 5.0261e-17
6511.45 4.8613e-17
6512.975 5.3495e-17
6514.5 4.8015e-17
6516.025 3.9107e-17
6517.55 4.4526e-17
6519.075 5.159e-17
6520.6 4.5819e-17
6522.125 4.0815e-17
6523.65 4.7618e-17
6525.175 4.5713e-17
6526.7 4.827e-17
6528.225 5.3853e-17
6529.75 4.5488e-17
6531.275 4.3771e-17
6532.8 4.6362e-17
6534.325 4.4007e-17
6535.85 4.1301e-17
6537.375 4.161e-17
6538.9 5.2245e-17
6540.425 6.0392e-17
6541.95 5.3935e-17
6543.475 4.6174e-17
6545.0 3.4601e-17
6546.525 4.1671e-17
6548.05 5.8059e-17
6549.575 4.2184e-17
6551.1 3.6774e-17
6552.625 4.5955e-17
6554.15 4.1893e-17
6555.675 3.7945e-17
6557.2 3.1555e-17
6558.725 2.8353e-17
6560.25 3.3755e-17
6561.775 4.216e-17
6563.3 4.9976e-17
6564.825 5.2785e-17
6566.35 4.8662e-17
6567.875 4.2542e-17
6569.4 3.9307e-17
6570.925 2.8723e-17
6572.45 1.7762e-17
6573.975 2.4225e-17
6575.5 3.6334e-17
6577.025 3.4131e-17
6578.55 3.1713e-17
6580.075 4.4029e-17
6581.6 4.892e-17
6583.125 4.5285e-17
6584.65 3.7587e-17
6586.175 2.5684e-17
6587.7 2.9329e-17
6589.225 4.3555e-17
6590.75 4.4174e-17
6592.275 3.3266e-17
6593.8 3.3388e-17
6595.325 3.5937e-17
6596.85 3.9053e-17
6598.375 4.6565e-17
6599.9 4.5042e-17
6601.425 4.1128e-17
6602.95 4.209e-17
6604.475 4.2618e-17
6606.0 4.1216e-17
6607.525 3.8318e-17
6609.05 4.0342e-17
6610.575 3.3269e-17
6612.1 2.5298e-17
6613.625 2.66e-17
6615.15 3.4547e-17
6616.675 3.8755e-17
6618.2 4.1962e-17
6619.725 4.1947e-17
6621.25 4.5449e-17
6622.775 3.8391e-17
6624.3 2.6783e-17
6625.825 2.2715e-17
6627.35 3.0821e-17
6628.875 4.2154e-17
6630.4 4.1098e-17
6631.925 3.5275e-17
6633.45 3.9702e-17
6634.975 4.1046e-17
6636.5 4.0512e-17
6638.025 3.4914e-17
6639.55 3.6134e-17
6641.075 4.0418e-17
6642.6 3.5764e-17
6644.125 3.3819e-17
6645.65 3.1085e-17
6647.175 2.9972e-17
6648.7 4.2457e-17
6650.225 4.469e-17
6651.75 3.8807e-17
6653.275 4.6295e-17
6654.8 5.6211e-17
6656.325 4.4202e-17
6657.85 4.1535e-17
6659.375 4.7257e-17
6660.9 5.3022e-17
6662.425 6.4949e-17
6663.95 5.8077e-17
6665.475 4.1516e-17
6667.0 3.2077e-17
6668.525 3.0027e-17
6670.05 3.1085e-17
6671.575 3.2283e-17
6673.1 3.3603e-17
6674.625 4.04e-17
6676.15 4.493e-17
6677.675 3.7614e-17
6679.2 3.5739e-17
6680.725 3.5342e-17
6682.25 3.3063e-17
6683.775 2.7735e-17
6685.3 3.5044e-17
6686.825 3.6486e-17
6688.35 2.2254e-17
6689.875 2.4717e-17
6691.4 2.5361e-17
6692.925 3.769e-17
6694.45 5.0024e-17
6695.975 4.3567e-17
6697.5 3.8142e-17
6699.025 2.9065e-17
6700.55 2.568e-17
6702.075 2.8265e-17
6703.6 4.0306e-17
6705.125 4.232e-17
6706.65 2.8085e-17
6708.175 3.3118e-17
6709.7 4.4763e-17
6711.225 3.9065e-17
6712.75 3.1234e-17
6714.275 3.9845e-17
6715.8 3.6106e-17
6717.325 3.6589e-17
6718.85 4.5388e-17
6720.375 4.4098e-17
6721.9 4.1061e-17
6723.425 3.8764e-17
6724.95 3.323e-17
6726.475 3.5342e-17
6728.0 3.6367e-17
6729.525 3.6738e-17
6731.05 3.5454e-17
6732.575 3.6616e-17
6734.1 3.6765e-17
6735.625 3.9168e-17
6737.15 3.8261e-17
6738.675 2.5269e-17
6740.2 2.109e-17
6741.725 2.7466e-17
6743.25 3.1149e-17
6744.775 3.4398e-17
6746.3 3.0217e-17
6747.825 3.0179e-17
6749.35 3.4395e-17
6750.875 3.4419e-17
6752.4 3.3051e-17
6753.925 3.6956e-17
6755.45 3.2911e-17
6756.975 3.3175e-17
6758.5 3.4571e-17
6760.025 3.1215e-17
6761.55 3.7323e-17
6763.075 4.2041e-17
6764.6 4.2381e-17
6766.125 4.8428e-17
6767.65 4.6738e-17
6769.175 3.2271e-17
6770.7 2.0037e-17
6772.225 1.7363e-17
6773.75 2.5859e-17
6775.275 3.6316e-17
6776.8 3.7796e-17
6778.325 3.3357e-17
6779.85 3.732e-17
6781.375 4.0142e-17
6782.9 4.0242e-17
6784.425 4.0894e-17
6785.95 3.8036e-17
6787.475 3.496e-17
6789.0 3.1042e-17
6790.525 3.3297e-17
6792.05 3.8931e-17
6793.575 3.5703e-17
6795.1 2.7906e-17
6796.625 2.9579e-17
6798.15 2.6583e-17
6799.675 2.4774e-17
6801.2 3.4735e-17
6802.725 3.9678e-17
6804.25 3.6601e-17
6805.775 2.6677e-17
6807.3 2.1222e-17
6808.825 2.606e-17
6810.35 3.2405e-17
6811.875 3.1801e-17
6813.4 2.7641e-17
6814.925 2.6761e-17
6816.45 2.8563e-17
6817.975 2.6757e-17
6819.5 2.1548e-17
6821.025 1.9258e-17
6822.55 2.5905e-17
6824.075 3.6343e-17
6825.6 3.2186e-17
6827.125 3.03e-17
6828.65 2.9606e-17
6830.175 2.5014e-17
6831.7 2.2516e-17
6833.225 2.1353e-17
6834.75 2.2478e-17
6836.275 1.5885e-17
6837.8 1.3204e-17
6839.325 2.9649e-17
6840.85 3.6829e-17
6842.375 2.7685e-17
6843.9 2.2457e-17
6845.425 2.8384e-17
6846.95 3.6528e-17
6848.475 3.3652e-17
6850.0 2.6945e-17
6851.525 2.4835e-17
6853.05 3.0426e-17
6854.575 2.1551e-17
6856.1 1.9533e-17
6857.625 3.5281e-17
6859.15 3.2132e-17
6860.675 1.5065e-17
6862.2 2.125e-17
6863.725 3.2863e-17
6865.25 2.2746e-17
6866.775 1.0709e-17
6868.3 1.705e-17
6869.825 1.8818e-17
6871.35 2.1482e-17
6872.875 2.0619e-17
6874.4 1.9251e-17
6875.925 2.4511e-17
6877.45 2.853e-17
6878.975 2.9085e-17
6880.5 2.5994e-17
6882.025 3.228e-17
6883.55 3.6868e-17
6885.075 2.4224e-17
6886.6 1.411e-17
6888.125 2.5504e-17
6889.65 3.0122e-17
6891.175 1.9498e-17
6892.7 2.0427e-17
6894.225 3.2286e-17
6895.75 3.3045e-17
6897.275 2.7327e-17
6898.8 2.8038e-17
6900.325 2.3616e-17
6901.85 2.7323e-17
6903.375 3.0056e-17
6904.9 2.1145e-17
6906.425 2.0665e-17
6907.95 3.3169e-17
6909.475 4.1692e-17
6911.0 3.5764e-17
6912.525 2.5627e-17
6914.05 2.6116e-17
6915.575 2.3866e-17
6917.1 2.5859e-17
6918.625 2.7774e-17
6920.15 1.6447e-17
6921.675 1.6272e-17
6923.2 2.7565e-17
6924.725 3.597e-17
6926.25 2.9967e-17
6927.775 3.0161e-17
6929.3 3.5272e-17
6930.825 3.5072e-17
6932.35 3.4383e-17
6933.875 2.6241e-17
6935.4 1.7942e-17
6936.925 1.5721e-17
6938.45 3.1601e-17
6939.975 4.0294e-17
6941.5 3.665e-17
6943.025 3.8625e-17
6944.55 4.0479e-17
6946.075 2.6182e-17
6947.6 2.8931e-17
6949.125 3.0581e-17
6950.65 2.6085e-17
6952.175 2.8177e-17
6953.7 2.2119e-17
6955.225 1.9206e-17
6956.75 1.6985e-17
6958.275 2.3934e-17
6959.8 2.4456e-17
6961.325 2.2883e-17
6962.85 2.9869e-17
6964.375 3.2214e-17
6965.9 3.1931e-17
6967.425 2.9816e-17
6968.95 3.0366e-17
6970.475 2.3826e-17
6972.0 2.1396e-17
6973.525 3.4787e-17
6975.05 3.6122e-17
6976.575 2.9681e-17
6978.1 3.5333e-17
6979.625 3.6747e-17
6981.15 3.5721e-17
6982.675 3.1719e-17
6984.2 2.5729e-17
6985.725 2.7581e-17
6987.25 2.6044e-17
6988.775 2.2621e-17
6990.3 2.3594e-17
6991.825 2.6922e-17
6993.35 2.7423e-17
6994.875 2.9253e-17
6996.4 2.7411e-17
6997.925 1.5126e-17
6999.45 1.0282e-17
7000.975 1.3572e-17
7002.5 1.7703e-17
7004.025 3.1658e-17
7005.55 3.6279e-17
7007.075 3.1728e-17
7008.6 2.921e-17
7010.125 2.8155e-17
7011.65 3.4055e-17
7013.175 3.3127e-17
7014.7 3.3042e-17
7016.225 3.5985e-17
7017.75 2.7943e-17
7019.275 2.5611e-17
7020.8 2.7833e-17
7022.325 2.1804e-17
7023.85 2.1734e-17
7025.375 2.6445e-17
7026.9 2.8852e-17
7028.425 3.2584e-17
7029.95 3.1334e-17
7031.475 2.6772e-17
7033.0 2.6969e-17
7034.525 2.5565e-17
7036.05 2.0559e-17
7037.575 2.3213e-17
7039.1 2.9471e-17
7040.625 3.2029e-17
7042.15 2.7506e-17
7043.675 2.5464e-17
7045.2 3.6813e-17
7046.725 3.0806e-17
7048.25 2.2342e-17
7049.775 2.7299e-17
7051.3 2.7869e-17
7052.825 2.5238e-17
7054.35 2.7202e-17
7055.875 2.8956e-17
7057.4 2.2497e-17
7058.925 2.4397e-17
7060.45 3.3928e-17
7061.975 3.6419e-17
7063.5 3.3436e-17
7065.025 3.2893e-17
7066.55 3.6568e-17
7068.075 3.2001e-17
7069.6 1.7611e-17
7071.125 1.5243e-17
7072.65 2.1625e-17
7074.175 2.2104e-17
7075.7 2.1785e-17
7077.225 2.5757e-17
7078.75 3.1922e-17
7080.275 3.053e-17
7081.8 3.5585e-17
7083.325 3.9016e-17
7084.85 3.5299e-17
7086.375 3.7296e-17
7087.9 3.5569e-17
7089.425 3.9617e-17
7090.95 3.8488e-17
7092.475 2.6029e-17
7094.0 1.9075e-17
7095.525 2.3351e-17
7097.05 2.4218e-17
7098.575 2.7994e-17
7100.1 3.1874e-17
7101.625 3.316e-17
7103.15 2.9167e-17
7104.675 3.2766e-17
7106.2 3.0967e-17
7107.725 2.8199e-17
7109.25 2.6915e-17
7110.775 3.1546e-17
7112.3 3.4535e-17
7113.825 3.2945e-17
7115.35 3.0912e-17
7116.875 2.3865e-17
7118.4 3.5399e-17
7119.925 4.2854e-17
7121.45 3.5366e-17
7122.975 3.8306e-17
7124.5 3.4532e-17
7126.025 2.6559e-17
7127.55 3.4429e-17
7129.075 4.0612e-17
7130.6 3.8458e-17
7132.125 3.8261e-17
7133.65 3.3221e-17
7135.175 2.9713e-17
7136.7 3.634e-17
7138.225 4.2499e-17
7139.75 4.104e-17
7141.275 3.238e-17
7142.8 2.2135e-17
7144.325 2.1766e-17
7145.85 2.6963e-17
7147.375 2.9885e-17
7148.9 2.9313e-17
7150.425 2.8119e-17
7151.95 2.0076e-17
7153.475 2.356e-17
7155.0 3.0511e-17
7156.525 3.0348e-17
7158.05 3.7399e-17
7159.575 3.9268e-17
7161.1 3.9274e-17
7162.625 4.1359e-17
7164.15 3.5673e-17
7165.675 2.5458e-17
7167.2 2.2204e-17
7168.725 2.8028e-17
7170.25 3.6492e-17
7171.775 3.4953e-17
7173.3 2.7577e-17
7174.825 2.3943e-17
7176.35 2.3592e-17
7177.875 2.3994e-17
7179.4 2.5332e-17
7180.925 2.7718e-17
7182.45 2.5618e-17
7183.975 2.733e-17
7185.5 3.1628e-17
7187.025 2.8118e-17
7188.55 2.5066e-17
7190.075 2.8885e-17
7191.6 3.3327e-17
7193.125 3.424e-17
7194.65 3.1883e-17
7196.175 3.2547e-17
7197.7 3.9474e-17
7199.225 3.8297e-17
7200.75 3.1003e-17
7202.275 2.9014e-17
7203.8 3.3512e-17
7205.325 3.3148e-17
7206.85 3.5096e-17
7208.375 4.2794e-17
7209.9 3.8634e-17
7211.425 2.6646e-17
7212.95 1.8243e-17
7214.475 2.0383e-17
7216.0 2.8965e-17
7217.525 3.2438e-17
7219.05 2.9305e-17
7220.575 2.81e-17
7222.1 2.4177e-17
7223.625 2.3228e-17
7225.15 2.474e-17
7226.675 2.4428e-17
7228.2 3.0035e-17
7229.725 2.6126e-17
7231.25 2.4245e-17
7232.775 3.9056e-17
7234.3 4.8061e-17
7235.825 4.4975e-17
7237.35 3.4104e-17
7238.875 2.428e-17
7240.4 2.4105e-17
7241.925 3.5396e-17
7243.45 3.272e-17
7244.975 3.103e-17
7246.5 3.2123e-17
7248.025 2.1521e-17
7249.55 3.1752e-17
7251.075 4.6462e-17
7252.6 4.2223e-17
7254.125 3.9447e-17
7255.65 3.4941e-17
7257.175 2.7825e-17
7258.7 2.5372e-17
7260.225 3.4823e-17
7261.75 3.4956e-17
7263.275 3.0166e-17
7264.8 2.8772e-17
7266.325 1.9935e-17
7267.85 2.1722e-17
7269.375 3.7002e-17
7270.9 3.8179e-17
7272.425 2.2718e-17
7273.95 2.4727e-17
7275.475 3.6959e-17
7277.0 4.2023e-17
7278.525 4.2047e-17
7280.05 2.6916e-17
7281.575 2.1863e-17
7283.1 2.0977e-17
7284.625 1.9602e-17
7286.15 2.5764e-17
7287.675 2.8778e-17
7289.2 2.3586e-17
7290.725 2.0891e-17
7292.25 2.5564e-17
7293.775 3.2299e-17
7295.3 3.3197e-17
7296.825 3.1862e-17
7298.35 2.8205e-17
7299.875 2.5491e-17
7301.4 3.1716e-17
7302.925 3.6665e-17
7304.45 3.7448e-17
7305.975 3.6898e-17
7307.5 2.7688e-17
7309.025 2.7251e-17
7310.55 3.4538e-17
7312.075 2.8326e-17
7313.6 2.7044e-17
7315.125 3.0393e-17
7316.65 3.2787e-17
7318.175 3.7308e-17
7319.7 3.8258e-17
7321.225 3.4152e-17
7322.75 3.3442e-17
7324.275 3.7229e-17
7325.8 3.5418e-17
7327.325 3.343e-17
7328.85 3.2993e-17
7330.375 3.0964e-17
7331.9 3.0924e-17
7333.425 3.3527e-17
7334.95 4.4484e-17
7336.475 4.8286e-17
7338.0 4.6219e-17
7339.525 4.4223e-17
7341.05 3.0126e-17
7342.575 2.3127e-17
7344.1 5.5261e-17
7345.625 7.2243e-17
7347.15 3.898e-17
7348.675 1.9992e-17
7350.2 2.294e-17
7351.725 2.6765e-17
7353.25 2.9241e-17
7354.775 3.5776e-17
7356.3 4.6589e-17
7357.825 3.9669e-17
7359.35 2.5407e-17
7360.875 2.2037e-17
7362.4 3.1877e-17
7363.925 4.1483e-17
7365.45 2.9446e-17
7366.975 2.8555e-17
7368.5 4.3944e-17
7370.025 4.7976e-17
7371.55 4.665e-17
7373.075 4.4414e-17
7374.6 3.1792e-17
7376.125 2.6472e-17
7377.65 3.6601e-17
7379.175 3.4468e-17
7380.7 2.5538e-17
7382.225 2.2077e-17
7383.75 2.3186e-17
7385.275 3.6061e-17
7386.8 3.9383e-17
7388.325 3.0252e-17
7389.85 3.1036e-17
7391.375 3.4371e-17
7392.9 2.2076e-17
7394.425 1.8903e-17
7395.95 3.3367e-17
7397.475 4.1538e-17
7399.0 3.1989e-17
7400.525 2.7574e-17
7402.05 2.5859e-17
7403.575 2.8137e-17
7405.1 3.4395e-17
7406.625 2.55e-17
7408.15 2.3923e-17
7409.675 3.0754e-17
7411.2 2.6584e-17
7412.725 2.6942e-17
7414.25 3.2101e-17
7415.775 3.6207e-17
7417.3 3.2165e-17
7418.825 3.7408e-17
7420.35 3.1312e-17
7421.875 2.7814e-17
7423.4 3.8919e-17
7424.925 3.9131e-17
7426.45 3.0178e-17
7427.975 2.8313e-17
7429.5 3.8443e-17
7431.025 4.4387e-17
7432.55 3.2957e-17
7434.075 1.932e-17
7435.6 2.0382e-17
7437.125 2.8171e-17
7438.65 4.0551e-17
7440.175 4.043e-17
7441.7 2.5734e-17
7443.225 1.7856e-17
7444.75 2.258e-17
7446.275 3.1042e-17
7447.8 3.0818e-17
7449.325 2.839e-17
7450.85 2.8923e-17
7452.375 3.3749e-17
7453.9 2.9428e-17
7455.425 2.5836e-17
7456.95 2.8037e-17
7458.475 3.5217e-17
7460.0 3.8088e-17
7461.525 3.5718e-17
7463.05 3.2663e-17
7464.575 2.7141e-17
7466.1 2.8835e-17
7467.625 3.3169e-17
7469.15 3.5239e-17
7470.675 3.8679e-17
7472.2 4.1304e-17
7473.725 4.1805e-17
7475.25 3.6595e-17
7476.775 3.3185e-17
7478.3 3.3054e-17
7479.825 3.5333e-17
7481.35 3.168e-17
7482.875 2.7238e-17
7484.4 3.8097e-17
7485.925 3.9902e-17
7487.45 3.8167e-17
7488.975 4.2072e-17
7490.5 3.286e-17
7492.025 3.3979e-17
7493.55 4.5843e-17
7495.075 4.3109e-17
7496.6 3.6516e-17
7498.125 4.0105e-17
7499.65 4.1331e-17
7501.175 3.0327e-17
7502.7 2.1839e-17
7504.225 2.9098e-17
7505.75 3.5736e-17
7507.275 3.0133e-17
7508.8 3.3324e-17
7510.325 3.7202e-17
7511.85 3.4243e-17
7513.375 3.7727e-17
7514.9 3.5369e-17
7516.425 3.7948e-17
7517.95 5.1687e-17
7519.475 4.3749e-17
7521.0 3.5806e-17
7522.525 4.2287e-17
7524.05 4.283e-17
7525.575 4.0597e-17
7527.1 3.5521e-17
7528.625 2.9456e-17
7530.15 2.9731e-17
7531.675 3.1218e-17
7533.2 3.3731e-17
7534.725 3.4966e-17
7536.25 3.4174e-17
7537.775 2.6849e-17
7539.3 2.7648e-17
7540.825 3.0442e-17
7542.35 2.7797e-17
7543.875 3.4559e-17
7545.4 3.4905e-17
7546.925 3.1792e-17
7548.45 3.3631e-17
7549.975 3.1616e-17
7551.5 3.262e-17
7553.025 2.9698e-17
7554.55 2.5647e-17
7556.075 3.1989e-17
7557.6 2.9312e-17
7559.125 2.7994e-17
7560.65 2.302e-17
7562.175 2.5158e-17
7563.7 3.5072e-17
7565.225 4.5409e-17
7566.75 4.3777e-17
7568.275 3.2399e-17
7569.8 2.3224e-17
7571.325 2.9351e-17
7572.85 2.8451e-17
7574.375 2.3182e-17
7575.9 2.4972e-17
7577.425 2.7595e-17
7578.95 3.0181e-17
7580.475 3.0032e-17
7582.0 1.6679e-17
7583.525 9.58e-18
7585.05 1.5785e-17
7586.575 3.2811e-17
7588.1 3.62e-17
7589.625 2.7052e-17
7591.15 1.2127e-17
7592.675 8.3561e-18
7594.2 9.6601e-18
7595.725 1.5264e-17
7597.25 1.4243e-17
7598.775 2.2337e-18
7600.3 -2.8672e-18
7601.825 9.8458e-19
7603.35 2.9461e-18
7604.875 4.9472e-18
7606.4 8.424e-18
7607.925 7.0383e-18
7609.45 2.4948e-18
7610.975 6.7091e-18
7612.5 1.7439e-17
7614.025 2.6284e-17
7615.55 2.3002e-17
7617.075 1.4482e-17
7618.6 1.4439e-17
7620.125 1.5162e-17
7621.65 1.8513e-17
7623.175 1.8408e-17
7624.7 1.0794e-17
7626.225 1.2047e-17
7627.75 1.7771e-17
7629.275 1.4718e-17
7630.8 5.6384e-18
7632.325 2.7124e-18
7633.85 7.0147e-18
7635.375 6.4691e-18
7636.9 7.664e-18
7638.425 9.3152e-18
7639.95 9.7724e-18
7641.475 1.4831e-17
7643.0 1.1317e-17
7644.525 1.4265e-17
7646.05 2.6176e-17
7647.575 2.7387e-17
7649.1 1.981e-17
7650.625 1.587e-17
7652.15 1.6701e-17
7653.675 2.0713e-17
7655.2 2.7706e-17
7656.725 3.1552e-17
7658.25 2.7822e-17
7659.775 2.06e-17
7661.3 2.0663e-17
7662.825 2.4184e-17
7664.35 2.3482e-17
7665.875 2.0226e-17
7667.4 1.8542e-17
7668.925 2.6019e-17
7670.45 2.7024e-17
7671.975 2.6521e-17
7673.5 2.443e-17
7675.025 2.227e-17
7676.55 2.2554e-17
7678.075 2.0572e-17
7679.6 2.4213e-17
7681.125 2.3323e-17
7682.65 2.5035e-17
7684.175 2.5837e-17
7685.7 1.949e-17
7687.225 1.9946e-17
7688.75 2.4027e-17
7690.275 2.8504e-17
7691.8 2.5285e-17
7693.325 2.2402e-17
7694.85 2.3066e-17
7696.375 2.8343e-17
7697.9 2.0409e-17
7699.425 1.6388e-17
7700.95 2.637e-17
7702.475 2.911e-17
7704.0 1.9523e-17
7705.525 2.5232e-17
7707.05 3.7202e-17
7708.575 3.6689e-17
7710.1 3.7887e-17
7711.625 3.9744e-17
7713.15 3.1737e-17
7714.675 1.5735e-17
7716.2 1.0914e-17
7717.725 1.9442e-17
7719.25 2.4365e-17
7720.775 2.5723e-17
7722.3 2.1743e-17
7723.825 1.7675e-17
7725.35 2.3867e-17
7726.875 2.991e-17
7728.4 2.9036e-17
7729.925 2.5271e-17
7731.45 3.0566e-17
7732.975 3.3382e-17
7734.5 1.7819e-17
7736.025 1.0725e-17
7737.55 1.6566e-17
7739.075 1.9697e-17
7740.6 1.5391e-17
7742.125 1.8832e-17
7743.65 4.114e-17
7745.175 5.1553e-17
7746.7 4.3889e-17
7748.225 3.458e-17
7749.75 2.1406e-17
7751.275 1.5301e-17
7752.8 2.7787e-17
7754.325 3.5685e-17
7755.85 2.7894e-17
7757.375 2.4956e-17
7758.9 2.9335e-17
7760.425 3.3306e-17
7761.95 2.8781e-17
7763.475 2.0221e-17
7765.0 1.5701e-17
7766.525 2.4331e-17
7768.05 3.7575e-17
7769.575 3.7338e-17
7771.1 2.5446e-17
7772.625 2.3499e-17
7774.15 1.7858e-17
7775.675 1.6552e-17
7777.2 2.8201e-17
7778.725 3.4107e-17
7780.25 2.7996e-17
7781.775 1.2253e-17
7783.3 1.2455e-17
7784.825 2.7002e-17
7786.35 2.9769e-17
7787.875 2.7093e-17
7789.4 2.9024e-17
7790.925 1.6316e-17
7792.45 3.0057e-18
7793.975 2.0883e-17
7795.5 2.3184e-17
7797.025 1.9585e-17
7798.55 1.7196e-17
7800.075 2.0998e-17
7801.6 2.6152e-17
7803.125 3.996e-17
7804.65 4.175e-17
7806.175 1.6641e-17
7807.7 8.2223e-18
7809.225 2.4497e-17
7810.75 2.496e-17
7812.275 9.2869e-18
7813.8 1.9913e-17
7815.325 4.2339e-17
7816.85 2.8801e-17
7818.375 2.8683e-17
7819.9 3.6282e-17
7821.425 4.0488e-17
7822.95 2.9682e-17
7824.475 8.1367e-18
7826.0 1.2313e-17
7827.525 1.8617e-17
7829.05 2.2902e-17
7830.575 2.7137e-17
7832.1 2.0372e-17
7833.625 1.6157e-17
7835.15 2.7771e-17
7836.675 3.9128e-17
7838.2 3.556e-17
7839.725 3.1634e-17
7841.25 3.1746e-17
7842.775 2.9936e-17
7844.3 1.9683e-17
7845.825 2.8302e-17
7847.35 4.9117e-17
7848.875 4.0433e-17
7850.4 1.8936e-17
7851.925 2.4228e-17
7853.45 4.2442e-17
7854.975 3.5767e-17
7856.5 3.2711e-17
7858.025 3.2805e-17
7859.55 3.0715e-17
7861.075 3.6701e-17
7862.6 3.374e-17
7864.125 2.6414e-17
7865.65 2.7423e-17
7867.175 3.3084e-17
7868.7 3.908e-17
7870.225 3.5245e-17
7871.75 2.4111e-17
7873.275 1.3788e-17
7874.8 1.16e-17
7876.325 2.6571e-17
7877.85 3.107e-17
7879.375 2.3761e-17
7880.9 2.1696e-17
7882.425 2.1762e-17
7883.95 2.2165e-17
7885.475 2.8878e-17
7887.0 4.3734e-17
7888.525 3.9975e-17
7890.05 1.4943e-17
7891.575 6.788e-18
7893.1 1.2576e-17
7894.625 1.336e-17
7896.15 2.1549e-17
7897.675 2.2937e-17
7899.2 2.2915e-17
7900.725 2.3912e-17
7902.25 2.2085e-17
7903.775 2.3232e-17
7905.3 2.8696e-17
7906.825 4.8753e-17
7908.35 5.7485e-17
7909.875 3.9447e-17
7911.4 1.7401e-17
7912.925 1.4793e-17
7914.45 2.4094e-17
7915.975 2.5847e-17
7917.5 2.0904e-17
7919.025 2.1026e-17
7920.55 1.4085e-17
7922.075 2.1976e-17
7923.6 2.85e-17
7925.125 3.1674e-17
7926.65 2.7681e-17
7928.175 2.9493e-17
7929.7 2.5329e-17
7931.225 1.4301e-17
7932.75 1.7243e-17
7934.275 3.1473e-17
7935.8 2.8425e-17
7937.325 2.5601e-17
7938.85 1.9614e-17
7940.375 2.23e-17
7941.9 3.3658e-17
7943.425 2.3265e-17
7944.95 9.3986e-18
7946.475 1.6917e-17
7948.0 2.2646e-17
7949.525 2.4638e-17
7951.05 1.4639e-17
7952.575 1.1762e-17
7954.1 1.617e-17
7955.625 8.0645e-18
7957.15 1.4173e-17
7958.675 4.3634e-17
7960.2 2.4651e-17
7961.725 5.5191e-18
7963.25 2.4077e-17
7964.775 1.3042e-17
7966.3 -8.6819e-18
7967.825 -2.9227e-18
7969.35 1.6553e-17
7970.875 2.7431e-17
7972.4 2.3091e-17
7973.925 2.1121e-17
7975.45 2.2153e-17
7976.975 2.1837e-17
7978.5 3.2617e-17
7980.025 3.8039e-17
7981.55 2.8179e-17
7983.075 1.9136e-17
7984.6 1.5165e-17
7986.125 1.6327e-17
7987.65 1.7522e-17
7989.175 1.0842e-17
7990.7 1.3253e-17
7992.225 3.2329e-17
7993.75 4.905e-17
7995.275 3.3197e-17
7996.8 9.0485e-18
7998.325 1.8644e-17
7999.85 2.3584e-17
8001.375 2.2625e-17
8002.9 2.5374e-17
8004.425 2.36e-17
8005.95 1.9304e-17
8007.475 1.9013e-17
8009.0 2.4803e-17
8010.525 3.0545e-17
8012.05 2.9312e-17
8013.575 2.7673e-17
8015.1 2.483e-17
8016.625 2.055e-17
8018.15 1.9306e-17
8019.675 2.4636e-17
8021.2 3.5005e-17
8022.725 2.4531e-17
8024.25 1.9626e-17
8025.775 4.0451e-17
8027.3 3.9526e-17
8028.825 1.9052e-17
8030.35 1.9746e-17
8031.875 1.6667e-17
8033.4 1.8991e-17
8034.925 2.5516e-17
8036.45 1.7841e-17
8037.975 2.4034e-17
8039.5 2.8091e-17
8041.025 2.7902e-17
8042.55 2.5939e-17
8044.075 2.0589e-17
8045.6 2.5646e-17
8047.125 3.2274e-17
8048.65 2.8005e-17
8050.175 1.7554e-17
8051.7 1.6454e-17
8053.225 1.9249e-17
8054.75 1.6303e-17
8056.275 2.0254e-17
8057.8 2.4829e-17
8059.325 2.4384e-17
8060.85 2.1755e-17
8062.375 2.5737e-17
8063.9 1.6364e-17
8065.425 8.1243e-18
8066.95 6.0692e-18
8068.475 1.5731e-17
8070.0 2.4556e-17
8071.525 2.7059e-17
8073.05 1.4696e-17
8074.575 5.3853e-18
8076.1 7.0101e-18
8077.625 1.7944e-17
8079.15 2.4391e-17
8080.675 2.9237e-17
8082.2 3.2432e-17
8083.725 2.2251e-17
8085.25 1.9947e-17
8086.775 2.6326e-17
8088.3 1.9259e-17
8089.825 1.4159e-17
8091.35 2.0805e-17
8092.875 2.4345e-17
8094.4 2.0989e-17
8095.925 2.0404e-17
8097.45 1.1436e-17
8098.975 6.8077e-18
8100.5 1.8979e-17
8102.025 2.4236e-17
8103.55 1.771e-17
8105.075 1.5197e-17
8106.6 2.2743e-17
8108.125 2.6821e-17
8109.65 2.1909e-17
8111.175 2.0577e-17
8112.7 2.0173e-17
8114.225 1.0219e-17
8115.75 8.3063e-18
8117.275 1.522e-17
8118.8 1.5263e-17
8120.325 9.3971e-18
8121.85 1.0252e-17
8123.375 1.3736e-17
8124.9 1.1597e-17
8126.425 1.1847e-17
8127.95 1.7123e-17
8129.475 2.5274e-17
8131.0 2.6438e-17
8132.525 2.2571e-17
8134.05 1.7423e-17
8135.575 1.4216e-17
8137.1 1.6141e-17
8138.625 1.4352e-17
8140.15 1.291e-17
8141.675 1.7318e-17
8143.2 1.4703e-17
8144.725 1.7636e-17
8146.25 2.2143e-17
8147.775 1.2114e-17
8149.3 1.2652e-17
8150.825 1.5672e-17
8152.35 1.6987e-17
8153.875 1.3533e-17
8155.4 1.3243e-17
8156.925 1.7066e-17
8158.45 1.7754e-17
8159.975 1.4001e-17
8161.5 8.2414e-18
8163.025 1.3469e-17
8164.55 1.2867e-17
8166.075 4.2876e-18
8167.6 9.2539e-18
8169.125 1.1929e-17
8170.65 1.039e-17
8172.175 1.6123e-17
8173.7 1.7431e-17
8175.225 1.3719e-17
8176.75 9.8021e-18
8178.275 1.8052e-17
8179.8 2.8062e-17
8181.325 3.1528e-17
8182.85 3.2911e-17
8184.375 2.3271e-17
8185.9 1.428e-17
8187.425 1.9854e-17
8188.95 3.3048e-17
8190.475 3.0781e-17
8192.0 2.2081e-17
8193.525 2.1904e-17
8195.05 2.4676e-17
8196.575 2.6484e-17
8198.1 2.5711e-17
8199.625 2.5665e-17
8201.15 2.4623e-17
8202.675 1.949e-17
8204.2 1.8137e-17
8205.725 1.6681e-17
8207.25 1.5721e-17
8208.775 2.3665e-17
8210.3 2.5681e-17
8211.825 1.629e-17
8213.35 1.4993e-17
8214.875 2.4193e-17
8216.4 2.5079e-17
8217.925 1.8968e-17
8219.45 1.485e-17
8220.975 1.4278e-17
8222.5 1.87e-17
8224.025 1.8427e-17
8225.55 1.4842e-17
8227.075 7.7374e-18
8228.6 7.6342e-18
8230.125 2.0451e-17
8231.65 2.1796e-17
8233.175 2.1478e-17
8234.7 2.1923e-17
8236.225 9.3397e-18
8237.75 8.2047e-18
8239.275 2.1021e-17
8240.8 2.3283e-17
8242.325 1.541e-17
8243.85 1.3533e-17
8245.375 1.3637e-17
8246.9 1.5957e-17
8248.425 1.0487e-17
8249.95 4.3783e-18
8251.475 8.556e-18
8253.0 1.6226e-17
8254.525 1.5887e-17
8256.05 1.0279e-17
8257.575 1.4872e-17
8259.1 1.544e-17
8260.625 1.5377e-17
8262.15 1.6715e-17
8263.675 1.3311e-17
8265.2 1.8786e-17
8266.725 1.7431e-17
8268.25 1.3686e-17
8269.775 1.332e-17
8271.3 1.6651e-17
8272.825 2.0251e-17
8274.35 2.4096e-17
8275.875 2.5116e-17
8277.4 1.9077e-17
8278.925 2.21e-17
8280.45 2.1926e-17
8281.975 3.3855e-17
8283.5 2.8963e-17
8285.025 1.0557e-17
8286.55 2.458e-18
8288.075 1.5e-18
8289.6 1.245e-17
8291.125 1.1304e-17
8292.65 9.4001e-18
8294.175 4.7585e-18
8295.7 1.6564e-18
8297.225 2.8415e-17
8298.75 3.9596e-17
8300.275 1.9685e-17
8301.8 9.3895e-18
8303.325 9.2933e-18
8304.85 1.0906e-17
8306.375 1.7123e-17
8307.9 2.5824e-17
8309.425 2.2604e-17
8310.95 2.0103e-17
8312.475 1.8572e-17
8314.0 9.1729e-18
8315.525 1.0055e-17
8317.05 1.622e-17
8318.575 1.5341e-17
8320.1 1.0406e-17
8321.625 6.1308e-18
8323.15 1.1037e-17
8324.675 1.0688e-17
8326.2 7.1327e-18
8327.725 1.4145e-17
8329.25 1.285e-17
8330.775 7.745e-18
8332.3 1.6968e-17
8333.825 2.7717e-17
8335.35 1.6136e-17
8336.875 4.6022e-19
8338.4 2.7213e-17
8339.925 4.9639e-17
8341.45 2.7983e-17
8342.975 2.6679e-17
8344.5 3.4362e-17
8346.025 3.7708e-17
8347.55 2.4984e-17
8349.075 -2.7695e-19
8350.6 1.8851e-17
8352.125 4.942e-17
8353.65 5.2809e-17
8355.175 2.9777e-17
8356.7 6.8572e-18
8358.225 1.3431e-17
8359.75 2.619e-17
8361.275 2.1513e-17
8362.8 9.7436e-18
8364.325 1.0341e-17
8365.85 1.7107e-17
8367.375 1.671e-17
8368.9 1.1764e-17
8370.425 8.1076e-18
8371.95 1.5385e-17
8373.475 1.5593e-17
8375.0 8.0757e-18
8376.525 1.557e-17
8378.05 2.6373e-17
8379.575 1.5728e-17
8381.1 1.5714e-17
8382.625 2.2915e-17
8384.15 2.0511e-17
8385.675 1.0317e-17
8387.2 5.6074e-18
8388.725 9.3376e-18
8390.25 1.5672e-17
8391.775 2.0041e-17
8393.3 3.62e-17
8394.825 2.6782e-17
8396.35 2.2306e-17
8397.875 2.2286e-17
8399.4 2.271e-17
8400.925 1.885e-17
8402.45 -3.7472e-18
8403.975 3.1155e-18
8405.5 7.7975e-18
8407.025 7.0292e-18
8408.55 1.4401e-17
8410.075 2.0795e-17
8411.6 8.6959e-18
8413.125 1.0188e-17
8414.65 2.2262e-17
8416.175 2.2814e-17
8417.7 1.2256e-17
8419.225 1.1387e-17
8420.75 9.388e-18
8422.275 8.793e-18
8423.8 3.5597e-17
8425.325 3.7718e-17
8426.85 2.9896e-17
8428.375 3.6826e-17
8429.9 3.3661e-17
8431.425 3.2732e-17
8432.95 1.359e-17
8434.475 2.8082e-18
8436.0 2.0614e-17
8437.525 2.3507e-17
8439.05 1.7327e-17
8440.575 2.0927e-17
8442.1 2.721e-17
8443.625 1.7875e-17
8445.15 1.2973e-17
8446.675 2.0144e-17
8448.2 1.1817e-17
8449.725 2.226e-18
8451.25 1.3001e-17
8452.775 2.7142e-17
8454.3 2.2979e-17
8455.825 5.1584e-18
8457.35 3.3895e-18
8458.875 2.3283e-17
8460.4 4.1122e-17
8461.925 1.749e-17
8463.45 2.0952e-17
8464.975 2.8155e-17
8466.5 2.7106e-17
8468.025 1.2625e-17
8469.55 2.9869e-18
8471.075 1.6262e-17
8472.6 1.4739e-17
8474.125 9.6431e-18
8475.65 1.0966e-17
8477.175 1.2362e-17
8478.7 1.284e-17
8480.225 1.3953e-17
8481.75 1.707e-17
8483.275 1.8517e-17
8484.8 1.4374e-17
8486.325 1.7937e-17
8487.85 2.9319e-17
8489.375 3.3276e-17
8490.9 2.5655e-17
8492.425 1.1473e-17
8493.95 5.2254e-18
8495.475 4.7894e-18
8497.0 9.8501e-19
8498.525 2.6229e-17
8500.05 3.8688e-17
8501.575 1.1043e-17
8503.1 2.8091e-18
8504.625 1.3284e-17
8506.15 1.6127e-17
8507.675 5.9193e-18
8509.2 3.5287e-18
8510.725 1.3459e-17
8512.25 2.1701e-17
8513.775 2.0997e-17
8515.3 1.7001e-17
8516.825 8.8998e-18
8518.35 5.1578e-18
8519.875 7.5341e-18
8521.4 1.3856e-17
8522.925 2.1925e-17
8524.45 2.512e-17
8525.975 1.871e-17
8527.5 1.2596e-17
8529.025 1.3403e-17
8530.55 1.8172e-17
8532.075 2.6816e-17
8533.6 2.5561e-17
8535.125 1.7692e-17
8536.65 1.0795e-17
8538.175 8.9329e-18
8539.7 1.327e-17
8541.225 1.4602e-17
8542.75 1.5196e-17
8544.275 1.0348e-17
8545.8 8.6413e-18
8547.325 1.6082e-17
8548.85 1.8211e-17
8550.375 1.3487e-17
8551.9 1.1836e-17
8553.425 2.0236e-17
8554.95 1.6007e-17
8556.475 1.0622e-17
8558.0 1.6356e-17
8559.525 1.4439e-17
8561.05 1.0463e-17
8562.575 1.1035e-17
8564.1 1.3542e-17
8565.625 1.6079e-17
8567.15 1.8196e-17
8568.675 1.465e-17
8570.2 1.5736e-17
8571.725 1.755e-17
8573.25 1.8418e-17
8574.775 2.0108e-17
8576.3 7.5918e-18
8577.825 5.9915e-19
8579.35 4.7336e-18
8580.875 1.5309e-17
8582.4 1.4013e-17
8583.925 1.2438e-17
8585.45 1.639e-17
8586.975 2.0041e-17
8588.5 1.7824e-17
8590.025 1.2989e-17
8591.55 4.016e-18
8593.075 1.6745e-18
8594.6 1.2803e-17
8596.125 1.902e-17
8597.65 2.4244e-17
8599.175 2.5594e-17
8600.7 1.6099e-17
8602.225 1.2929e-17
8603.75 2.0947e-17
8605.275 1.8515e-17
8606.8 2.0712e-17
8608.325 1.8958e-17
8609.85 1.1209e-17
8611.375 1.7227e-17
8612.9 2.7075e-17
8614.425 7.5423e-18
8615.95 -1.5121e-18
8617.475 6.0361e-18
8619.0 1.2807e-17
8620.525 1.5259e-17
8622.05 9.6477e-18
8623.575 9.6222e-18
8625.1 1.7301e-17
8626.625 1.7681e-17
8628.15 1.0454e-17
8629.675 1.36e-17
8631.2 5.5577e-18
8632.725 -3.2681e-18
8634.25 9.2296e-18
8635.775 1.7573e-17
8637.3 1.4642e-17
8638.825 1.7868e-17
8640.35 2.0277e-17
8641.875 1.414e-17
8643.4 1.1078e-17
8644.925 1.9814e-17
8646.45 2.55e-17
8647.975 1.9017e-17
8649.5 1.4787e-17
8651.025 2.1297e-17
8652.55 2.6301e-17
8654.075 2.3683e-17
8655.6 2.6771e-17
8657.125 2.2722e-17
8658.65 2.0412e-17
8660.175 2.8833e-17
8661.7 2.5717e-17
8663.225 2.635e-17
8664.75 3.0194e-17
8666.275 2.6067e-17
8667.8 9.0075e-18
8669.325 8.9944e-18
8670.85 1.3557e-17
8672.375 5.027e-18
8673.9 1.2061e-17
8675.425 2.4844e-17
8676.95 2.5035e-17
8678.475 1.9359e-17
8680.0 2.1184e-17
8681.525 2.086e-17
8683.05 2.1456e-17
8684.575 1.7033e-17
8686.1 9.0934e-18
8687.625 8.9996e-18
8689.15 1.5168e-17
8690.675 1.8573e-17
8692.2 1.4637e-17
8693.725 1.6151e-17
8695.25 1.6687e-17
8696.775 1.2187e-17
8698.3 1.422e-17
8699.825 1.921e-17
8701.35 2.1788e-17
8702.875 1.6174e-17
8704.4 1.6372e-17
8705.925 1.801e-17
8707.45 1.6302e-17
8708.975 1.6201e-17
8710.5 2.8729e-17
8712.025 2.3091e-17
8713.55 1.1082e-17
8715.075 1.4268e-17
8716.6 1.4838e-17
8718.125 9.1786e-18
8719.65 9.1055e-18
8721.175 1.9672e-17
8722.7 2.1052e-17
8724.225 2.0194e-17
8725.75 2.3622e-17
8727.275 1.7642e-17
8728.8 1.9547e-17
8730.325 2.4419e-17
8731.85 2.2139e-17
8733.375 1.7914e-17
8734.9 1.0951e-17
8736.425 1.5486e-17
8737.95 2.1702e-17
8739.475 1.8107e-17
8741.0 1.8663e-17
8742.525 1.5444e-17
8744.05 1.0764e-17
8745.575 1.2438e-17
8747.1 1.3417e-17
8748.625 1.0116e-17
8750.15 6.5859e-18
8751.675 9.8255e-18
8753.2 1.5913e-17
8754.725 2.8908e-17
8756.25 3.2113e-17
8757.775 1.8081e-17
8759.3 2.4784e-17
8760.825 4.4699e-17
8762.35 3.6613e-17
8763.875 5.4706e-18
8765.4 -8.9626e-18
8766.925 -3.5897e-18
8768.45 1.0857e-17
8769.975 1.017e-17
8771.5 2.006e-17
8773.025 3.5396e-17
8774.55 2.8692e-17
8776.075 2.8922e-17
8777.6 6.1915e-18
8779.125 1.2503e-17
8780.65 2.2442e-17
8782.175 7.0723e-18
8783.7 1.0005e-17
8785.225 2.1999e-17
8786.75 2.6974e-17
8788.275 1.459e-17
8789.8 1.5383e-17
8791.325 2.6362e-17
8792.85 1.9364e-17
8794.375 1.4565e-17
8795.9 2.189e-17
8797.425 1.8505e-17
8798.95 1.3665e-17
8800.475 1.1236e-17
8802.0 9.0478e-18
8803.525 2.3508e-17
8805.05 3.1953e-17
8806.575 2.5023e-17
8808.1 1.2298e-17
8809.625 1.2475e-17
8811.15 2.6373e-17
8812.675 2.9802e-17
8814.2 2.5014e-17
8815.725 1.8283e-17
8817.25 6.3323e-18
8818.775 1.1184e-17
8820.3 5.8341e-17
8821.825 5.5258e-17
8823.35 2.9226e-17
8824.875 3.5178e-17
8826.4 5.9233e-17
8827.925 4.7691e-17
8829.45 1.19e-17
8830.975 6.9303e-18
8832.5 2.2702e-17
8834.025 4.1301e-17
8835.55 3.9065e-17
8837.075 2.7861e-17
8838.6 1.0811e-17
8840.125 2.659e-18
8841.65 9.6207e-18
8843.175 1.8814e-17
8844.7 1.9634e-17
8846.225 1.4803e-17
8847.75 1.8491e-17
8849.275 1.3094e-17
8850.8 2.632e-18
8852.325 2.0112e-18
8853.85 8.9935e-18
8855.375 1.2611e-17
8856.9 7.403e-18
8858.425 6.5838e-18
8859.95 1.7104e-17
8861.475 3.7711e-17
8863.0 3.5418e-17
8864.525 2.2647e-17
8866.05 3.3403e-17
8867.575 3.3066e-17
8869.1 1.3886e-17
8870.625 6.4494e-18
8872.15 1.4812e-17
8873.675 1.0221e-17
8875.2 -2.734e-18
8876.725 -4.5233e-18
8878.25 2.2415e-17
8879.775 6.4039e-17
8881.3 4.5027e-17
8882.825 2.3721e-17
8884.35 3.6941e-17
8885.875 3.2338e-17
8887.4 4.6049e-18
8888.925 -2.3703e-17
8890.45 -8.1871e-19
8891.975 1.5351e-17
8893.5 1.8744e-17
8895.025 2.3203e-17
8896.55 3.3637e-17
8898.075 2.6744e-17
8899.6 1.5883e-17
8901.125 3.7253e-17
8902.65 4.7072e-17
8904.175 4.2254e-17
8905.7 1.4068e-17
8907.225 5.5264e-18
8908.75 1.1313e-17
8910.275 7.6655e-18
8911.8 1.5501e-17
8913.325 3.0161e-17
8914.85 4.5291e-17
8916.375 6.3553e-18
8917.9 -3.0228e-19
8919.425 4.2551e-17
8920.95 4.6398e-17
8922.475 4.2466e-18
8924.0 -2.3951e-18
8925.525 1.2437e-17
8927.05 2.0719e-17
8928.575 2.0252e-17
8930.1 1.9119e-17
8931.625 2.2132e-17
8933.15 1.5735e-17
8934.675 4.9866e-18
8936.2 9.1571e-18
8937.725 2.716e-17
8939.25 3.3512e-17
8940.775 2.7635e-17
8942.3 1.7318e-17
8943.825 1.8056e-17
8945.35 1.6492e-17
8946.875 4.1981e-18
8948.4 -3.6267e-18
8949.925 -2.8266e-18
8951.45 2.439e-17
8952.975 2.4511e-17
8954.5 6.4949e-18
8956.025 1.9747e-17
8957.55 4.1368e-17
8959.075 3.8258e-17
8960.6 5.7148e-20
8962.125 -9.8498e-18
8963.65 1.0556e-17
8965.175 1.3652e-17
8966.7 1.714e-17
8968.225 1.8143e-17
8969.75 1.3325e-17
8971.275 1.2929e-17
8972.8 1.3561e-17
8974.325 1.2658e-17
8975.85 1.3317e-17
8977.375 1.683e-17
8978.9 1.1839e-17
8980.425 6.8017e-18
8981.95 2.0133e-17
8983.475 2.3145e-17
8985.0 3.9875e-18
8986.525 -6.322e-18
8988.05 7.9549e-18
8989.575 1.8672e-17
8991.1 1.07e-17
8992.625 4.9429e-18
8994.15 1.1639e-17
8995.675 1.7947e-17
8997.2 1.4846e-18
8998.725 -3.6018e-18
9000.25 -2.1702e-18
9001.775 2.1587e-17
9003.3 1.4331e-17
9004.825 -9.5694e-18
9006.35 8.0226e-18
9007.875 1.7123e-17
9009.4 1.7375e-17
9010.925 1.6288e-17
9012.45 1.8132e-17
9013.975 2.2133e-17
9015.5 1.5781e-17
9017.025 1.216e-17
9018.55 1.0275e-17
9020.075 9.7299e-18
9021.6 1.5154e-17
9023.125 1.7043e-17
9024.65 6.91e-18
9026.175 6.0659e-18
9027.7 4.8892e-18
9029.225 3.5072e-18
9030.75 1.3887e-17
9032.275 1.7656e-17
9033.8 1.7003e-17
9035.325 1.6054e-17
9036.85 1.6631e-17
9038.375 2.2427e-17
9039.9 1.6357e-17
9041.425 1.1699e-17
9042.95 2.1886e-17
9044.475 2.7001e-17
9046.0 1.5129e-17
9047.525 1.0232e-17
9049.05 2.4028e-17
9050.575 2.6846e-17
9052.1 1.0549e-17
9053.625 7.5456e-18
9055.15 1.1257e-17
9056.675 1.4796e-17
9058.2 1.2832e-17
9059.725 8.6628e-18
9061.25 1.2158e-17
9062.775 1.2635e-17
9064.3 1.623e-17
9065.825 2.1214e-17
9067.35 1.6708e-17
9068.875 1.18e-17
9070.4 1.2386e-17
9071.925 1.2144e-17
9073.45 1.5837e-17
9074.975 1.9315e-17
9076.5 1.3291e-17
9078.025 1.1996e-17
9079.55 1.4729e-17
9081.075 1.9778e-17
9082.6 1.7979e-17
9084.125 1.1783e-17
9085.65 1.6466e-17
9087.175 1.4706e-17
9088.7 1.8241e-17
9090.225 2.2031e-17
9091.75 1.4456e-17
9093.275 1.7038e-17
9094.8 1.4113e-17
9096.325 1.1016e-17
9097.85 1.8254e-17
9099.375 2.603e-17
9100.9 2.2988e-17
9102.425 2.097e-17
9103.95 1.4919e-17
9105.475 8.9016e-18
9107.0 1.7525e-17
9108.525 1.851e-17
9110.05 1.1465e-17
9111.575 1.802e-17
9113.1 2.0324e-17
9114.625 1.859e-17
9116.15 1.4839e-17
9117.675 1.3997e-17
9119.2 1.8201e-17
9120.725 1.9506e-17
9122.25 1.9095e-17
9123.775 1.7157e-17
9125.3 1.4717e-17
9126.825 7.1215e-18
9128.35 -2.6975e-18
9129.875 4.0196e-18
9131.4 1.3352e-17
9132.925 1.2376e-17
9134.45 1.1844e-17
9135.975 1.0486e-17
9137.5 1.4259e-17
9139.025 2.1509e-17
9140.55 2.4357e-17
9142.075 1.8915e-17
9143.6 1.4393e-17
9145.125 2.3382e-17
9146.65 2.5721e-17
9148.175 1.778e-17
9149.7 1.8653e-17
9151.225 2.1004e-17
9152.75 1.8676e-17
9154.275 1.8436e-17
9155.8 2.0951e-17
9157.325 2.3099e-17
9158.85 2.3694e-17
9160.375 2.3015e-17
9161.9 2.2326e-17
9163.425 2.1691e-17
9164.95 2.1256e-17
9166.475 1.7838e-17
9168.0 1.3313e-17
9169.525 1.3669e-17
9171.05 1.5701e-17
9172.575 1.7678e-17
9174.1 2.0237e-17
9175.625 1.6431e-17
9177.15 1.1465e-17
9178.675 1.1713e-17
9180.2 1.1983e-17
9181.725 1.3293e-17
9183.25 1.6122e-17
9184.775 1.8863e-17
9186.3 1.6361e-17
9187.825 1.5521e-17
9189.35 1.7164e-17
9190.875 1.3928e-17
9192.4 7.1764e-18
9193.925 1.2794e-17
9195.45 1.5066e-17
9196.975 9.1207e-18
9198.5 1.8395e-17
9200.025 2.3332e-17
9201.55 2.0994e-17
9203.075 2.2058e-17
9204.6 2.2176e-17
9206.125 1.8615e-17
9207.65 1.4852e-17
9209.175 1.7587e-17
9210.7 1.8332e-17
9212.225 1.5414e-17
9213.75 1.418e-17
9215.275 2.105e-17
9216.8 2.4538e-17
9218.325 3.3197e-17
9219.85 3.6917e-17
9221.375 3.3813e-17
9222.9 2.1889e-17
9224.425 1.1215e-17
9225.95 6.3168e-18
9227.475 5.6623e-18
9229.0 1.7124e-17
9230.525 3.0821e-17
9232.05 2.1192e-17
9233.575 8.2799e-18
9235.1 7.059e-18
9236.625 1.4612e-17
9238.15 1.816e-17
9239.675 1.3401e-17
9241.2 1.241e-17
9242.725 1.3236e-17
9244.25 1.3528e-17
9245.775 1.4514e-17
9247.3 1.5461e-17
9248.825 1.3742e-17
9250.35 1.5974e-17
9251.875 1.7233e-17
9253.4 1.0195e-17
9254.925 1.6299e-17
9256.45 2.5158e-17
9257.975 1.9757e-17
9259.5 1.3424e-17
9261.025 6.3468e-18
9262.55 4.9639e-18
9264.075 1.0158e-17
9265.6 1.3572e-17
9267.125 1.7869e-17
9268.65 2.1684e-17
9270.175 2.1134e-17
9271.7 2.3564e-17
9273.225 2.3997e-17
9274.75 1.6772e-17
9276.275 7.9234e-18
9277.8 5.4023e-18
9279.325 1.3193e-17
9280.85 1.4082e-17
9282.375 1.6296e-17
9283.9 2.6729e-17
9285.425 1.9514e-17
9286.95 8.8807e-18
9288.475 1.0974e-17
9290.0 9.0063e-18
9291.525 1.1779e-17
9293.05 1.6848e-17
9294.575 1.0078e-17
9296.1 9.4022e-18
9297.625 1.399e-17
9299.15 1.6809e-17
9300.675 3.3197e-17
9302.2 2.9234e-17
9303.725 3.0751e-18
9305.25 -5.0042e-19
9306.775 4.824e-17
9308.3 7.9668e-17
9309.825 3.5469e-17
9311.35 1.7199e-17
9312.875 3.5318e-17
9314.4 1.9164e-17
9315.925 -2.028e-17
9317.45 1.7443e-18
9318.975 2.0382e-17
9320.5 -9.6271e-18
9322.025 9.5057e-18
9323.55 4.902e-17
9325.075 4.1629e-17
9326.6 -8.184e-19
9328.125 -4.4287e-18
9329.65 -1.1332e-18
9331.175 1.7125e-17
9332.7 2.3795e-17
9334.225 -2.6556e-18
9335.75 5.8174e-18
9337.275 2.9699e-17
9338.8 1.4837e-17
9340.325 8.1279e-19
9341.85 9.1574e-18
9343.375 1.3838e-17
9344.9 2.3124e-17
9346.425 2.7244e-17
9347.95 2.1406e-17
9349.475 1.5988e-17
9351.0 9.0436e-18
9352.525 7.6194e-18
9354.05 1.5365e-17
9355.575 1.7551e-17
9357.1 1.4114e-17
9358.625 1.2847e-17
9360.15 1.0419e-17
9361.675 1.1366e-17
9363.2 2.2178e-17
9364.725 1.8351e-17
9366.25 -8.8573e-18
9367.775 -2.7709e-18
9369.3 7.2589e-17
9370.825 1.017e-16
9372.35 5.8259e-17
9373.875 5.3483e-17
9375.4 5.3987e-17
9376.925 1.908e-17
9378.45 1.813e-17
9379.975 1.1175e-17
9381.5 -9.0263e-18
9383.025 9.3303e-18
9384.55 1.987e-17
9386.075 2.1614e-17
9387.6 1.8886e-17
9389.125 1.635e-17
9390.65 1.5298e-17
9392.175 9.9572e-18
9393.7 5.4484e-18
9395.225 1.8417e-17
9396.75 2.2475e-17
9398.275 1.4928e-17
9399.8 2.9066e-17
9401.325 3.9429e-17
9402.85 2.3419e-17
9404.375 7.1045e-18
9405.9 1.058e-17
9407.425 1.9672e-17
9408.95 2.3989e-17
9410.475 2.4773e-17
9412.0 2.2492e-17
9413.525 3.2605e-17
9415.05 3.3922e-17
9416.575 1.3439e-17
9418.1 1.7807e-17
9419.625 2.8263e-17
9421.15 1.7196e-17
9422.675 -5.23e-18
9424.2 -6.764e-18
9425.725 -1.0186e-18
9427.25 7.3824e-19
9428.775 8.2368e-18
9430.3 8.7802e-18
9431.825 3.9799e-17
9433.35 9.9872e-17
9434.875 7.5396e-17
9436.4 1.3214e-17
9437.925 3.9793e-18
9439.45 4.7051e-17
9440.975 2.1874e-17
9442.5 -3.0259e-17
9444.025 -1.8486e-17
9445.55 7.3081e-18
9447.075 1.3712e-17
9448.6 1.0239e-17
9450.125 1.002e-17
9451.65 2.157e-17
9453.175 5.2858e-17
9454.7 3.7869e-17
9456.225 1.1998e-17
9457.75 2.3978e-17
9459.275 3.1006e-17
9460.8 -2.7774e-18
9462.325 -1.1144e-17
9463.85 5.2063e-18
9465.375 1.4153e-17
9466.9 9.8301e-19
9468.425 -5.6781e-18
9469.95 4.4799e-17
9471.475 8.0126e-17
9473.0 5.3783e-17
9474.525 4.6596e-17
9476.05 5.4851e-17
9477.575 4.6295e-17
9479.1 2.0556e-18
9480.625 -3.1886e-17
9482.15 -6.5037e-18
9483.675 7.9331e-18
9485.2 5.8878e-18
9486.725 1.3142e-17
9488.25 2.0797e-17
9489.775 2.1845e-17
9491.3 1.0725e-17
9492.825 2.3043e-18
9494.35 2.4811e-18
9495.875 1.6887e-17
9497.4 3.9948e-17
9498.925 3.2669e-17
9500.45 7.7468e-18
9501.975 1.0313e-17
9503.5 2.561e-17
9505.025 6.2358e-18
9506.55 -8.9046e-18
9508.075 1.5322e-17
9509.6 1.0435e-17
9511.125 5.5665e-18
9512.65 1.9108e-17
9514.175 4.5251e-17
9515.7 3.2772e-17
9517.225 1.1342e-18
9518.75 8.975e-18
9520.275 1.5996e-17
9521.8 -1.0178e-17
9523.325 -2.0322e-17
9524.85 7.7847e-18
9526.375 2.0273e-17
9527.9 1.6802e-17
9529.425 1.7478e-17
9530.95 1.0433e-17
9532.475 -8.9231e-19
9534.0 2.0835e-18
9535.525 1.2372e-17
9537.05 1.8001e-17
9538.575 9.7524e-18
9540.1 1.1977e-17
9541.625 1.587e-17
9543.15 8.6671e-18
9544.675 1.2336e-17
9546.2 3.394e-17
9547.725 2.5971e-17
9549.25 1.115e-17
9550.775 1.254e-17
9552.3 1.9815e-17
9553.825 1.3913e-17
9555.35 2.4529e-19
9556.875 -6.518e-18
9558.4 -7.4977e-18
9559.925 1.5315e-17
9561.45 7.7674e-17
9562.975 7.1151e-17
9564.5 4.357e-18
9566.025 -3.2068e-18
9567.55 2.6018e-17
9569.075 2.4718e-17
9570.6 -3.6914e-18
9572.125 -4.9296e-18
9573.65 8.4632e-18
9575.175 6.0449e-18
9576.7 7.7137e-18
9578.225 1.5057e-17
9579.75 1.0204e-17
9581.275 5.8562e-18
9582.8 1.2342e-17
9584.325 1.6063e-17
9585.85 1.3687e-17
9587.375 1.4813e-17
9588.9 1.4562e-17
9590.425 1.4938e-17
9591.95 1.8713e-17
9593.475 1.7915e-17
9595.0 1.2101e-17
9596.525 9.9138e-18
9598.05 7.8054e-18
9599.575 2.8973e-18
9601.1 1.8411e-17
9602.625 2.4831e-17
9604.15 8.34e-18
9605.675 6.7728e-20
9607.2 6.2012e-18
9608.725 1.8347e-17
9610.25 1.4565e-17
9611.775 4.3234e-18
9613.3 3.8167e-18
9614.825 1.4909e-17
9616.35 1.9931e-17
9617.875 2.2947e-17
9619.4 2.02e-17
9620.925 1.5965e-17
9622.45 1.0953e-17
9623.975 1.1226e-17
9625.5 1.776e-17
9627.025 2.1664e-17
9628.55 2.3846e-17
9630.075 2.1565e-17
9631.6 1.964e-17
9633.125 1.0766e-17
9634.65 5.5343e-18
9636.175 9.2997e-18
9637.7 1.6968e-17
9639.225 1.5811e-17
9640.75 1.4861e-17
9642.275 1.2746e-17
9643.8 1.3024e-17
9645.325 1.1218e-17
9646.85 8.5257e-18
9648.375 1.9991e-17
9649.9 1.9902e-17
9651.425 8.5238e-18
9652.95 8.6279e-18
9654.475 1.6724e-17
9656.0 2.4261e-17
9657.525 9.9702e-18
9659.05 -3.3722e-18
9660.575 -6.717e-18
9662.1 -8.8552e-18
9663.625 1.7513e-17
9665.15 2.5293e-17
9666.675 1.3103e-17
9668.2 1.6099e-17
9669.725 1.214e-18
9671.25 -9.3061e-19
9672.775 7.5138e-18
9674.3 2.4912e-17
9675.825 3.4067e-17
9677.35 5.3887e-18
9678.875 -1.2344e-18
9680.4 8.5915e-18
9681.925 1.3109e-17
9683.45 1.7317e-17
9684.975 2.2875e-17
9686.5 7.9556e-18
9688.025 -3.5606e-18
9689.55 1.0349e-17
9691.075 1.9105e-17
9692.6 3.6477e-17
9694.125 4.3734e-17
9695.65 9.368e-18
9697.175 -1.4972e-18
9698.7 1.1545e-17
9700.225 7.6467e-19
9701.75 -7.9328e-18
9703.275 -5.7315e-18
9704.8 7.7705e-18
9706.325 2.9953e-17
9707.85 2.3983e-17
9709.375 5.1811e-18
9710.9 1.3717e-17
9712.425 2.0979e-17
9713.95 2.9664e-17
9715.475 5.1781e-17
9717.0 3.0078e-17
9718.525 2.4771e-17
9720.05 6.8878e-17
9721.575 4.5197e-17
9723.1 -1.2117e-18
9724.625 2.8351e-18
9726.15 1.0649e-17
9727.675 1.2148e-17
9729.2 6.8663e-18
9730.725 -3.6401e-18
9732.25 -6.9858e-18
9733.775 8.4261e-18
9735.3 2.0561e-17
9736.825 1.4028e-17
9738.35 4.1219e-18
9739.875 1.7047e-17
9741.4 4.384e-18
9742.925 2.1949e-19
9744.45 1.5824e-17
9745.975 1.6494e-17
9747.5 1.423e-17
9749.025 9.6529e-18
9750.55 4.0882e-18
9752.075 -1.4771e-18
9753.6 5.8068e-18
9755.125 1.5125e-17
9756.65 1.7898e-17
9758.175 1.2715e-17
9759.7 3.2435e-18
9761.225 1.1234e-17
9762.75 1.6911e-17
9764.275 2.0533e-17
9765.8 6.3954e-18
9767.325 8.8012e-18
9768.85 1.8486e-17
9770.375 1.73e-17
9771.9 9.033e-18
9773.425 1.0616e-17
9774.95 6.8945e-18
9776.475 4.7931e-18
9778.0 2.8603e-18
9779.525 4.9663e-18
9781.05 -2.7565e-18
9782.575 -1.4967e-17
9784.1 3.8631e-17
9785.625 9.7672e-17
9787.15 4.219e-17
9788.675 -1.2337e-17
9790.2 -2.5896e-18
9791.725 1.2949e-17
9793.25 -1.9796e-18
9794.775 -6.7109e-18
9796.3 3.7177e-17
9797.825 5.1951e-17
9799.35 3.3694e-17
9800.875 2.6301e-17
9802.4 8.2829e-18
9803.925 -4.8304e-18
9805.45 9.6838e-18
9806.975 2.831e-17
9808.5 3.2253e-17
9810.025 2.0935e-17
9811.55 1.3835e-17
9813.075 1.1361e-17
9814.6 -4.587e-20
9816.125 1.689e-18
9817.65 1.4053e-17
9819.175 1.4075e-17
9820.7 1.0696e-17
9822.225 1.9578e-17
9823.75 2.3e-17
9825.275 1.5398e-17
9826.8 2.0063e-17
9828.325 2.6471e-17
9829.85 1.7751e-17
9831.375 1.2535e-17
9832.9 1.1076e-17
9834.425 7.1418e-18
9835.95 1.1193e-17
9837.475 1.5577e-17
9839.0 2.8807e-18
9840.525 4.5943e-18
9842.05 2.9407e-17
9843.575 3.6009e-17
9845.1 1.3778e-17
9846.625 1.8206e-17
9848.15 1.8889e-17
9849.675 1.3385e-17
9851.2 1.1226e-18
9852.725 -3.4471e-18
9854.25 1.4037e-17
9855.775 2.7038e-17
9857.3 2.171e-17
9858.825 1.4204e-17
9860.35 1.6694e-17
9861.875 4.3231e-18
9863.4 -1.4283e-17
9864.925 2.2423e-17
9866.45 8.4689e-17
9867.975 8.0648e-17
9869.5 3.6213e-17
9871.025 -1.4198e-17
9872.55 3.4122e-18
9874.075 1.8866e-18
9875.6 -2.3486e-17
9877.125 -1.2166e-17
9878.65 7.5845e-18
9880.175 1.972e-17
9881.7 1.2584e-17
9883.225 2.2512e-17
9884.75 2.0209e-17
9886.275 -9.7742e-18
9887.8 -7.0878e-18
9889.325 2.6176e-17
9890.85 3.309e-17
9892.375 6.3566e-18
9893.9 2.1583e-18
9895.425 2.5264e-17
9896.95 1.1251e-17
9898.475 -9.712e-19
9900.0 8.6222e-18
9901.525 6.5984e-18
9903.05 -2.7127e-18
9904.575 2.7636e-18
9906.1 -4.3555e-18
9907.625 2.0323e-17
9909.15 7.8296e-17
9910.675 4.4526e-17
9912.2 -2.8971e-17
9913.725 -4.7494e-17
9915.25 -2.1849e-18
9916.775 2.846e-17
9918.3 -5.2527e-18
9919.825 -9.996e-18
9921.35 2.134e-17
9922.875 2.5507e-17
9924.4 1.6004e-17
9925.925 2.2937e-17
9927.45 2.566e-17
9928.975 2.5125e-17
9930.5 2.9864e-17
9932.025 6.9597e-18
9933.55 -1.4607e-17
9935.075 2.1146e-17
9936.6 3.8579e-17
9938.125 9.4092e-18
9939.65 6.8663e-17
9941.175 1.1752e-16
9942.7 7.366e-17
9944.225 2.0388e-17
9945.75 -2.0762e-17
9947.275 5.5704e-18
9948.8 3.1143e-18
9950.325 -3.0915e-18
9951.85 4.2181e-17
9953.375 -9.7515e-18
9954.9 -5.003e-18
9956.425 8.3831e-17
9957.95 8.6938e-17
9959.475 5.27e-17
9961.0 2.1903e-17
9962.525 2.6922e-17
9964.05 3.0118e-17
9965.575 -3.1619e-18
9967.1 1.3341e-17
9968.625 5.2706e-18
9970.15 6.4752e-18
9971.675 1.5008e-17
9973.2 1.1578e-17
9974.725 1.7987e-18
9976.25 -6.1081e-18
9977.775 1.2737e-17
9979.3 2.4974e-17
9980.825 2.2978e-17
9982.35 6.866e-18
9983.875 3.0287e-18
9985.4 1.5589e-17
9986.925 1.3287e-17
9988.45 2.1172e-17
9989.975 2.6153e-17
9991.5 1.4078e-17
9993.025 1.3018e-17
9994.55 3.4787e-17
9996.075 2.9504e-17
9997.6 1.6997e-17
9999.125 2.6973e-17
10000.65 1.739e-17
