# Wavelength Flux
# STATUS = PUBLIC
# OBJECT = 2020aup
# TELESCOPE = P200
# INSTRUMENT =
# DATE-OBS = 2020.0225
# MJD =
# EXPTIME =
# SLIT =
# DISPERSER =
# SOURCE = 2023ApJ...943...41C
# FILTER =
# FLUX_STANDARD =
# EXTINCTION_CORRECTED = False
# PHOTOMETRY_CALIBRATED =
# FLUX_UNITS = erg/s/cm^2/Angstroms
# QUALITY =
# MIN_WAVE =
# MAX_WAVE =
# COMMENT =
3300.0 -9.7857e-17
3301.535 3.0128e-17
3303.071 2.7843e-17
3304.606 -4.1852e-17
3306.141 -7.1499e-17
3307.677 1.2977e-16
3309.212 1.7902e-16
3310.747 7.9882e-17
3312.282 8.2388e-17
3313.818 1.0076e-16
3315.353 1.2095e-18
3316.888 1.9818e-18
3318.424 1.9643e-17
3319.959 1.4962e-17
3321.494 1.8208e-17
3323.03 1.4601e-17
3324.565 -3.4572e-17
3326.1 -5.1817e-17
3327.636 4.8274e-18
3329.171 -3.7679e-17
3330.706 7.4674e-17
3332.242 1.3352e-16
3333.777 8.1413e-17
3335.312 5.0323e-17
3336.848 1.0039e-16
3338.383 9.0616e-17
3339.918 1.0713e-16
3341.454 6.7707e-17
3342.989 -1.1729e-17
3344.524 -5.1673e-17
3346.06 2.6187e-18
3347.595 1.1159e-17
3349.13 2.8625e-17
3350.666 -1.1681e-17
3352.201 5.684e-17
3353.736 7.94e-17
3355.271 9.4592e-17
3356.807 2.4655e-17
3358.342 3.8067e-17
3359.877 5.2889e-17
3361.413 5.7645e-17
3362.948 4.2173e-17
3364.483 8.1322e-17
3366.019 6.8682e-17
3367.554 7.8671e-17
3369.089 6.1186e-17
3370.625 -2.105e-17
3372.16 1.6955e-17
3373.695 1.1611e-17
3375.23 7.7161e-17
3376.766 2.0056e-17
3378.301 2.5969e-17
3379.836 1.0588e-18
3381.372 5.4597e-17
3382.907 2.7833e-17
3384.442 1.6977e-17
3385.978 7.3359e-17
3387.513 5.3602e-17
3389.048 2.957e-18
3390.584 1.4648e-18
3392.119 8.1348e-18
3393.654 5.5081e-18
3395.19 5.0475e-17
3396.725 7.9945e-18
3398.26 1.3286e-17
3399.796 5.9895e-17
3401.331 6.7916e-17
3402.866 2.8045e-17
3404.402 9.1802e-20
3405.937 -3.716e-19
3407.472 3.0514e-17
3409.008 6.3665e-17
3410.543 2.1865e-17
3412.078 1.4953e-17
3413.614 -6.7561e-18
3415.149 5.3074e-17
3416.684 2.6081e-17
3418.219 7.4972e-17
3419.755 6.122e-17
3421.29 9.1922e-17
3422.825 -1.6455e-17
3424.361 6.9863e-18
3425.896 1.7619e-17
3427.431 5.7106e-17
3428.967 2.512e-17
3430.502 6.8907e-17
3432.037 1.3319e-17
3433.573 -2.7591e-17
3435.108 3.2129e-17
3436.643 6.7259e-17
3438.178 5.1516e-17
3439.714 4.2136e-19
3441.249 5.5464e-17
3442.784 2.7891e-18
3444.32 5.9511e-17
3445.855 2.0637e-17
3447.39 -8.1058e-18
3448.926 3.8545e-17
3450.461 1.9658e-17
3451.996 9.5503e-19
3453.532 -3.3307e-17
3455.067 9.3217e-18
3456.602 4.4105e-18
3458.138 1.2875e-17
3459.673 5.5729e-17
3461.208 2.5378e-17
3462.744 3.2361e-17
3464.279 2.5089e-17
3465.814 4.4689e-17
3467.35 5.1489e-17
3468.885 5.9887e-17
3470.42 4.326e-17
3471.956 3.7584e-17
3473.491 -1.5055e-18
3475.026 2.8708e-17
3476.562 3.1203e-17
3478.097 6.9107e-17
3479.632 3.5044e-17
3481.167 6.6736e-17
3482.703 3.4837e-17
3484.238 4.722e-17
3485.773 5.1737e-17
3487.309 2.1733e-17
3488.844 4.3358e-17
3490.379 4.0798e-17
3491.915 5.6451e-18
3493.45 4.2305e-17
3494.985 9.0359e-17
3496.521 4.8842e-17
3498.056 5.1209e-17
3499.591 1.0982e-16
3501.126 5.7758e-17
3502.662 5.0742e-17
3504.197 6.6548e-17
3505.732 2.1111e-17
3507.268 4.1259e-17
3508.803 6.7739e-17
3510.338 4.2053e-17
3511.874 8.0557e-17
3513.409 6.6122e-17
3514.944 5.0042e-17
3516.48 5.27e-17
3518.015 4.1412e-17
3519.55 4.9571e-17
3521.086 8.2676e-17
3522.621 7.9323e-17
3524.156 3.5898e-17
3525.692 4.5241e-17
3527.227 8.4432e-17
3528.762 4.6012e-17
3530.298 1.2827e-17
3531.833 3.0298e-17
3533.368 6.5999e-17
3534.904 4.1493e-17
3536.439 2.6779e-17
3537.974 4.8231e-17
3539.51 5.6552e-17
3541.045 6.8641e-17
3542.58 6.3593e-17
3544.115 8.3812e-17
3545.651 7.7234e-17
3547.186 5.0286e-17
3548.721 -6.3528e-18
3550.257 4.9821e-17
3551.792 9.2002e-17
3553.327 8.7908e-17
3554.863 8.3726e-17
3556.398 6.6305e-17
3557.933 8.7637e-17
3559.469 6.1969e-17
3561.004 7.2387e-17
3562.539 8.6494e-17
3564.074 7.2056e-17
3565.61 6.363e-17
3567.145 5.1297e-17
3568.68 8.8529e-17
3570.216 8.7116e-17
3571.751 5.8396e-17
3573.286 1.055e-16
3574.822 8.7711e-17
3576.357 6.2677e-17
3577.892 5.0155e-17
3579.428 6.4385e-17
3580.963 6.3467e-17
3582.498 8.1929e-17
3584.034 5.9268e-17
3585.569 6.2728e-17
3587.104 6.5644e-17
3588.64 4.8621e-17
3590.175 7.6471e-17
3591.71 6.08e-17
3593.246 9.3706e-17
3594.781 5.151e-17
3596.316 4.892e-17
3597.852 6.1558e-17
3599.387 6.9989e-17
3600.922 6.2756e-17
3602.458 6.7726e-17
3603.993 8.9013e-17
3605.528 8.7564e-17
3607.063 6.98e-17
3608.599 6.5759e-17
3610.134 6.5259e-17
3611.669 8.6363e-17
3613.205 7.9967e-17
3614.74 7.4883e-17
3616.275 1.0511e-16
3617.811 7.0271e-17
3619.346 5.7616e-17
3620.881 6.8472e-17
3622.417 4.141e-17
3623.952 6.1858e-17
3625.487 8.2018e-17
3627.022 6.592e-17
3628.558 9.2511e-17
3630.093 8.5903e-17
3631.628 1.1854e-16
3633.164 1.0018e-16
3634.699 9.0572e-17
3636.234 7.0872e-17
3637.77 8.2059e-17
3639.305 8.1352e-17
3640.84 9.2024e-17
3642.376 6.0809e-17
3643.911 6.9541e-17
3645.446 7.6681e-17
3646.982 5.8996e-17
3648.517 9.1926e-17
3650.052 7.8133e-17
3651.588 7.5876e-17
3653.123 1.1369e-16
3654.658 7.1193e-17
3656.194 8.913e-17
3657.729 9.4468e-17
3659.264 8.7299e-17
3660.8 8.2753e-17
3662.335 7.3525e-17
3663.87 7.4693e-17
3665.406 8.791e-17
3666.941 6.3782e-17
3668.476 6.1957e-17
3670.011 6.2725e-17
3671.547 7.5948e-17
3673.082 6.6248e-17
3674.617 7.0706e-17
3676.153 6.0929e-17
3677.688 7.8727e-17
3679.223 8.1546e-17
3680.759 9.2062e-17
3682.294 1.1159e-16
3683.829 1.0181e-16
3685.365 9.9344e-17
3686.9 8.8209e-17
3688.435 8.5271e-17
3689.97 8.9e-17
3691.506 5.8314e-17
3693.041 7.5593e-17
3694.576 7.3565e-17
3696.112 8.4767e-17
3697.647 9.8869e-17
3699.182 1.0008e-16
3700.718 8.7724e-17
3702.253 8.7483e-17
3703.788 1.0279e-16
3705.324 9.5469e-17
3706.859 8.0325e-17
3708.394 8.2101e-17
3709.93 8.7092e-17
3711.465 8.8855e-17
3713.0 9.9776e-17
3714.536 8.6461e-17
3716.071 8.7684e-17
3717.606 1.0819e-16
3719.142 7.6817e-17
3720.677 8.9245e-17
3722.212 8.0226e-17
3723.748 6.2945e-17
3725.283 9.308e-17
3726.818 8.9032e-17
3728.354 9.7666e-17
3729.889 1.0354e-16
3731.424 1.0019e-16
3732.959 6.1041e-17
3734.495 6.8669e-17
3736.03 8.0797e-17
3737.565 9.2511e-17
3739.101 8.0502e-17
3740.636 7.9977e-17
3742.171 8.3266e-17
3743.707 8.4075e-17
3745.242 9.1702e-17
3746.777 7.229e-17
3748.312 6.2285e-17
3749.848 8.9577e-17
3751.383 8.4405e-17
3752.918 7.0948e-17
3754.454 8.5078e-17
3755.989 6.3016e-17
3757.524 1.0178e-16
3759.06 8.6677e-17
3760.595 9.2402e-17
3762.13 8.245e-17
3763.666 7.4577e-17
3765.201 6.7113e-17
3766.736 7.1977e-17
3768.272 8.7358e-17
3769.807 8.801e-17
3771.342 7.3367e-17
3772.878 7.9992e-17
3774.413 8.213e-17
3775.948 9.8219e-17
3777.484 1.1856e-16
3779.019 9.6101e-17
3780.554 1.0528e-16
3782.09 9.8052e-17
3783.625 1.0122e-16
3785.16 9.0977e-17
3786.696 8.3944e-17
3788.231 9.701e-17
3789.766 8.873e-17
3791.302 8.903e-17
3792.837 7.8615e-17
3794.372 9.0519e-17
3795.907 8.6717e-17
3797.443 1.0422e-16
3798.978 1.0477e-16
3800.513 8.9694e-17
3802.049 8.2916e-17
3803.584 8.5442e-17
3805.119 8.1283e-17
3806.655 9.3734e-17
3808.19 8.7592e-17
3809.725 1.0494e-16
3811.26 8.8654e-17
3812.796 8.897e-17
3814.331 8.7022e-17
3815.866 8.0869e-17
3817.402 8.1614e-17
3818.937 8.7838e-17
3820.472 7.6163e-17
3822.008 7.3333e-17
3823.543 7.5652e-17
3825.078 7.3932e-17
3826.614 5.5534e-17
3828.149 5.2215e-17
3829.684 6.7243e-17
3831.22 7.6368e-17
3832.755 8.2744e-17
3834.29 7.1613e-17
3835.826 7.0451e-17
3837.361 6.7029e-17
3838.896 7.1358e-17
3840.432 7.0037e-17
3841.967 7.8572e-17
3843.502 8.0334e-17
3845.038 7.6461e-17
3846.573 9.1396e-17
3848.108 7.9881e-17
3849.644 7.2808e-17
3851.179 8.1123e-17
3852.714 7.1846e-17
3854.25 8.054e-17
3855.785 7.6671e-17
3857.32 7.5819e-17
3858.855 6.6074e-17
3860.391 6.2158e-17
3861.926 5.7501e-17
3863.461 7.0476e-17
3864.997 7.2166e-17
3866.532 9.3067e-17
3868.067 6.6642e-17
3869.603 5.8105e-17
3871.138 6.3598e-17
3872.673 6.5241e-17
3874.208 6.7337e-17
3875.744 6.6739e-17
3877.279 5.7375e-17
3878.814 5.5664e-17
3880.35 6.4017e-17
3881.885 8.3667e-17
3883.42 7.3026e-17
3884.956 7.6315e-17
3886.491 6.8111e-17
3888.026 8.3733e-17
3889.562 8.7054e-17
3891.097 9.0511e-17
3892.632 9.5447e-17
3894.168 8.7798e-17
3895.703 9.4947e-17
3897.238 9.2196e-17
3898.774 6.0758e-17
3900.309 6.765e-17
3901.844 7.8141e-17
3903.38 7.7442e-17
3904.915 7.4424e-17
3906.45 7.8002e-17
3907.986 9.2333e-17
3909.521 7.7377e-17
3911.056 7.1207e-17
3912.592 7.108e-17
3914.127 6.4952e-17
3915.662 5.7275e-17
3917.198 6.2271e-17
3918.733 5.0046e-17
3920.268 5.0519e-17
3921.803 6.9931e-17
3923.339 7.5822e-17
3924.874 6.3627e-17
3926.409 6.3508e-17
3927.945 7.685e-17
3929.48 8.9088e-17
3931.015 7.6382e-17
3932.551 6.9456e-17
3934.086 7.3109e-17
3935.621 6.8077e-17
3937.156 5.9578e-17
3938.692 7.0112e-17
3940.227 5.7011e-17
3941.762 6.0023e-17
3943.298 5.9703e-17
3944.833 6.8711e-17
3946.368 7.1465e-17
3947.904 6.1831e-17
3949.439 6.1207e-17
3950.974 5.2887e-17
3952.51 7.2321e-17
3954.045 8.0745e-17
3955.58 8.2896e-17
3957.116 6.7027e-17
3958.651 7.0064e-17
3960.186 7.4562e-17
3961.722 7.2208e-17
3963.257 7.87e-17
3964.792 7.0787e-17
3966.328 7.609e-17
3967.863 8.7854e-17
3969.398 5.8313e-17
3970.934 5.8302e-17
3972.469 6.9832e-17
3974.004 7.7727e-17
3975.54 6.6476e-17
3977.075 6.8007e-17
3978.61 7.2272e-17
3980.146 9.1828e-17
3981.681 7.373e-17
3983.216 8.1038e-17
3984.751 8.3757e-17
3986.287 6.7877e-17
3987.822 8.122e-17
3989.357 8.7619e-17
3990.893 8.9365e-17
3992.428 7.5877e-17
3993.963 6.0823e-17
3995.499 6.7537e-17
3997.034 8.4284e-17
3998.569 8.6957e-17
4000.104 7.6352e-17
4001.64 7.6371e-17
4003.175 8.7088e-17
4004.71 7.914e-17
4006.246 7.2211e-17
4007.781 9.5623e-17
4009.316 8.4333e-17
4010.852 6.8683e-17
4012.387 8.7405e-17
4013.922 7.8659e-17
4015.458 7.6556e-17
4016.993 7.2777e-17
4018.528 7.0517e-17
4020.064 8.6556e-17
4021.599 7.4501e-17
4023.134 6.9886e-17
4024.67 6.955e-17
4026.205 6.1001e-17
4027.74 8.0086e-17
4029.276 8.7742e-17
4030.811 7.4782e-17
4032.346 8.5413e-17
4033.882 8.4024e-17
4035.417 9.0777e-17
4036.952 9.671e-17
4038.488 8.5758e-17
4040.023 7.9977e-17
4041.558 7.4794e-17
4043.094 8.3884e-17
4044.629 8.2051e-17
4046.164 8.5932e-17
4047.699 7.3517e-17
4049.235 8.4397e-17
4050.77 8.0572e-17
4052.305 8.8462e-17
4053.841 8.1929e-17
4055.376 8.6843e-17
4056.911 8.1693e-17
4058.447 7.5822e-17
4059.982 1.0126e-16
4061.517 8.8196e-17
4063.052 6.0998e-17
4064.588 8.1944e-17
4066.123 9.5374e-17
4067.658 9.7338e-17
4069.194 7.6733e-17
4070.729 8.2055e-17
4072.264 9.487e-17
4073.8 8.619e-17
4075.335 8.4282e-17
4076.87 8.951e-17
4078.406 8.1385e-17
4079.941 8.3508e-17
4081.476 8.4527e-17
4083.012 9.1435e-17
4084.547 8.4231e-17
4086.082 7.5126e-17
4087.618 8.3511e-17
4089.153 7.3004e-17
4090.688 8.4652e-17
4092.224 8.1194e-17
4093.759 8.3062e-17
4095.294 7.618e-17
4096.83 7.6012e-17
4098.365 7.2662e-17
4099.9 7.9533e-17
4101.436 7.0078e-17
4102.971 7.1596e-17
4104.506 8.2595e-17
4106.042 7.3276e-17
4107.577 8.2796e-17
4109.112 9.6292e-17
4110.647 9.0404e-17
4112.183 9.3807e-17
4113.718 8.0997e-17
4115.253 6.9522e-17
4116.789 7.8471e-17
4118.324 8.2391e-17
4119.859 9.5548e-17
4121.395 8.3949e-17
4122.93 8.8083e-17
4124.465 7.2224e-17
4126.0 7.2439e-17
4127.536 8.0396e-17
4129.071 7.9772e-17
4130.606 8.8712e-17
4132.142 7.6248e-17
4133.677 6.8962e-17
4135.212 9.8985e-17
4136.748 9.0773e-17
4138.283 7.5046e-17
4139.818 8.8987e-17
4141.354 7.7995e-17
4142.889 8.7004e-17
4144.424 8.1118e-17
4145.959 9.0861e-17
4147.495 8.3631e-17
4149.03 8.1173e-17
4150.565 8.5943e-17
4152.101 8.2204e-17
4153.636 8.8708e-17
4155.171 8.359e-17
4156.707 7.667e-17
4158.242 8.5149e-17
4159.777 9.278e-17
4161.313 1.0101e-16
4162.848 8.4746e-17
4164.383 7.4367e-17
4165.919 6.8884e-17
4167.454 8.1713e-17
4168.989 8.2618e-17
4170.525 8.3424e-17
4172.06 8.1676e-17
4173.595 7.0807e-17
4175.131 9.1083e-17
4176.666 9.3354e-17
4178.201 8.1881e-17
4179.737 7.8431e-17
4181.272 7.6132e-17
4182.807 7.2989e-17
4184.343 7.5791e-17
4185.878 8.782e-17
4187.413 9.3961e-17
4188.949 6.6832e-17
4190.484 6.0499e-17
4192.019 6.9967e-17
4193.555 7.0951e-17
4195.09 7.7727e-17
4196.625 8.1679e-17
4198.16 8.2248e-17
4199.696 7.4164e-17
4201.231 7.4711e-17
4202.766 9.1812e-17
4204.302 7.6936e-17
4205.837 8.8812e-17
4207.372 7.2747e-17
4208.908 7.1858e-17
4210.443 6.9817e-17
4211.978 7.0434e-17
4213.514 7.5499e-17
4215.049 7.8327e-17
4216.584 7.1747e-17
4218.12 7.0535e-17
4219.655 7.22e-17
4221.19 5.8568e-17
4222.726 7.7212e-17
4224.261 8.8776e-17
4225.796 9.1664e-17
4227.332 8.2322e-17
4228.867 8.9952e-17
4230.402 7.4492e-17
4231.938 7.5906e-17
4233.473 7.4674e-17
4235.008 7.7147e-17
4236.543 7.9617e-17
4238.079 6.8456e-17
4239.614 6.682e-17
4241.149 7.6128e-17
4242.685 7.9495e-17
4244.22 7.8553e-17
4245.755 7.2069e-17
4247.291 8.6325e-17
4248.826 7.1776e-17
4250.361 9.4566e-17
4251.896 8.4163e-17
4253.432 8.7199e-17
4254.967 9.0523e-17
4256.502 8.0054e-17
4258.038 6.9364e-17
4259.573 6.8493e-17
4261.108 6.8637e-17
4262.644 8.0827e-17
4264.179 6.2919e-17
4265.714 6.5262e-17
4267.25 8.7221e-17
4268.785 7.8475e-17
4270.32 7.0227e-17
4271.855 7.5079e-17
4273.391 7.5226e-17
4274.926 7.3415e-17
4276.461 6.7985e-17
4277.997 6.9531e-17
4279.532 6.6413e-17
4281.067 6.7127e-17
4282.603 8.1803e-17
4284.138 7.9822e-17
4285.673 7.1828e-17
4287.209 8.0996e-17
4288.744 7.6035e-17
4290.279 7.3728e-17
4291.815 8.9253e-17
4293.35 7.7679e-17
4294.885 6.6989e-17
4296.421 6.9601e-17
4297.956 7.3015e-17
4299.491 7.4139e-17
4301.027 6.9777e-17
4302.562 8.1792e-17
4304.097 8.6044e-17
4305.633 6.8458e-17
4307.168 6.7863e-17
4308.703 7.9149e-17
4310.239 7.9351e-17
4311.774 6.8653e-17
4313.309 8.6961e-17
4314.844 8.6941e-17
4316.38 8.5358e-17
4317.915 9.5819e-17
4319.45 9.2894e-17
4320.986 8.4326e-17
4322.521 7.9946e-17
4324.056 7.4144e-17
4325.592 8.8087e-17
4327.127 6.778e-17
4328.662 6.7187e-17
4330.198 7.4723e-17
4331.733 7.1445e-17
4333.268 5.9464e-17
4334.804 6.7022e-17
4336.339 6.6678e-17
4337.874 6.0235e-17
4339.41 6.3038e-17
4340.945 6.3826e-17
4342.48 6.7717e-17
4344.016 7.9889e-17
4345.551 7.2177e-17
4347.086 5.6275e-17
4348.622 6.6697e-17
4350.157 8.0644e-17
4351.692 6.7121e-17
4353.228 6.0248e-17
4354.763 7.4256e-17
4356.298 6.2211e-17
4357.833 6.6201e-17
4359.369 8.6598e-17
4360.904 3.8781e-17
4362.439 6.3917e-17
4363.975 6.4412e-17
4365.51 7.1647e-17
4367.045 6.5119e-17
4368.581 6.9237e-17
4370.116 5.4419e-17
4371.651 7.7027e-17
4373.187 7.5393e-17
4374.722 7.1845e-17
4376.257 8.8829e-17
4377.792 6.9377e-17
4379.328 7.9367e-17
4380.863 7.2643e-17
4382.398 6.3445e-17
4383.934 6.1796e-17
4385.469 6.058e-17
4387.004 6.3115e-17
4388.54 7.9032e-17
4390.075 8.26e-17
4391.61 8.459e-17
4393.146 7.7843e-17
4394.681 6.6046e-17
4396.216 6.8257e-17
4397.751 8.1592e-17
4399.287 8.6979e-17
4400.822 8.6489e-17
4402.357 6.5617e-17
4403.893 6.9608e-17
4405.428 7.7833e-17
4406.963 7.1769e-17
4408.499 7.1669e-17
4410.034 8.203e-17
4411.569 7.929e-17
4413.105 7.6848e-17
4414.64 8.5436e-17
4416.175 7.7121e-17
4417.711 6.5731e-17
4419.246 7.9399e-17
4420.781 8.2955e-17
4422.317 8.2562e-17
4423.852 7.8851e-17
4425.387 7.3142e-17
4426.923 8.7964e-17
4428.458 7.9033e-17
4429.993 4.9832e-17
4431.529 7.4951e-17
4433.064 7.4079e-17
4434.599 7.4561e-17
4436.134 7.4064e-17
4437.67 8.0446e-17
4439.205 7.661e-17
4440.74 5.4826e-17
4442.276 7.403e-17
4443.811 7.4372e-17
4445.346 6.3882e-17
4446.882 7.4284e-17
4448.417 7.5543e-17
4449.952 7.939e-17
4451.488 8.9105e-17
4453.023 8.6683e-17
4454.558 8.6252e-17
4456.094 8.2978e-17
4457.629 8.25e-17
4459.164 7.3862e-17
4460.7 7.4023e-17
4462.235 7.222e-17
4463.77 7.0879e-17
4465.306 7.502e-17
4466.841 7.5811e-17
4468.376 7.0493e-17
4469.912 6.9189e-17
4471.447 7.4037e-17
4472.982 8.3794e-17
4474.518 9.5137e-17
4476.053 7.8763e-17
4477.588 8.0957e-17
4479.124 8.7893e-17
4480.659 7.354e-17
4482.194 8.2139e-17
4483.729 9.5178e-17
4485.265 8.5997e-17
4486.8 7.8114e-17
4488.335 8.0069e-17
4489.871 6.6877e-17
4491.406 5.3183e-17
4492.941 8.9847e-17
4494.477 8.8378e-17
4496.012 8.5578e-17
4497.547 7.0555e-17
4499.083 6.8655e-17
4500.618 7.5199e-17
4502.153 7.8852e-17
4503.688 5.5989e-17
4505.224 8.2973e-17
4506.759 8.9336e-17
4508.294 7.9125e-17
4509.83 6.1183e-17
4511.365 7.5562e-17
4512.9 7.6929e-17
4514.436 6.6934e-17
4515.971 7.903e-17
4517.506 7.1425e-17
4519.042 7.3797e-17
4520.577 6.8054e-17
4522.112 8.4188e-17
4523.647 7.2769e-17
4525.183 6.587e-17
4526.718 8.3631e-17
4528.253 6.6067e-17
4529.789 5.5768e-17
4531.324 6.9434e-17
4532.859 7.1689e-17
4534.395 6.9366e-17
4535.93 5.5973e-17
4537.465 6.8213e-17
4539.001 6.5907e-17
4540.536 9.0001e-17
4542.071 9.1382e-17
4543.607 7.7731e-17
4545.142 8.1244e-17
4546.677 6.5152e-17
4548.213 6.8486e-17
4549.748 7.5091e-17
4551.283 5.909e-17
4552.818 6.576e-17
4554.354 5.5191e-17
4555.889 7.5826e-17
4557.424 7.8685e-17
4558.96 6.8714e-17
4560.495 8.4261e-17
4562.03 7.4139e-17
4563.566 8.6834e-17
4565.101 9.7151e-17
4566.636 7.5577e-17
4568.172 8.185e-17
4569.707 9.4321e-17
4571.242 8.1216e-17
4572.778 9.0658e-17
4574.313 8.2399e-17
4575.848 7.6037e-17
4577.384 7.7656e-17
4578.919 6.6821e-17
4580.454 7.8523e-17
4581.99 7.2099e-17
4583.525 7.6189e-17
4585.06 9.0008e-17
4586.596 7.7242e-17
4588.131 5.5982e-17
4589.666 8.3184e-17
4591.202 8.2297e-17
4592.737 6.8073e-17
4594.272 7.2347e-17
4595.808 6.5611e-17
4597.343 6.8705e-17
4598.878 8.3061e-17
4600.414 7.517e-17
4601.949 8.2903e-17
4603.484 5.9823e-17
4605.02 7.7626e-17
4606.555 7.1334e-17
4608.09 7.923e-17
4609.625 7.8783e-17
4611.161 7.8081e-17
4612.696 8.5762e-17
4614.231 7.1782e-17
4615.767 7.9503e-17
4617.302 7.5762e-17
4618.837 8.107e-17
4620.373 7.16e-17
4621.908 5.7431e-17
4623.443 7.0284e-17
4624.979 7.5086e-17
4626.514 7.117e-17
4628.049 7.1218e-17
4629.584 6.8471e-17
4631.12 7.9361e-17
4632.655 7.3041e-17
4634.19 7.7571e-17
4635.726 8.4977e-17
4637.261 8.5509e-17
4638.796 7.6186e-17
4640.332 7.4908e-17
4641.867 5.5502e-17
4643.402 6.581e-17
4644.938 6.4662e-17
4646.473 8.4604e-17
4648.008 7.4702e-17
4649.543 7.9131e-17
4651.079 8.4405e-17
4652.614 7.4288e-17
4654.149 8.1212e-17
4655.685 7.8949e-17
4657.22 7.0759e-17
4658.755 8.03e-17
4660.291 8.5035e-17
4661.826 7.8992e-17
4663.361 7.2182e-17
4664.897 7.4499e-17
4666.432 8.4651e-17
4667.967 6.9888e-17
4669.503 6.1672e-17
4671.038 5.6464e-17
4672.573 9.5967e-17
4674.108 9.5784e-17
4675.644 7.3016e-17
4677.179 8.318e-17
4678.714 8.5018e-17
4680.25 7.5353e-17
4681.785 8.2793e-17
4683.32 8.2597e-17
4684.856 7.6727e-17
4686.391 7.2225e-17
4687.926 8.4071e-17
4689.462 8.5265e-17
4690.997 7.1886e-17
4692.532 7.2941e-17
4694.068 7.1499e-17
4695.603 6.6865e-17
4697.138 8.6468e-17
4698.674 8.4266e-17
4700.209 7.8254e-17
4701.744 8.5397e-17
4703.28 6.8395e-17
4704.815 7.9325e-17
4706.35 6.4939e-17
4707.886 6.8483e-17
4709.421 9.0815e-17
4710.956 8.6806e-17
4712.492 6.0898e-17
4714.027 6.5093e-17
4715.562 6.4948e-17
4717.098 6.6131e-17
4718.633 7.3459e-17
4720.168 7.4911e-17
4721.704 6.1197e-17
4723.239 6.6589e-17
4724.774 7.2447e-17
4726.31 7.8345e-17
4727.845 7.6244e-17
4729.38 6.3203e-17
4730.916 6.5262e-17
4732.451 7.4391e-17
4733.986 7.9742e-17
4735.521 9.2726e-17
4737.057 6.9828e-17
4738.592 7.8163e-17
4740.127 6.2338e-17
4741.663 6.9373e-17
4743.198 7.0439e-17
4744.733 7.9521e-17
4746.269 7.3863e-17
4747.804 8.3612e-17
4749.339 7.6071e-17
4750.875 7.3773e-17
4752.41 7.655e-17
4753.945 7.0855e-17
4755.48 7.1376e-17
4757.016 7.2733e-17
4758.551 6.7353e-17
4760.086 7.4868e-17
4761.622 7.3557e-17
4763.157 7.0794e-17
4764.692 8.3265e-17
4766.228 7.8682e-17
4767.763 6.3873e-17
4769.298 6.8757e-17
4770.833 7.1843e-17
4772.369 6.9524e-17
4773.904 7.2005e-17
4775.439 7.5448e-17
4776.975 6.9168e-17
4778.51 7.6343e-17
4780.045 7.9497e-17
4781.581 7.9951e-17
4783.116 6.5019e-17
4784.651 7.2974e-17
4786.187 7.7444e-17
4787.722 7.8567e-17
4789.257 7.9737e-17
4790.792 6.5766e-17
4792.328 6.3579e-17
4793.863 6.9789e-17
4795.398 8.0558e-17
4796.934 8.6994e-17
4798.469 7.3768e-17
4800.004 7.4108e-17
4801.54 8.223e-17
4803.075 8.181e-17
4804.61 7.1613e-17
4806.146 6.5948e-17
4807.681 6.676e-17
4809.216 7.1817e-17
4810.752 7.7562e-17
4812.287 6.6683e-17
4813.822 5.836e-17
4815.358 6.6521e-17
4816.893 7.1326e-17
4818.428 7.3524e-17
4819.964 8.0165e-17
4821.499 7.0746e-17
4823.034 7.2798e-17
4824.57 6.5394e-17
4826.105 6.7901e-17
4827.64 6.1488e-17
4829.176 7.6819e-17
4830.711 8.3147e-17
4832.246 8.5187e-17
4833.782 7.2516e-17
4835.317 6.9783e-17
4836.852 6.9065e-17
4838.388 6.1086e-17
4839.923 5.8385e-17
4841.458 5.3724e-17
4842.994 6.4716e-17
4844.529 6.3416e-17
4846.064 5.8806e-17
4847.6 6.5606e-17
4849.135 7.0275e-17
4850.67 7.2937e-17
4852.206 6.2657e-17
4853.741 7.1956e-17
4855.276 6.165e-17
4856.812 6.7209e-17
4858.347 7.1224e-17
4859.882 6.3485e-17
4861.417 7.9767e-17
4862.953 6.5587e-17
4864.488 6.4421e-17
4866.023 7.9134e-17
4867.559 6.1492e-17
4869.094 5.9516e-17
4870.629 6.8097e-17
4872.165 6.0945e-17
4873.7 5.9053e-17
4875.235 6.2158e-17
4876.771 6.173e-17
4878.306 6.474e-17
4879.841 6.2437e-17
4881.376 6.0763e-17
4882.912 6.2184e-17
4884.447 6.2205e-17
4885.982 7.0152e-17
4887.518 6.3466e-17
4889.053 7.085e-17
4890.588 7.0521e-17
4892.124 6.2834e-17
4893.659 6.2527e-17
4895.194 6.4679e-17
4896.729 7.6024e-17
4898.265 6.4058e-17
4899.8 5.9706e-17
4901.335 7.0133e-17
4902.871 7.1212e-17
4904.406 6.2371e-17
4905.941 5.9891e-17
4907.477 6.6529e-17
4909.012 7.2065e-17
4910.547 5.7624e-17
4912.083 5.7358e-17
4913.618 7.893e-17
4915.153 6.2774e-17
4916.688 5.831e-17
4918.224 6.4099e-17
4919.759 5.7459e-17
4921.294 6.7478e-17
4922.83 7.4225e-17
4924.365 7.3508e-17
4925.9 7.1934e-17
4927.436 4.973e-17
4928.971 4.5108e-17
4930.506 5.8746e-17
4932.042 7.2555e-17
4933.577 7.2778e-17
4935.112 7.0141e-17
4936.648 5.076e-17
4938.183 6.533e-17
4939.718 6.4052e-17
4941.254 5.0123e-17
4942.789 5.9664e-17
4944.324 5.2481e-17
4945.86 5.1859e-17
4947.395 6.0575e-17
4948.93 6.2145e-17
4950.466 5.6407e-17
4952.001 5.651e-17
4953.536 6.293e-17
4955.072 5.9733e-17
4956.607 6.7218e-17
4958.142 6.4615e-17
4959.678 5.4209e-17
4961.213 5.8792e-17
4962.748 6.4329e-17
4964.284 5.1691e-17
4965.819 6.0145e-17
4967.354 6.7681e-17
4968.89 4.9134e-17
4970.425 4.8946e-17
4971.96 5.8003e-17
4973.496 6.3017e-17
4975.031 6.1962e-17
4976.566 5.4852e-17
4978.102 5.3043e-17
4979.637 6.9309e-17
4981.172 6.7768e-17
4982.708 6.6864e-17
4984.243 6.2261e-17
4985.778 6.8799e-17
4987.313 7.8839e-17
4988.849 5.7424e-17
4990.384 4.9483e-17
4991.919 5.3983e-17
4993.455 6.797e-17
4994.99 6.1348e-17
4996.525 5.7725e-17
4998.061 6.8738e-17
4999.596 7.7043e-17
5001.131 8.0078e-17
5002.667 7.3377e-17
5004.202 5.8328e-17
5005.737 5.9186e-17
5007.272 7.0197e-17
5008.808 6.7091e-17
5010.343 5.4857e-17
5011.878 5.7201e-17
5013.414 6.5835e-17
5014.949 5.8348e-17
5016.484 5.2419e-17
5018.02 5.8447e-17
5019.555 5.9543e-17
5021.09 5.5868e-17
5022.625 5.8686e-17
5024.161 6.3709e-17
5025.696 6.3401e-17
5027.231 5.3178e-17
5028.767 5.087e-17
5030.302 6.8441e-17
5031.837 6.7604e-17
5033.373 7.2662e-17
5034.908 7.1074e-17
5036.443 6.4497e-17
5037.979 6.4454e-17
5039.514 6.3026e-17
5041.049 5.8445e-17
5042.584 6.039e-17
5044.12 6.0922e-17
5045.655 5.731e-17
5047.19 6.1093e-17
5048.726 6.8199e-17
5050.261 7.2273e-17
5051.796 6.834e-17
5053.332 5.3911e-17
5054.867 8.1963e-17
5056.402 6.7381e-17
5057.938 5.941e-17
5059.473 7.1299e-17
5061.008 7.1712e-17
5062.544 6.0103e-17
5064.079 6.3551e-17
5065.614 5.3605e-17
5067.15 4.7814e-17
5068.685 6.0369e-17
5070.22 6.8518e-17
5071.756 7.2847e-17
5073.291 7.3943e-17
5074.826 5.7943e-17
5076.362 7.2293e-17
5077.897 8.2732e-17
5079.432 6.1703e-17
5080.968 6.2815e-17
5082.503 5.8421e-17
5084.038 5.81e-17
5085.574 6.6032e-17
5087.109 6.9086e-17
5088.644 7.4842e-17
5090.18 4.6739e-17
5091.715 5.2482e-17
5093.25 5.8402e-17
5094.786 6.8496e-17
5096.321 6.9934e-17
5097.856 7.4157e-17
5099.392 8.0783e-17
5100.927 8.0654e-17
5102.462 6.49e-17
5103.998 7.3555e-17
5105.533 5.9358e-17
5107.068 7.0268e-17
5108.604 6.7307e-17
5110.139 6.4617e-17
5111.674 6.0248e-17
5113.209 5.4972e-17
5114.745 5.9113e-17
5116.28 7.9362e-17
5117.815 6.5668e-17
5119.351 5.975e-17
5120.886 6.0109e-17
5122.421 6.118e-17
5123.957 7.1314e-17
5125.492 7.0895e-17
5127.027 7.0538e-17
5128.562 7.026e-17
5130.098 8.0079e-17
5131.633 6.328e-17
5133.168 6.4813e-17
5134.704 7.1194e-17
5136.239 7.5646e-17
5137.774 6.044e-17
5139.31 6.7155e-17
5140.845 6.8323e-17
5142.38 6.8443e-17
5143.916 6.1947e-17
5145.451 6.7511e-17
5146.986 5.2021e-17
5148.521 6.032e-17
5150.057 8.844e-17
5151.592 7.8295e-17
5153.127 6.9081e-17
5154.663 6.8905e-17
5156.198 6.6807e-17
5157.733 7.2706e-17
5159.269 8.0395e-17
5160.804 8.2014e-17
5162.339 6.7017e-17
5163.875 6.3578e-17
5165.41 5.2102e-17
5166.945 6.2519e-17
5168.48 6.6805e-17
5170.016 5.9038e-17
5171.551 5.7988e-17
5173.086 7.0237e-17
5174.622 7.3236e-17
5176.157 6.5209e-17
5177.692 5.1011e-17
5179.228 7.49e-17
5180.763 8.2712e-17
5182.298 7.0685e-17
5183.834 4.3314e-17
5185.369 5.6892e-17
5186.904 8.0401e-17
5188.44 7.0737e-17
5189.975 6.4937e-17
5191.51 7.0255e-17
5193.046 5.8305e-17
5194.581 5.4251e-17
5196.116 6.1111e-17
5197.652 6.8965e-17
5199.187 7.8876e-17
5200.722 5.3605e-17
5202.258 6.9195e-17
5203.793 6.6197e-17
5205.328 6.3293e-17
5206.864 6.1481e-17
5208.399 6.135e-17
5209.934 6.7756e-17
5211.47 6.8586e-17
5213.005 7.2854e-17
5214.54 7.2753e-17
5216.076 6.7654e-17
5217.611 5.5322e-17
5219.146 5.4225e-17
5220.682 5.7001e-17
5222.217 3.8962e-17
5223.752 6.8354e-17
5225.288 6.6396e-17
5226.823 6.5031e-17
5228.358 5.9441e-17
5229.894 5.0794e-17
5231.429 5.5432e-17
5232.964 6.622e-17
5234.5 6.587e-17
5236.035 6.3968e-17
5237.57 5.7647e-17
5239.105 6.8476e-17
5240.641 5.6673e-17
5242.176 4.6249e-17
5243.711 7.1671e-17
5245.247 6.6968e-17
5246.782 6.3572e-17
5248.317 7.2837e-17
5249.853 6.267e-17
5251.388 5.9037e-17
5252.923 5.2976e-17
5254.458 5.2012e-17
5255.994 6.1288e-17
5257.529 6.6914e-17
5259.064 6.8037e-17
5260.6 6.2088e-17
5262.135 7.2754e-17
5263.67 5.6014e-17
5265.206 6.1673e-17
5266.741 6.3308e-17
5268.276 5.1821e-17
5269.812 5.762e-17
5271.347 6.3166e-17
5272.882 5.1501e-17
5274.417 5.6183e-17
5275.953 6.8154e-17
5277.488 7.0682e-17
5279.023 5.0079e-17
5280.559 5.9106e-17
5282.094 5.9498e-17
5283.629 6.593e-17
5285.165 6.4394e-17
5286.7 5.8247e-17
5288.235 7.7487e-17
5289.771 4.3781e-17
5291.306 5.8166e-17
5292.841 5.3957e-17
5294.376 6.1416e-17
5295.912 6.5713e-17
5297.447 4.9316e-17
5298.982 6.8127e-17
5300.518 5.618e-17
5302.053 7.9037e-17
5303.588 6.469e-17
5305.124 6.1118e-17
5306.659 5.8727e-17
5308.194 6.8904e-17
5309.73 5.6986e-17
5311.265 7.0853e-17
5312.8 6.9046e-17
5314.336 7.4132e-17
5315.871 6.2008e-17
5317.406 5.41e-17
5318.942 5.4248e-17
5320.477 6.665e-17
5322.012 5.7352e-17
5323.548 4.6916e-17
5325.083 6.3769e-17
5326.618 7.663e-17
5328.154 5.0518e-17
5329.689 6.0215e-17
5331.224 5.3099e-17
5332.76 4.7411e-17
5334.295 7.0474e-17
5335.83 8.2249e-17
5337.366 5.8124e-17
5338.901 6.6754e-17
5340.436 6.3072e-17
5341.972 6.1948e-17
5343.507 6.8081e-17
5345.042 5.8285e-17
5346.578 7.6223e-17
5348.113 6.3631e-17
5349.648 6.2739e-17
5351.184 7.3757e-17
5352.719 4.1557e-17
5354.254 4.7706e-17
5355.79 5.554e-17
5357.325 6.4725e-17
5358.86 6.3787e-17
5360.396 5.0255e-17
5361.931 5.1751e-17
5363.466 7.5913e-17
5365.001 8.9269e-17
5366.537 7.464e-17
5368.072 4.5514e-17
5369.607 5.9372e-17
5371.143 4.4289e-17
5372.678 5.7648e-17
5374.213 7.9583e-17
5375.749 6.4576e-17
5377.284 4.3307e-17
5378.819 5.4229e-17
5380.354 5.9502e-17
5381.89 6.1364e-17
5383.425 5.9022e-17
5384.96 6.9584e-17
5386.496 4.6794e-17
5388.031 6.7218e-17
5389.566 6.2753e-17
5391.102 4.8333e-17
5392.637 6.112e-17
5394.172 6.2924e-17
5395.708 5.9622e-17
5397.243 7.1935e-17
5398.778 8.1701e-17
5400.313 6.9759e-17
5401.849 6.0473e-17
5403.384 8.1456e-17
5404.919 6.5539e-17
5406.455 6.9688e-17
5407.99 5.9111e-17
5409.525 6.3775e-17
5411.061 6.4338e-17
5412.596 7.7026e-17
5414.131 6.5517e-17
5415.667 9.5474e-17
5417.202 6.3278e-17
5418.737 5.8109e-17
5420.272 6.2082e-17
5421.808 4.7395e-17
5423.343 5.5507e-17
5424.878 5.4916e-17
5426.414 3.6508e-17
5427.949 4.6136e-17
5429.484 6.7784e-17
5431.02 5.6716e-17
5432.555 5.6458e-17
5434.09 6.4344e-17
5435.626 4.4531e-17
5437.161 5.9116e-17
5438.696 6.8321e-17
5440.232 4.7789e-17
5441.767 5.3766e-17
5443.302 7.5255e-17
5444.838 7.8888e-17
5446.373 6.6761e-17
5447.908 5.1501e-17
5449.444 3.3739e-17
5450.979 4.9164e-17
5452.514 5.521e-17
5454.05 8.9759e-17
5455.585 7.7442e-17
5457.12 5.9443e-17
5458.656 6.7444e-17
5460.191 1.1427e-16
5461.726 1.285e-16
5463.262 4.1265e-17
5464.797 8.9901e-17
5466.332 7.0631e-17
5467.868 5.8738e-17
5469.403 4.814e-17
5470.938 5.594e-17
5472.474 7.4245e-17
5474.009 5.2724e-17
5475.544 5.2154e-17
5477.08 6.8084e-17
5478.615 9.047e-17
5480.15 7.2953e-17
5481.686 5.7665e-17
5483.221 8.327e-17
5484.756 7.7664e-17
5486.292 7.1019e-17
5487.827 7.8951e-17
5489.362 7.6172e-17
5490.897 5.1326e-17
5492.433 5.6702e-17
5493.968 4.9421e-17
5495.503 4.5424e-17
5497.039 6.7979e-17
5498.574 5.575e-17
5500.109 5.8048e-17
5501.645 6.9084e-17
5503.18 9.5374e-17
5504.715 7.6359e-17
5506.25 6.6886e-17
5507.786 7.0673e-17
5509.321 1.0238e-16
5510.856 8.8612e-17
5512.392 7.0726e-17
5513.927 5.8223e-17
5515.462 7.5977e-17
5516.998 6.0477e-17
5518.533 6.9274e-17
5520.068 6.6769e-17
5521.604 5.7438e-17
5523.139 4.725e-17
5524.674 6.2031e-17
5526.209 8.3675e-17
5527.745 7.9953e-17
5529.28 7.5368e-17
5530.815 7.3118e-17
5532.351 7.6279e-17
5533.886 7.3012e-17
5535.421 6.8893e-17
5536.957 7.0003e-17
5538.492 7.7618e-17
5540.027 6.4911e-17
5541.562 5.411e-17
5543.098 7.1143e-17
5544.633 7.6575e-17
5546.168 7.2084e-17
5547.704 7.7932e-17
5549.239 7.1467e-17
5550.774 5.509e-17
5552.31 6.9488e-17
5553.845 9.1359e-17
5555.38 7.0705e-17
5556.916 6.7826e-17
5558.451 6.9048e-17
5559.986 6.4275e-17
5561.522 8.0395e-17
5563.057 8.0568e-17
5564.592 7.4973e-17
5566.128 6.0171e-17
5567.663 6.0267e-17
5569.198 5.8717e-17
5570.734 4.57e-17
5572.269 3.8501e-17
5573.804 6.1255e-17
5575.34 7.6828e-17
5576.875 1.0393e-16
5578.41 1.3274e-16
5579.946 8.8364e-17
5581.481 6.8246e-17
5583.016 8.3595e-17
5584.552 4.9481e-17
5586.087 7.4804e-17
5587.622 6.3575e-17
5589.158 6.6664e-17
5590.693 7.4287e-17
5592.228 7.504e-17
5593.764 7.5587e-17
5595.299 7.1312e-17
5596.834 6.7045e-17
5598.37 5.4759e-17
5599.905 5.4246e-17
5601.44 5.3253e-17
5602.976 5.7471e-17
5604.511 5.1716e-17
5606.046 6.32e-17
5607.582 5.9955e-17
5609.117 4.893e-17
5610.652 4.8239e-17
5612.188 5.7249e-17
5613.723 5.3985e-17
5615.258 4.8261e-17
5616.793 5.7491e-17
5618.329 5.4791e-17
5619.864 5.7661e-17
5621.399 5.6227e-17
5622.935 5.4325e-17
5624.47 5.0242e-17
5626.005 4.745e-17
5627.541 6.0642e-17
5629.076 6.3473e-17
5630.611 4.6573e-17
5632.146 5.3909e-17
5633.682 4.8956e-17
5635.217 4.8841e-17
5636.752 4.8211e-17
5638.288 5.2638e-17
5639.823 4.9783e-17
5641.358 5.1247e-17
5642.894 6.6456e-17
5644.429 4.9903e-17
5645.964 4.9062e-17
5647.5 6.9468e-17
5649.035 6.3266e-17
5650.57 5.746e-17
5652.105 5.1993e-17
5653.641 4.1426e-17
5655.176 5.4503e-17
5656.711 5.4786e-17
5658.247 4.7537e-17
5659.782 4.3096e-17
5661.317 4.6973e-17
5662.853 5.4652e-17
5664.388 4.6734e-17
5665.923 4.7866e-17
5667.458 5.3722e-17
5668.994 5.8303e-17
5670.529 5.5661e-17
5672.064 4.9148e-17
5673.6 4.4929e-17
5675.135 4.6963e-17
5676.67 4.6664e-17
5678.206 5.015e-17
5679.741 6.0112e-17
5681.276 5.7875e-17
5682.812 5.2468e-17
5684.347 4.8631e-17
5685.882 5.0008e-17
5687.418 5.4942e-17
5688.953 5.3541e-17
5690.488 5.753e-17
5692.024 5.2001e-17
5693.559 4.3583e-17
5695.094 5.7251e-17
5696.63 5.9057e-17
5698.165 5.4649e-17
5699.7 4.4225e-17
5701.236 5.0696e-17
5702.771 4.7747e-17
5704.306 4.1589e-17
5705.842 3.8731e-17
5707.377 3.6629e-17
5708.912 4.4839e-17
5710.448 5.0874e-17
5711.983 5.6462e-17
5713.518 6.3067e-17
5715.054 5.3972e-17
5716.589 5.9646e-17
5718.124 5.8481e-17
5719.66 5.4006e-17
5721.195 5.6374e-17
5722.73 6.0801e-17
5724.266 5.3292e-17
5725.801 4.6152e-17
5727.336 5.4726e-17
5728.872 5.6366e-17
5730.407 5.9528e-17
5731.942 5.8711e-17
5733.478 5.5139e-17
5735.013 4.9449e-17
5736.548 4.4263e-17
5738.083 5.3034e-17
5739.619 5.5456e-17
5741.154 4.8171e-17
5742.689 4.4417e-17
5744.225 4.6448e-17
5745.76 4.6182e-17
5747.295 5.1308e-17
5748.831 5.2884e-17
5750.366 5.7416e-17
5751.901 5.8299e-17
5753.437 4.7798e-17
5754.972 4.2736e-17
5756.507 5.1929e-17
5758.042 5.5494e-17
5759.578 4.8136e-17
5761.113 4.9869e-17
5762.648 4.5171e-17
5764.184 4.1153e-17
5765.719 4.7592e-17
5767.254 5.2985e-17
5768.79 5.0105e-17
5770.325 4.9833e-17
5771.86 5.9217e-17
5773.396 5.9086e-17
5774.931 5.8154e-17
5776.466 6.3714e-17
5778.001 7.0347e-17
5779.537 6.1284e-17
5781.072 4.9325e-17
5782.607 5.1687e-17
5784.143 4.957e-17
5785.678 5.4264e-17
5787.213 6.0301e-17
5788.749 6.092e-17
5790.284 5.8889e-17
5791.819 5.3319e-17
5793.354 6.291e-17
5794.89 6.1876e-17
5796.425 5.8133e-17
5797.96 5.6739e-17
5799.496 4.9538e-17
5801.031 4.7409e-17
5802.566 5.5972e-17
5804.102 6.7209e-17
5805.637 6.1498e-17
5807.172 5.1043e-17
5808.708 4.9259e-17
5810.243 4.9022e-17
5811.778 5.8934e-17
5813.314 5.7516e-17
5814.849 5.0854e-17
5816.384 5.5085e-17
5817.92 5.2815e-17
5819.455 5.2075e-17
5820.99 5.0225e-17
5822.526 5.1263e-17
5824.061 5.4618e-17
5825.596 4.8687e-17
5827.132 5.4012e-17
5828.667 6.6354e-17
5830.202 6.4799e-17
5831.738 5.7228e-17
5833.273 5.6046e-17
5834.808 5.922e-17
5836.344 7.4297e-17
5837.879 6.7444e-17
5839.414 5.0874e-17
5840.95 5.2754e-17
5842.485 5.1856e-17
5844.02 4.8799e-17
5845.556 5.4963e-17
5847.091 6.166e-17
5848.626 6.2829e-17
5850.162 5.4668e-17
5851.697 5.3982e-17
5853.232 5.7835e-17
5854.768 6.1465e-17
5856.303 5.8959e-17
5857.838 5.267e-17
5859.374 5.6457e-17
5860.909 5.7475e-17
5862.444 5.3897e-17
5863.979 4.6129e-17
5865.515 4.2323e-17
5867.05 4.8938e-17
5868.585 5.3895e-17
5870.121 5.3373e-17
5871.656 6.2725e-17
5873.191 6.0661e-17
5874.727 5.8217e-17
5876.262 5.1293e-17
5877.797 5.7682e-17
5879.333 6.4734e-17
5880.868 5.8955e-17
5882.403 5.3482e-17
5883.938 5.0019e-17
5885.474 5.2043e-17
5887.009 5.8924e-17
5888.544 7.3259e-17
5890.08 7.3245e-17
5891.615 5.631e-17
5893.15 5.679e-17
5894.686 5.8133e-17
5896.221 4.3038e-17
5897.756 3.5781e-17
5899.292 3.2544e-17
5900.827 5.2243e-17
5902.362 5.3272e-17
5903.897 5.207e-17
5905.433 5.9399e-17
5906.968 6.7334e-17
5908.503 6.8867e-17
5910.039 6.2653e-17
5911.574 4.7618e-17
5913.109 5.613e-17
5914.645 6.775e-17
5916.18 6.8699e-17
5917.715 6.1586e-17
5919.25 5.2817e-17
5920.786 5.6633e-17
5922.321 6.8829e-17
5923.856 5.9592e-17
5925.392 5.2917e-17
5926.927 5.7745e-17
5928.462 5.1157e-17
5929.998 4.4442e-17
5931.533 4.8754e-17
5933.068 5.8027e-17
5934.604 6.5624e-17
5936.139 5.6051e-17
5937.674 5.6003e-17
5939.21 5.9436e-17
5940.745 5.7267e-17
5942.28 6.3193e-17
5943.816 5.8107e-17
5945.351 5.1398e-17
5946.886 5.5608e-17
5948.422 6.463e-17
5949.957 6.1548e-17
5951.492 6.1319e-17
5953.028 7.0573e-17
5954.563 6.6701e-17
5956.098 6.6832e-17
5957.634 6.2421e-17
5959.169 5.179e-17
5960.704 5.8521e-17
5962.24 6.4713e-17
5963.775 5.9942e-17
5965.31 5.1392e-17
5966.846 5.2945e-17
5968.381 5.774e-17
5969.916 6.2738e-17
5971.452 6.1894e-17
5972.987 6.3122e-17
5974.522 5.8497e-17
5976.058 6.0654e-17
5977.593 7.1274e-17
5979.128 6.8504e-17
5980.664 5.405e-17
5982.199 4.9306e-17
5983.734 6.0231e-17
5985.269 5.5269e-17
5986.805 5.6417e-17
5988.34 5.5573e-17
5989.875 4.6781e-17
5991.411 5.4183e-17
5992.946 6.4643e-17
5994.481 5.9314e-17
5996.017 5.3691e-17
5997.552 5.1342e-17
5999.087 5.3079e-17
6000.623 5.4627e-17
6002.158 6.5176e-17
6003.693 7.01e-17
6005.229 5.6681e-17
6006.764 5.6405e-17
6008.299 5.8716e-17
6009.834 6.1504e-17
6011.37 7.125e-17
6012.905 5.8702e-17
6014.44 4.9693e-17
6015.976 5.0865e-17
6017.511 5.2637e-17
6019.046 5.3567e-17
6020.582 5.9967e-17
6022.117 7.0441e-17
6023.652 7.104e-17
6025.188 6.177e-17
6026.723 5.807e-17
6028.258 6.7604e-17
6029.793 6.0873e-17
6031.329 5.4525e-17
6032.864 5.4682e-17
6034.399 5.9661e-17
6035.935 5.3417e-17
6037.47 4.963e-17
6039.005 5.0296e-17
6040.541 5.9309e-17
6042.076 6.6137e-17
6043.611 6.26e-17
6045.146 6.4313e-17
6046.682 5.8148e-17
6048.217 5.5708e-17
6049.752 5.9686e-17
6051.288 6.4205e-17
6052.823 6.4103e-17
6054.358 5.6689e-17
6055.894 5.5092e-17
6057.429 5.6381e-17
6058.964 5.5047e-17
6060.5 5.3104e-17
6062.035 5.1009e-17
6063.57 5.6992e-17
6065.106 5.9893e-17
6066.641 5.6237e-17
6068.176 5.8774e-17
6069.712 5.2049e-17
6071.247 5.1227e-17
6072.782 5.6101e-17
6074.318 5.6759e-17
6075.853 5.9518e-17
6077.388 5.9896e-17
6078.924 5.4858e-17
6080.459 4.957e-17
6081.994 5.321e-17
6083.53 5.2596e-17
6085.065 4.6174e-17
6086.6 4.6909e-17
6088.136 4.6931e-17
6089.671 4.4232e-17
6091.206 4.6652e-17
6092.742 4.5278e-17
6094.277 4.336e-17
6095.812 4.6232e-17
6097.348 5.5927e-17
6098.883 6.0933e-17
6100.418 5.4876e-17
6101.953 4.9932e-17
6103.489 4.8473e-17
6105.024 4.5213e-17
6106.559 4.7066e-17
6108.095 5.5847e-17
6109.63 5.8453e-17
6111.165 4.4847e-17
6112.701 3.8106e-17
6114.236 4.47e-17
6115.771 4.3145e-17
6117.307 4.1706e-17
6118.842 4.3521e-17
6120.377 5.8458e-17
6121.913 6.5344e-17
6123.448 5.6658e-17
6124.983 5.2726e-17
6126.519 5.5518e-17
6128.054 5.7154e-17
6129.589 4.8543e-17
6131.125 4.686e-17
6132.66 5.2414e-17
6134.195 5.2243e-17
6135.73 5.4026e-17
6137.266 5.6063e-17
6138.801 5.1302e-17
6140.336 4.8433e-17
6141.872 4.8437e-17
6143.407 4.9727e-17
6144.942 5.0755e-17
6146.478 4.4953e-17
6148.013 4.087e-17
6149.548 4.5973e-17
6151.083 4.8623e-17
6152.619 4.944e-17
6154.154 4.9038e-17
6155.689 4.8783e-17
6157.225 4.182e-17
6158.76 4.3583e-17
6160.295 4.6792e-17
6161.831 4.61e-17
6163.366 5.5097e-17
6164.901 5.3949e-17
6166.437 4.7788e-17
6167.972 5.0568e-17
6169.507 5.4802e-17
6171.042 5.7353e-17
6172.578 5.3876e-17
6174.113 5.0939e-17
6175.648 4.1309e-17
6177.184 3.9442e-17
6178.719 4.9898e-17
6180.254 5.5335e-17
6181.79 4.7763e-17
6183.325 4.2155e-17
6184.86 5.2756e-17
6186.396 5.9865e-17
6187.931 5.4711e-17
6189.466 4.7778e-17
6191.002 4.6751e-17
6192.537 4.9643e-17
6194.072 5.246e-17
6195.608 4.5247e-17
6197.143 5.1136e-17
6198.678 5.7199e-17
6200.214 5.4922e-17
6201.749 6.2749e-17
6203.284 5.9053e-17
6204.82 5.9677e-17
6206.355 5.5959e-17
6207.89 4.3869e-17
6209.426 4.8957e-17
6210.961 5.4388e-17
6212.496 5.8314e-17
6214.032 4.9016e-17
6215.567 4.6062e-17
6217.102 4.656e-17
6218.638 4.9863e-17
6220.173 5.3658e-17
6221.708 4.2437e-17
6223.243 3.9245e-17
6224.779 4.0169e-17
6226.314 4.8343e-17
6227.849 5.3966e-17
6229.385 5.5008e-17
6230.92 4.9702e-17
6232.455 5.0704e-17
6233.991 4.7527e-17
6235.526 5.9103e-17
6237.061 6.3918e-17
6238.597 5.5403e-17
6240.132 5.2792e-17
6241.667 4.5796e-17
6243.203 4.9475e-17
6244.738 5.2612e-17
6246.273 5.4512e-17
6247.809 5.2319e-17
6249.344 5.0385e-17
6250.879 4.7989e-17
6252.415 4.8398e-17
6253.95 5.0411e-17
6255.485 4.5874e-17
6257.021 4.4533e-17
6258.556 5.0555e-17
6260.091 4.3954e-17
6261.626 4.3224e-17
6263.162 5.0939e-17
6264.697 4.8458e-17
6266.232 4.6986e-17
6267.768 5.0798e-17
6269.303 5.1963e-17
6270.838 4.816e-17
6272.374 5.4721e-17
6273.909 5.6484e-17
6275.444 4.6164e-17
6276.979 4.1726e-17
6278.515 4.1631e-17
6280.05 4.1851e-17
6281.585 4.7463e-17
6283.121 4.8813e-17
6284.656 4.1516e-17
6286.191 4.0557e-17
6287.727 4.6318e-17
6289.262 4.8037e-17
6290.797 4.1133e-17
6292.333 4.3237e-17
6293.868 4.24e-17
6295.403 4.009e-17
6296.938 4.3757e-17
6298.474 4.206e-17
6300.009 5.2812e-17
6301.544 5.3085e-17
6303.08 5.1732e-17
6304.615 3.9855e-17
6306.15 3.637e-17
6307.686 3.9933e-17
6309.221 4.2387e-17
6310.756 4.2258e-17
6312.292 4.5204e-17
6313.827 4.7748e-17
6315.362 4.321e-17
6316.898 4.3237e-17
6318.433 4.5602e-17
6319.968 4.2413e-17
6321.504 4.4997e-17
6323.039 4.7666e-17
6324.574 4.4235e-17
6326.11 4.128e-17
6327.645 4.3873e-17
6329.18 4.0553e-17
6330.716 3.7989e-17
6332.251 3.9992e-17
6333.786 4.1213e-17
6335.322 4.7796e-17
6336.857 4.9216e-17
6338.392 4.6154e-17
6339.927 4.9702e-17
6341.463 4.9764e-17
6342.998 4.3416e-17
6344.533 4.3964e-17
6346.069 4.1203e-17
6347.604 3.4923e-17
6349.139 3.7199e-17
6350.675 3.5174e-17
6352.21 3.9202e-17
6353.745 4.9605e-17
6355.281 4.828e-17
6356.816 3.9296e-17
6358.351 3.9948e-17
6359.887 4.3408e-17
6361.422 3.7902e-17
6362.957 4.432e-17
6364.493 4.6463e-17
6366.028 3.3545e-17
6367.563 3.5036e-17
6369.099 4.3187e-17
6370.634 4.913e-17
6372.169 5.4472e-17
6373.705 5.5022e-17
6375.24 4.9782e-17
6376.775 4.5675e-17
6378.311 4.5079e-17
6379.846 4.1172e-17
6381.381 4.0058e-17
6382.917 4.4502e-17
6384.452 4.5191e-17
6385.987 4.2956e-17
6387.522 4.3336e-17
6389.058 4.473e-17
6390.593 4.3893e-17
6392.128 4.5138e-17
6393.664 4.2772e-17
6395.199 3.4762e-17
6396.734 3.6673e-17
6398.27 4.3924e-17
6399.805 4.4132e-17
6401.34 4.1105e-17
6402.875 4.4243e-17
6404.411 4.4764e-17
6405.946 4.3812e-17
6407.481 4.6332e-17
6409.017 4.795e-17
6410.552 4.6319e-17
6412.087 4.1723e-17
6413.623 3.6275e-17
6415.158 4.0867e-17
6416.693 4.6212e-17
6418.229 4.4294e-17
6419.764 4.5027e-17
6421.299 4.063e-17
6422.834 4.1335e-17
6424.37 4.5843e-17
6425.905 4.4593e-17
6427.44 4.0502e-17
6428.976 4.0103e-17
6430.511 4.3345e-17
6432.046 4.1223e-17
6433.582 3.7823e-17
6435.117 4.4641e-17
6436.652 5.2251e-17
6438.188 4.914e-17
6439.723 4.1219e-17
6441.258 3.5164e-17
6442.794 4.0183e-17
6444.329 4.5327e-17
6445.864 4.2945e-17
6447.4 3.7844e-17
6448.935 4.0979e-17
6450.47 3.8999e-17
6452.006 3.5757e-17
6453.541 3.5668e-17
6455.076 3.5513e-17
6456.612 3.9952e-17
6458.147 4.3714e-17
6459.682 4.719e-17
6461.217 4.5866e-17
6462.753 4.7225e-17
6464.288 4.438e-17
6465.823 4.3349e-17
6467.359 4.407e-17
6468.894 4.6298e-17
6470.429 5.313e-17
6471.965 4.9441e-17
6473.5 4.0558e-17
6475.035 3.9492e-17
6476.571 4.2439e-17
6478.106 4.3605e-17
6479.641 4.2693e-17
6481.177 3.6792e-17
6482.712 3.3619e-17
6484.247 3.9825e-17
6485.783 4.2713e-17
6487.318 4.1832e-17
6488.853 4.1887e-17
6490.389 4.0567e-17
6491.924 4.6277e-17
6493.459 4.9186e-17
6494.995 3.8775e-17
6496.53 4.0468e-17
6498.065 4.1708e-17
6499.601 3.8191e-17
6501.136 4.007e-17
6502.671 4.8378e-17
6504.207 4.922e-17
6505.742 3.8973e-17
6507.277 3.247e-17
6508.812 3.3979e-17
6510.348 3.5473e-17
6511.883 4.0691e-17
6513.418 4.0951e-17
6514.954 4.5298e-17
6516.489 4.375e-17
6518.024 3.3725e-17
6519.56 3.2469e-17
6521.095 3.4556e-17
6522.63 4.2034e-17
6524.166 5.1392e-17
6525.701 5.0207e-17
6527.236 4.3888e-17
6528.771 3.7506e-17
6530.307 4.0382e-17
6531.842 4.1167e-17
6533.377 3.6891e-17
6534.913 3.979e-17
6536.448 4.2081e-17
6537.983 4.2146e-17
6539.519 4.2108e-17
6541.054 3.8759e-17
6542.589 3.4975e-17
6544.125 3.5671e-17
6545.66 3.963e-17
6547.195 4.4838e-17
6548.73 4.803e-17
6550.266 4.7083e-17
6551.801 4.4505e-17
6553.336 4.1315e-17
6554.872 3.5512e-17
6556.407 3.3207e-17
6557.942 3.732e-17
6559.478 4.4674e-17
6561.013 4.2094e-17
6562.548 3.6086e-17
6564.084 3.6104e-17
6565.619 3.4276e-17
6567.154 3.8867e-17
6568.69 4.2388e-17
6570.225 4.4332e-17
6571.76 3.7155e-17
6573.296 3.7852e-17
6574.831 4.7417e-17
6576.366 4.3742e-17
6577.901 3.8752e-17
6579.437 4.0094e-17
6580.972 3.7504e-17
6582.507 3.3779e-17
6584.043 3.9077e-17
6585.578 4.3629e-17
6587.113 4.4476e-17
6588.649 4.5894e-17
6590.184 4.1733e-17
6591.719 3.8347e-17
6593.255 3.3027e-17
6594.79 3.3189e-17
6596.325 3.6221e-17
6597.861 3.332e-17
6599.396 3.6235e-17
6600.931 4.4888e-17
6602.467 4.734e-17
6604.002 4.7757e-17
6605.537 4.3386e-17
6607.073 4.2672e-17
6608.608 4.1443e-17
6610.143 4.09e-17
6611.679 4.1633e-17
6613.214 3.864e-17
6614.749 3.8205e-17
6616.285 4.0027e-17
6617.82 4.3618e-17
6619.355 4.1922e-17
6620.891 3.4854e-17
6622.426 3.9944e-17
6623.961 4.496e-17
6625.497 4.6448e-17
6627.032 4.0351e-17
6628.567 3.6443e-17
6630.103 3.8352e-17
6631.638 4.4685e-17
6633.173 4.6855e-17
6634.708 4.42e-17
6636.244 4.1153e-17
6637.779 3.408e-17
6639.314 3.7899e-17
6640.85 4.4799e-17
6642.385 4.7154e-17
6643.92 4.2515e-17
6645.456 3.9606e-17
6646.991 3.6518e-17
6648.526 3.8437e-17
6650.062 4.8149e-17
6651.597 4.9206e-17
6653.132 4.3215e-17
6654.667 3.9186e-17
6656.203 3.9665e-17
6657.738 3.3858e-17
6659.273 3.398e-17
6660.809 4.1691e-17
6662.344 4.1899e-17
6663.879 3.7378e-17
6665.415 4.0107e-17
6666.95 4.1825e-17
6668.485 4.324e-17
6670.021 4.4813e-17
6671.556 4.6741e-17
6673.091 4.5257e-17
6674.626 4.1994e-17
6676.162 4.0199e-17
6677.697 4.0228e-17
6679.232 3.8885e-17
6680.768 4.0377e-17
6682.303 4.6383e-17
6683.838 4.3494e-17
6685.374 4.3277e-17
6686.909 4.2782e-17
6688.444 4.1232e-17
6689.98 4.3583e-17
6691.515 3.954e-17
6693.05 3.2526e-17
6694.586 3.6129e-17
6696.121 4.5127e-17
6697.656 4.3714e-17
6699.191 4.2768e-17
6700.727 4.5209e-17
6702.262 4.1588e-17
6703.797 4.3833e-17
6705.333 4.6507e-17
6706.868 4.1822e-17
6708.403 3.8203e-17
6709.939 4.4325e-17
6711.474 4.3878e-17
6713.009 3.597e-17
6714.545 4.0493e-17
6716.08 4.3071e-17
6717.615 4.2472e-17
6719.151 4.3316e-17
6720.686 4.5187e-17
6722.221 4.9212e-17
6723.757 4.5632e-17
6725.292 4.066e-17
6726.827 4.093e-17
6728.363 3.8479e-17
6729.898 3.9607e-17
6731.433 4.3569e-17
6732.969 3.9589e-17
6734.504 3.472e-17
6736.039 4.5806e-17
6737.575 5.0536e-17
6739.11 4.49e-17
6740.645 4.5447e-17
6742.181 5.1595e-17
6743.716 4.7705e-17
6745.251 4.2573e-17
6746.787 4.3373e-17
6748.322 4.6284e-17
6749.857 4.7131e-17
6751.393 4.5427e-17
6752.928 4.1775e-17
6754.463 4.0495e-17
6755.999 3.7847e-17
6757.534 3.6009e-17
6759.069 4.0978e-17
6760.604 4.4374e-17
6762.14 4.4882e-17
6763.675 4.8463e-17
6765.21 4.7841e-17
6766.746 4.7407e-17
6768.281 3.9849e-17
6769.816 3.6424e-17
6771.352 4.739e-17
6772.887 5.0065e-17
6774.422 4.5551e-17
6775.958 4.8195e-17
6777.493 4.5281e-17
6779.028 3.8357e-17
6780.563 3.826e-17
6782.099 3.6659e-17
6783.634 4.1121e-17
6785.169 4.5157e-17
6786.705 4.4033e-17
6788.24 4.2714e-17
6789.775 4.3302e-17
6791.311 4.2204e-17
6792.846 3.9064e-17
6794.381 3.8133e-17
6795.917 4.0371e-17
6797.452 4.4794e-17
6798.987 4.4504e-17
6800.522 4.7731e-17
6802.058 4.9215e-17
6803.593 4.5723e-17
6805.128 3.9703e-17
6806.664 3.6895e-17
6808.199 4.2367e-17
6809.734 4.6941e-17
6811.27 4.8664e-17
6812.805 4.7646e-17
6814.34 4.5011e-17
6815.876 4.799e-17
6817.411 4.9094e-17
6818.946 3.9576e-17
6820.481 3.4732e-17
6822.017 3.8349e-17
6823.552 3.8465e-17
6825.087 3.4812e-17
6826.623 3.9109e-17
6828.158 4.9144e-17
6829.693 4.9495e-17
6831.229 4.2124e-17
6832.764 4.2279e-17
6834.299 4.83e-17
6835.835 4.7075e-17
6837.37 4.1656e-17
6838.905 4.2694e-17
6840.441 4.2508e-17
6841.976 4.6271e-17
6843.511 4.8906e-17
6845.047 4.5705e-17
6846.582 4.3192e-17
6848.117 4.2031e-17
6849.653 4.5157e-17
6851.188 4.7034e-17
6852.723 4.6266e-17
6854.259 4.241e-17
6855.794 4.0319e-17
6857.329 4.0309e-17
6858.865 3.724e-17
6860.4 4.0318e-17
6861.935 4.9025e-17
6863.471 5.1874e-17
6865.006 4.4321e-17
6866.541 3.9241e-17
6868.077 4.1303e-17
6869.612 3.6791e-17
6871.147 3.3571e-17
6872.683 4.4704e-17
6874.218 4.6143e-17
6875.753 3.9066e-17
6877.289 3.8574e-17
6878.824 4.3259e-17
6880.359 4.8056e-17
6881.895 4.7542e-17
6883.43 4.5326e-17
6884.965 4.5901e-17
6886.5 4.3827e-17
6888.036 4.4596e-17
6889.571 4.4041e-17
6891.106 4.1433e-17
6892.642 3.803e-17
6894.177 3.9913e-17
6895.712 4.4917e-17
6897.248 4.584e-17
6898.783 4.6551e-17
6900.318 4.9563e-17
6901.854 5.2333e-17
6903.389 5.0123e-17
6904.924 4.1586e-17
6906.459 3.9212e-17
6907.995 4.5481e-17
6909.53 4.4376e-17
6911.065 4.3568e-17
6912.601 5.0306e-17
6914.136 5.0987e-17
6915.671 4.852e-17
6917.207 4.4686e-17
6918.742 4.6779e-17
6920.277 4.9048e-17
6921.812 4.7975e-17
6923.348 5.0459e-17
6924.883 4.3644e-17
6926.418 4.1513e-17
6927.954 4.6785e-17
6929.489 4.1323e-17
6931.024 4.2156e-17
6932.56 4.7677e-17
6934.095 4.308e-17
6935.63 4.2067e-17
6937.166 5.267e-17
6938.701 5.895e-17
6940.236 5.2002e-17
6941.771 4.8166e-17
6943.307 4.684e-17
6944.842 4.2636e-17
6946.377 4.7529e-17
6947.913 4.8228e-17
6949.448 4.6711e-17
6950.983 4.7207e-17
6952.519 4.5018e-17
6954.054 4.3475e-17
6955.589 4.1335e-17
6957.125 4.077e-17
6958.66 4.0332e-17
6960.195 3.7374e-17
6961.731 4.0419e-17
6963.266 4.8494e-17
6964.801 4.7342e-17
6966.337 4.3451e-17
6967.872 4.4374e-17
6969.407 4.2328e-17
6970.943 3.9997e-17
6972.478 3.9889e-17
6974.013 3.9147e-17
6975.549 3.7669e-17
6977.084 3.9018e-17
6978.619 4.351e-17
6980.155 4.2858e-17
6981.69 3.9248e-17
6983.225 4.5657e-17
6984.761 4.898e-17
6986.296 4.1519e-17
6987.831 3.9003e-17
6989.367 3.827e-17
6990.902 3.6056e-17
6992.437 3.8271e-17
6993.973 3.8965e-17
6995.508 4.001e-17
6997.043 4.3102e-17
6998.579 4.668e-17
7000.114 4.4048e-17
7001.649 3.7826e-17
7003.185 3.9462e-17
7004.72 4.4909e-17
7006.255 4.2753e-17
7007.791 4.1792e-17
7009.326 4.4276e-17
7010.861 4.3032e-17
7012.396 3.9721e-17
7013.932 3.93e-17
7015.467 4.1482e-17
7017.002 4.359e-17
7018.538 4.3045e-17
7020.073 4.4902e-17
7021.608 3.9816e-17
7023.144 3.5513e-17
7024.679 3.9003e-17
7026.214 3.6611e-17
7027.75 3.6973e-17
7029.285 4.2812e-17
7030.82 4.2205e-17
7032.355 3.7864e-17
7033.891 3.6508e-17
7035.426 3.5109e-17
7036.961 3.8166e-17
7038.497 4.2737e-17
7040.032 4.3461e-17
7041.567 3.833e-17
7043.103 4.0068e-17
7044.638 4.6859e-17
7046.173 4.3595e-17
7047.708 3.8967e-17
7049.244 4.2383e-17
7050.779 4.255e-17
7052.314 3.94e-17
7053.85 4.0669e-17
7055.385 3.8003e-17
7056.92 3.2634e-17
7058.456 3.3944e-17
7059.991 3.6151e-17
7061.526 3.6115e-17
7063.062 3.6942e-17
7064.597 3.6817e-17
7066.132 4.1389e-17
7067.667 4.3309e-17
7069.203 3.9597e-17
7070.738 3.7675e-17
7072.273 3.7429e-17
7073.809 3.6848e-17
7075.344 4.3087e-17
7076.879 4.2455e-17
7078.415 3.757e-17
7079.95 3.8731e-17
7081.485 3.8008e-17
7083.021 3.6728e-17
7084.556 3.4866e-17
7086.091 3.5989e-17
7087.627 3.8076e-17
7089.162 3.9994e-17
7090.697 3.6787e-17
7092.233 3.5083e-17
7093.768 4.0326e-17
7095.303 3.9871e-17
7096.839 3.5667e-17
7098.374 3.4442e-17
7099.909 3.7493e-17
7101.445 3.6236e-17
7102.98 3.3331e-17
7104.515 3.6835e-17
7106.051 4.2005e-17
7107.586 4.0002e-17
7109.121 4.0144e-17
7110.657 4.1018e-17
7112.192 3.6686e-17
7113.727 3.3245e-17
7115.263 3.7521e-17
7116.798 3.7643e-17
7118.333 3.7399e-17
7119.869 4.0035e-17
7121.404 3.7363e-17
7122.939 3.736e-17
7124.475 4.3241e-17
7126.01 4.0512e-17
7127.545 3.2213e-17
7129.081 3.2115e-17
7130.616 3.8422e-17
7132.151 3.9268e-17
7133.687 3.6513e-17
7135.222 3.7072e-17
7136.757 3.8325e-17
7138.292 3.9676e-17
7139.828 3.9261e-17
7141.363 3.8255e-17
7142.898 3.7132e-17
7144.434 3.5056e-17
7145.969 3.7225e-17
7147.504 4.1084e-17
7149.04 4.4869e-17
7150.575 4.2333e-17
7152.11 3.2883e-17
7153.646 2.799e-17
7155.181 3.2934e-17
7156.716 3.6087e-17
7158.251 3.5411e-17
7159.787 4.2545e-17
7161.322 4.1e-17
7162.857 3.7147e-17
7164.393 3.9555e-17
7165.928 3.4831e-17
7167.463 2.7937e-17
7168.999 3.1033e-17
7170.534 3.7774e-17
7172.069 3.6019e-17
7173.604 3.3859e-17
7175.14 3.4726e-17
7176.675 3.2835e-17
7178.21 3.3838e-17
7179.746 3.6285e-17
7181.281 3.3574e-17
7182.816 3.3388e-17
7184.352 3.7984e-17
7185.887 4.3368e-17
7187.422 3.8425e-17
7188.958 3.5118e-17
7190.493 3.8711e-17
7192.028 3.4836e-17
7193.563 3.4181e-17
7195.099 3.4887e-17
7196.634 3.4567e-17
7198.169 3.3502e-17
7199.705 3.4794e-17
7201.24 4.1569e-17
7202.775 4.1487e-17
7204.311 3.7934e-17
7205.846 3.836e-17
7207.381 3.5951e-17
7208.917 3.338e-17
7210.452 4.1043e-17
7211.987 4.3466e-17
7213.523 3.9873e-17
7215.058 4.0989e-17
7216.593 4.176e-17
7218.129 3.9246e-17
7219.664 3.8621e-17
7221.199 4.1023e-17
7222.735 3.5164e-17
7224.27 3.3351e-17
7225.805 3.5987e-17
7227.341 3.6388e-17
7228.876 3.6087e-17
7230.411 3.5522e-17
7231.947 3.4453e-17
7233.482 3.0568e-17
7235.017 3.4053e-17
7236.553 3.5802e-17
7238.088 3.0194e-17
7239.623 2.6829e-17
7241.159 3.3137e-17
7242.694 3.1305e-17
7244.229 3.0606e-17
7245.765 4.2044e-17
7247.3 4.2598e-17
7248.835 3.1413e-17
7250.371 3.0626e-17
7251.906 3.5219e-17
7253.441 3.5442e-17
7254.977 3.6348e-17
7256.512 3.6886e-17
7258.047 3.7483e-17
7259.583 3.6652e-17
7261.118 3.8785e-17
7262.653 4.1033e-17
7264.188 3.7991e-17
7265.724 3.6087e-17
7267.259 3.8909e-17
7268.794 3.7174e-17
7270.33 3.1426e-17
7271.865 3.1672e-17
7273.4 4.0926e-17
7274.936 3.721e-17
7276.471 3.2734e-17
7278.006 2.9648e-17
7279.542 2.4955e-17
7281.077 3.6851e-17
7282.612 4.3235e-17
7284.147 3.7269e-17
7285.683 3.4244e-17
7287.218 4.0013e-17
7288.753 4.0884e-17
7290.289 3.281e-17
7291.824 3.2793e-17
7293.359 3.586e-17
7294.895 3.7256e-17
7296.43 3.6995e-17
7297.965 3.3928e-17
7299.5 3.6591e-17
7301.036 3.7504e-17
7302.571 4.2882e-17
7304.106 4.4769e-17
7305.642 3.8569e-17
7307.177 3.5036e-17
7308.712 3.3262e-17
7310.248 3.4226e-17
7311.783 3.5828e-17
7313.318 3.6801e-17
7314.854 3.3464e-17
7316.389 3.8942e-17
7317.924 3.8939e-17
7319.459 2.8445e-17
7320.995 3.134e-17
7322.53 3.5652e-17
7324.065 2.9995e-17
7325.601 2.6357e-17
7327.136 3.0833e-17
7328.671 3.4706e-17
7330.207 2.9607e-17
7331.742 2.3683e-17
7333.277 2.6356e-17
7334.813 2.8904e-17
7336.348 3.1448e-17
7337.883 3.476e-17
7339.419 3.7277e-17
7340.954 3.1819e-17
7342.489 3.6543e-17
7344.025 3.4044e-17
7345.56 2.8971e-17
7347.095 3.35e-17
7348.631 3.5861e-17
7350.166 3.2439e-17
7351.701 3.3575e-17
7353.237 3.3559e-17
7354.772 3.6449e-17
7356.307 3.9278e-17
7357.843 2.9476e-17
7359.378 2.7094e-17
7360.913 2.9961e-17
7362.449 3.1044e-17
7363.984 2.9701e-17
7365.519 3.2013e-17
7367.055 3.1107e-17
7368.59 2.3522e-17
7370.125 1.9728e-17
7371.661 2.7547e-17
7373.196 3.2998e-17
7374.731 2.9548e-17
7376.267 2.9665e-17
7377.802 3.5688e-17
7379.337 3.6395e-17
7380.873 2.8725e-17
7382.408 2.5177e-17
7383.943 3.0601e-17
7385.479 3.0318e-17
7387.014 3.4183e-17
7388.549 3.4477e-17
7390.084 2.4472e-17
7391.62 2.6118e-17
7393.155 3.3012e-17
7394.69 3.0196e-17
7396.226 3.4162e-17
7397.761 3.8825e-17
7399.296 3.3818e-17
7400.832 2.7439e-17
7402.367 2.6757e-17
7403.902 3.1363e-17
7405.438 3.7361e-17
7406.973 3.4894e-17
7408.508 3.5464e-17
7410.043 3.1733e-17
7411.579 2.6705e-17
7413.114 3.0291e-17
7414.649 2.9169e-17
7416.185 2.8e-17
7417.72 3.4063e-17
7419.255 3.4842e-17
7420.791 3.1887e-17
7422.326 3.2596e-17
7423.861 3.226e-17
7425.396 3.4123e-17
7426.932 3.5147e-17
7428.467 3.5214e-17
7430.002 3.7754e-17
7431.538 3.5676e-17
7433.073 3.3109e-17
7434.608 3.4939e-17
7436.144 3.5041e-17
7437.679 3.5098e-17
7439.214 3.5967e-17
7440.75 3.3176e-17
7442.285 3.3635e-17
7443.82 3.7594e-17
7445.355 3.6325e-17
7446.891 3.1797e-17
7448.426 3.0666e-17
7449.961 3.0429e-17
7451.497 2.6903e-17
7453.032 2.8894e-17
7454.567 3.4432e-17
7456.103 3.2981e-17
7457.638 3.3167e-17
7459.173 3.7874e-17
7460.709 3.3819e-17
7462.244 3.257e-17
7463.779 3.3577e-17
7465.315 3.2417e-17
7466.85 3.2599e-17
7468.385 3.105e-17
7469.921 3.11e-17
7471.456 3.2281e-17
7472.991 2.9228e-17
7474.527 2.8477e-17
7476.062 3.5702e-17
7477.597 3.5741e-17
7479.133 3.0838e-17
7480.668 3.0617e-17
7482.203 2.9685e-17
7483.739 3.0627e-17
7485.274 2.9695e-17
7486.809 2.6706e-17
7488.345 2.756e-17
7489.88 2.5026e-17
7491.415 2.4017e-17
7492.951 2.7197e-17
7494.486 3.1923e-17
7496.021 3.2641e-17
7497.557 2.9995e-17
7499.092 3.1132e-17
7500.627 2.9601e-17
7502.163 2.5956e-17
7503.698 2.5974e-17
7505.233 3.4188e-17
7506.769 2.8378e-17
7508.304 2.3817e-17
7509.839 3.0589e-17
7511.375 3.2197e-17
7512.91 2.7713e-17
7514.445 2.659e-17
7515.98 2.9897e-17
7517.516 2.7695e-17
7519.051 2.741e-17
7520.586 3.1893e-17
7522.122 3.1275e-17
7523.657 2.5374e-17
7525.192 2.8948e-17
7526.728 3.0923e-17
7528.263 3.2093e-17
7529.798 3.6046e-17
7531.333 3.4273e-17
7532.869 2.6888e-17
7534.404 2.996e-17
7535.939 3.209e-17
7537.475 2.6055e-17
7539.01 2.8542e-17
7540.545 3.0673e-17
7542.081 2.8864e-17
7543.616 2.8389e-17
7545.151 2.9245e-17
7546.687 2.804e-17
7548.222 2.4718e-17
7549.757 2.5296e-17
7551.292 3.1267e-17
7552.828 3.3744e-17
7554.363 3.0433e-17
7555.898 3.0475e-17
7557.434 3.0044e-17
7558.969 2.9904e-17
7560.504 3.0357e-17
7562.04 2.6152e-17
7563.575 2.574e-17
7565.11 2.7699e-17
7566.646 2.9995e-17
7568.181 3.1339e-17
7569.716 2.8224e-17
7571.251 2.7262e-17
7572.787 3.113e-17
7574.322 3.2281e-17
7575.857 3.0763e-17
7577.393 3.229e-17
7578.928 3.4261e-17
7580.463 3.3876e-17
7581.999 3.121e-17
7583.534 3.213e-17
7585.069 3.5109e-17
7586.605 3.6669e-17
7588.14 3.4252e-17
7589.675 2.9394e-17
7591.211 2.665e-17
7592.746 2.4806e-17
7594.281 2.9108e-17
7595.817 3.3454e-17
7597.352 3.0996e-17
7598.887 2.4329e-17
7600.423 2.8317e-17
7601.958 3.2402e-17
7603.493 1.4199e-17
7605.029 1.435e-17
7606.564 2.1716e-17
7608.099 1.5685e-17
7609.635 2.3061e-17
7611.17 2.9431e-17
7612.705 2.3471e-17
7614.241 2.0145e-17
7615.776 2.499e-17
7617.311 3.2376e-17
7618.847 3.0306e-17
7620.382 3.1966e-17
7621.917 3.2237e-17
7623.453 1.8357e-17
7624.988 2.0733e-17
7626.523 3.8857e-17
7628.059 3.4707e-17
7629.594 2.4462e-17
7631.129 2.7804e-17
7632.665 2.675e-17
7634.2 1.9375e-17
7635.735 2.4246e-17
7637.271 3.008e-17
7638.806 2.5097e-17
7640.341 2.2722e-17
7641.876 2.4617e-17
7643.412 2.1635e-17
7644.947 2.0175e-17
7646.482 2.7174e-17
7648.018 3.2526e-17
7649.553 2.9985e-17
7651.088 2.7616e-17
7652.624 2.9554e-17
7654.159 3.0119e-17
7655.694 2.6146e-17
7657.229 2.5219e-17
7658.765 1.8194e-17
7660.3 1.4923e-17
7661.835 1.8353e-17
7663.371 2.0127e-17
7664.906 2.2373e-17
7666.441 2.9218e-17
7667.977 3.1396e-17
7669.512 2.6382e-17
7671.047 2.5837e-17
7672.583 2.9677e-17
7674.118 2.8161e-17
7675.653 2.4783e-17
7677.188 2.5869e-17
7678.724 2.6619e-17
7680.259 2.5375e-17
7681.794 3.0004e-17
7683.33 2.9302e-17
7684.865 2.4538e-17
7686.4 2.6719e-17
7687.936 3.0047e-17
7689.471 2.4096e-17
7691.006 2.2183e-17
7692.542 2.8852e-17
7694.077 3.0044e-17
7695.612 2.6559e-17
7697.147 2.8462e-17
7698.683 2.6875e-17
7700.218 2.9094e-17
7701.753 3.1963e-17
7703.289 2.8062e-17
7704.824 2.0842e-17
7706.359 1.9236e-17
7707.895 2.6191e-17
7709.43 2.7008e-17
7710.965 2.3529e-17
7712.501 2.9655e-17
7714.036 2.7662e-17
7715.571 3.1274e-17
7717.107 3.2391e-17
7718.642 2.8842e-17
7720.177 2.2068e-17
7721.713 2.4088e-17
7723.248 3.1081e-17
7724.783 2.7699e-17
7726.319 2.8914e-17
7727.854 3.2782e-17
7729.389 2.6509e-17
7730.925 2.5273e-17
7732.46 2.8203e-17
7733.995 2.7529e-17
7735.531 2.5819e-17
7737.066 2.4817e-17
7738.601 2.4453e-17
7740.137 2.9996e-17
7741.672 2.8567e-17
7743.207 2.7695e-17
7744.743 2.2791e-17
7746.278 2.0956e-17
7747.813 1.8509e-17
7749.349 2.5323e-17
7750.884 3.7702e-17
7752.419 3.5778e-17
7753.955 2.9189e-17
7755.49 2.7415e-17
7757.025 2.8229e-17
7758.561 2.9957e-17
7760.096 2.4415e-17
7761.631 2.7058e-17
7763.167 3.149e-17
7764.702 2.901e-17
7766.237 2.7116e-17
7767.772 2.7391e-17
7769.308 2.9547e-17
7770.843 3.1826e-17
7772.378 2.7333e-17
7773.914 2.618e-17
7775.449 2.745e-17
7776.984 2.8431e-17
7778.52 3.0138e-17
7780.055 2.9404e-17
7781.59 2.3107e-17
7783.125 2.3238e-17
7784.661 2.9661e-17
7786.196 3.0364e-17
7787.731 2.7358e-17
7789.267 2.3621e-17
7790.802 2.4936e-17
7792.337 2.6631e-17
7793.873 2.3339e-17
7795.408 1.6502e-17
7796.943 1.4685e-17
7798.479 2.3014e-17
7800.014 3.102e-17
7801.549 2.7496e-17
7803.084 2.74e-17
7804.62 3.505e-17
7806.155 3.8668e-17
7807.69 3.371e-17
7809.226 3.2093e-17
7810.761 3.0587e-17
7812.296 2.5809e-17
7813.832 2.5599e-17
7815.367 2.5864e-17
7816.902 2.4499e-17
7818.438 3.4191e-17
7819.973 3.1175e-17
7821.508 2.1233e-17
7823.043 2.761e-17
7824.579 2.9272e-17
7826.114 2.6329e-17
7827.649 2.7575e-17
7829.185 3.0118e-17
7830.72 2.561e-17
7832.255 2.4687e-17
7833.791 2.4443e-17
7835.326 2.6508e-17
7836.861 3.3119e-17
7838.397 3.6331e-17
7839.932 3.3477e-17
7841.467 2.6142e-17
7843.003 2.3048e-17
7844.538 2.2913e-17
7846.073 2.1008e-17
7847.609 1.903e-17
7849.144 2.768e-17
7850.679 2.9706e-17
7852.215 1.8149e-17
7853.75 1.6123e-17
7855.285 2.0616e-17
7856.821 2.5924e-17
7858.356 2.9272e-17
7859.891 3.0638e-17
7861.427 2.4982e-17
7862.962 1.9311e-17
7864.497 2.4997e-17
7866.033 2.991e-17
7867.568 2.8975e-17
7869.103 3.2344e-17
7870.639 3.6116e-17
7872.174 3.1793e-17
7873.709 2.4664e-17
7875.245 2.4608e-17
7876.78 2.6574e-17
7878.315 2.8641e-17
7879.851 3.1869e-17
7881.386 3.0827e-17
7882.921 2.8777e-17
7884.457 3.146e-17
7885.992 3.1555e-17
7887.527 2.5022e-17
7889.062 1.7217e-17
7890.598 2.0919e-17
7892.133 2.7096e-17
7893.668 2.8105e-17
7895.204 3.0399e-17
7896.739 2.9053e-17
7898.274 2.6834e-17
7899.81 2.4101e-17
7901.345 2.6334e-17
7902.88 2.9517e-17
7904.416 2.9996e-17
7905.951 3.0981e-17
7907.486 2.6223e-17
7909.021 2.8322e-17
7910.557 3.3109e-17
7912.092 3.1144e-17
7913.627 2.7826e-17
7915.163 2.6813e-17
7916.698 3.1538e-17
7918.233 3.2444e-17
7919.769 3.0591e-17
7921.304 3.38e-17
7922.839 3.2506e-17
7924.375 2.746e-17
7925.91 3.2728e-17
7927.445 3.5645e-17
7928.98 3.0633e-17
7930.516 2.8802e-17
7932.051 2.8368e-17
7933.586 2.3651e-17
7935.122 2.2702e-17
7936.657 2.7051e-17
7938.192 3.0736e-17
7939.728 2.8156e-17
7941.263 2.6793e-17
7942.798 2.7251e-17
7944.333 2.7445e-17
7945.869 1.7553e-17
7947.404 1.3266e-17
7948.939 2.3706e-17
7950.475 3.5587e-17
7952.01 3.611e-17
7953.545 3.0061e-17
7955.081 2.5868e-17
7956.616 2.7028e-17
7958.151 2.4925e-17
7959.687 2.074e-17
7961.222 2.2772e-17
7962.757 2.8512e-17
7964.293 3.0235e-17
7965.828 2.525e-17
7967.363 2.2567e-17
7968.899 2.5931e-17
7970.434 2.7039e-17
7971.969 2.728e-17
7973.505 2.3213e-17
7975.04 2.4211e-17
7976.575 2.8188e-17
7978.111 2.7111e-17
7979.646 3.0788e-17
7981.181 2.6978e-17
7982.717 2.4465e-17
7984.252 2.4251e-17
7985.787 2.2631e-17
7987.323 2.4568e-17
7988.858 2.7775e-17
7990.393 3.5401e-17
7991.929 3.9398e-17
7993.464 2.0195e-17
7994.999 1.2609e-17
7996.535 2.1671e-17
7998.07 2.3376e-17
7999.605 2.1621e-17
8001.141 2.423e-17
8002.676 2.5771e-17
8004.211 1.8873e-17
8005.747 1.8244e-17
8007.282 2.1167e-17
8008.817 2.2551e-17
8010.352 2.3866e-17
8011.888 2.5846e-17
8013.423 2.6264e-17
8014.958 2.3836e-17
8016.494 2.2075e-17
8018.029 2.288e-17
8019.564 2.3075e-17
8021.1 2.4153e-17
8022.635 2.4817e-17
8024.17 2.5812e-17
8025.706 1.7361e-17
8027.241 2.0518e-17
8028.776 2.498e-17
8030.312 1.9942e-17
8031.847 1.9167e-17
8033.382 1.9878e-17
8034.917 1.9366e-17
8036.453 2.4629e-17
8037.988 2.3775e-17
8039.523 2.2737e-17
8041.059 2.1924e-17
8042.594 2.3303e-17
8044.129 2.3564e-17
8045.665 1.8552e-17
8047.2 2.36e-17
8048.735 2.3921e-17
8050.271 2.2639e-17
8051.806 2.3793e-17
8053.341 2.2417e-17
8054.876 1.8747e-17
8056.412 2.08e-17
8057.947 2.1815e-17
8059.482 2.0282e-17
8061.018 2.0551e-17
8062.553 2.4716e-17
8064.088 2.5866e-17
8065.624 2.638e-17
8067.159 2.4743e-17
8068.694 2.209e-17
8070.229 2.2299e-17
8071.765 2.1527e-17
8073.3 2.2875e-17
8074.835 2.5396e-17
8076.371 2.5934e-17
8077.906 2.5904e-17
8079.441 2.2888e-17
8080.977 2.1191e-17
8082.512 1.9232e-17
8084.047 2.029e-17
8085.583 2.0654e-17
8087.118 2.021e-17
8088.653 2.4248e-17
8090.189 2.4156e-17
8091.724 2.2789e-17
8093.259 2.1958e-17
8094.795 2.1481e-17
8096.33 2.407e-17
8097.865 2.4301e-17
8099.401 2.3506e-17
8100.936 2.3613e-17
8102.471 2.5418e-17
8104.007 2.5494e-17
8105.542 2.4136e-17
8107.077 1.9603e-17
8108.613 2.0638e-17
8110.148 2.3491e-17
8111.683 2.3124e-17
8113.219 2.4358e-17
8114.754 2.3292e-17
8116.289 2.0804e-17
8117.825 2.0705e-17
8119.36 2.2581e-17
8120.895 2.3172e-17
8122.431 2.1109e-17
8123.966 2.2691e-17
8125.501 2.3648e-17
8127.037 2.0795e-17
8128.572 2.3288e-17
8130.107 2.7928e-17
8131.642 2.5204e-17
8133.178 2.0972e-17
8134.713 2.2428e-17
8136.248 2.5351e-17
8137.784 2.7703e-17
8139.319 2.9696e-17
8140.854 3.0339e-17
8142.39 2.8153e-17
8143.925 2.5119e-17
8145.46 2.2476e-17
8146.996 2.0918e-17
8148.531 2.2029e-17
8150.066 2.489e-17
8151.602 2.5788e-17
8153.137 2.3127e-17
8154.672 2.2478e-17
8156.208 1.8891e-17
8157.743 1.4402e-17
8159.278 2.0922e-17
8160.813 2.7529e-17
8162.349 2.4543e-17
8163.884 2.1754e-17
8165.419 2.1447e-17
8166.955 1.8513e-17
8168.49 2.0183e-17
8170.025 2.7551e-17
8171.561 3.0001e-17
8173.096 2.8829e-17
8174.631 2.5812e-17
8176.167 2.1878e-17
8177.702 2.1504e-17
8179.237 2.4626e-17
8180.772 2.8344e-17
8182.308 3.1344e-17
8183.843 3.0228e-17
8185.378 2.6606e-17
8186.914 2.4114e-17
8188.449 1.9975e-17
8189.984 2.1699e-17
8191.52 2.5887e-17
8193.055 2.3323e-17
8194.59 2.4534e-17
8196.126 2.754e-17
8197.661 2.2156e-17
8199.196 2.0958e-17
8200.731 2.4947e-17
8202.267 2.5094e-17
8203.802 2.3721e-17
8205.338 2.2684e-17
8206.873 1.9137e-17
8208.408 1.6252e-17
8209.943 1.9794e-17
8211.479 2.5293e-17
8213.014 2.2953e-17
8214.55 1.9738e-17
8216.085 2.507e-17
8217.62 2.2088e-17
8219.155 2.1237e-17
8220.69 2.2865e-17
8222.226 2.2943e-17
8223.762 2.2829e-17
8225.297 2.3208e-17
8226.832 2.2297e-17
8228.367 2.1437e-17
8229.902 2.3244e-17
8231.438 2.6824e-17
8232.974 2.3593e-17
8234.509 2.1719e-17
8236.044 2.5139e-17
8237.579 2.606e-17
8239.114 2.5947e-17
8240.649 2.2857e-17
8242.186 2.5106e-17
8243.721 2.8183e-17
8245.256 2.7213e-17
8246.791 2.3014e-17
8248.326 2.1021e-17
8249.861 2.2695e-17
8251.397 2.6016e-17
8252.933 2.6439e-17
8254.468 2.5264e-17
8256.003 2.2313e-17
8257.538 2.4025e-17
8259.073 2.443e-17
8260.609 2.2109e-17
8262.145 2.1332e-17
8263.68 2.1715e-17
8265.215 2.2219e-17
8266.75 2.6165e-17
8268.285 2.6947e-17
8269.821 2.3992e-17
8271.356 2.1813e-17
8272.892 1.9087e-17
8274.427 2.1486e-17
8275.962 3.3001e-17
8277.497 3.1269e-17
8279.033 1.2365e-17
8280.568 1.2061e-17
8282.104 2.0875e-17
8283.639 2.0889e-17
8285.174 2.7459e-17
8286.709 2.4624e-17
8288.245 2.1905e-17
8289.78 2.3043e-17
8291.315 2.2543e-17
8292.851 2.3213e-17
8294.386 2.207e-17
8295.921 1.7384e-17
8297.457 1.7446e-17
8298.992 1.8398e-17
8300.527 2.4871e-17
8302.062 2.6271e-17
8303.598 2.2334e-17
8305.133 2.6183e-17
8306.668 3.1607e-17
8308.204 2.5e-17
8309.739 1.9723e-17
8311.274 2.6772e-17
8312.81 2.726e-17
8314.345 1.9085e-17
8315.88 1.8651e-17
8317.416 1.9813e-17
8318.951 1.843e-17
8320.486 2.2063e-17
8322.021 2.0531e-17
8323.557 1.967e-17
8325.092 2.1602e-17
8326.628 2.6098e-17
8328.163 2.7066e-17
8329.698 2.5027e-17
8331.233 2.2635e-17
8332.769 2.4571e-17
8334.304 2.6267e-17
8335.84 2.493e-17
8337.375 2.4205e-17
8338.91 2.3906e-17
8340.445 3.6567e-17
8341.98 4.7592e-17
8343.516 4.7412e-17
8345.052 2.9377e-17
8346.587 1.0176e-17
8348.122 1.6412e-17
8349.657 2.4891e-17
8351.192 2.2328e-17
8352.728 2.6917e-17
8354.264 2.8279e-17
8355.799 2.2546e-17
8357.334 2.1388e-17
8358.869 2.6115e-17
8360.404 3.0928e-17
8361.939 2.927e-17
8363.476 2.4674e-17
8365.011 2.2581e-17
8366.546 2.2605e-17
8368.081 2.2941e-17
8369.616 2.553e-17
8371.151 2.4892e-17
8372.688 2.0031e-17
8374.223 1.7388e-17
8375.758 1.8069e-17
8377.293 2.6156e-17
8378.828 3.0332e-17
8380.363 2.1963e-17
8381.899 1.8986e-17
8383.435 2.646e-17
8384.97 2.6755e-17
8386.505 2.2327e-17
8388.04 2.641e-17
8389.575 2.685e-17
8391.111 2.0635e-17
8392.646 2.1994e-17
8394.182 3.0611e-17
8395.717 2.5912e-17
8397.252 2.0787e-17
8398.787 2.9875e-17
8400.323 2.6884e-17
8401.858 1.659e-17
8403.394 1.7299e-17
8404.929 2.6162e-17
8406.464 2.7821e-17
8407.999 2.4352e-17
8409.535 2.5882e-17
8411.07 2.7646e-17
8412.605 2.6521e-17
8414.141 2.9966e-17
8415.676 3.2513e-17
8417.211 2.6553e-17
8418.747 1.9975e-17
8420.282 2.4061e-17
8421.817 2.4412e-17
8423.353 2.4459e-17
8424.888 3.122e-17
8426.423 3.8396e-17
8427.958 3.6325e-17
8429.494 2.7023e-17
8431.029 2.5065e-17
8432.564 3.1949e-17
8434.1 2.3742e-17
8435.635 2.31e-17
8437.17 2.3354e-17
8438.706 2.2702e-17
8440.241 2.1815e-17
8441.776 2.171e-17
8443.312 2.4228e-17
8444.847 2.3616e-17
8446.382 2.1216e-17
8447.918 2.2684e-17
8449.453 2.6381e-17
8450.988 2.6375e-17
8452.523 2.3552e-17
8454.059 2.4684e-17
8455.594 2.4138e-17
8457.13 2.034e-17
8458.665 2.1733e-17
8460.2 3.0972e-17
8461.735 3.9544e-17
8463.271 3.5761e-17
8464.806 3.3789e-17
8466.342 2.4259e-17
8467.877 2.4835e-17
8469.412 2.5997e-17
8470.947 2.7014e-17
8472.482 2.5036e-17
8474.018 2.7992e-17
8475.554 2.8875e-17
8477.089 2.8802e-17
8478.624 2.6158e-17
8480.159 2.611e-17
8481.694 2.5733e-17
8483.229 2.362e-17
8484.766 2.5091e-17
8486.301 2.4903e-17
8487.836 2.3319e-17
8489.371 2.7927e-17
8490.906 3.6044e-17
8492.441 3.0652e-17
8493.978 2.6118e-17
8495.513 2.3491e-17
8497.048 2.0454e-17
8498.583 2.0827e-17
8500.118 2.5261e-17
8501.653 2.7534e-17
8503.189 2.9732e-17
8504.725 3.6729e-17
8506.26 3.4929e-17
8507.795 2.5187e-17
8509.33 2.9165e-17
8510.865 3.4491e-17
8512.401 3.1625e-17
8513.937 2.8632e-17
8515.472 2.6848e-17
8517.007 2.5629e-17
8518.542 1.9527e-17
8520.077 1.9171e-17
8521.613 2.7072e-17
8523.148 3.4342e-17
8524.684 3.0532e-17
8526.219 2.7733e-17
8527.754 2.8179e-17
8529.289 2.8057e-17
8530.825 3.0096e-17
8532.36 3.0163e-17
8533.896 2.7058e-17
8535.431 3.1338e-17
8536.966 3.2447e-17
8538.501 2.6563e-17
8540.037 2.4893e-17
8541.572 2.8407e-17
8543.107 2.8901e-17
8544.643 2.8671e-17
8546.178 3.0746e-17
8547.713 2.8376e-17
8549.248 2.8755e-17
8550.784 2.7701e-17
8552.319 2.4517e-17
8553.854 2.4758e-17
8555.39 2.5972e-17
8556.925 2.2425e-17
8558.46 1.7529e-17
8559.996 2.059e-17
8561.531 2.4901e-17
8563.066 2.6075e-17
8564.602 2.5167e-17
8566.137 2.4353e-17
8567.672 2.7431e-17
8569.208 2.6267e-17
8570.743 2.4664e-17
8572.278 2.8048e-17
8573.813 2.635e-17
8575.349 2.2112e-17
8576.884 2.45e-17
8578.42 2.8122e-17
8579.955 2.8496e-17
8581.49 2.9113e-17
8583.025 2.6997e-17
8584.561 2.5717e-17
8586.096 2.2202e-17
8587.632 2.0464e-17
8589.167 2.5743e-17
8590.702 2.7452e-17
8592.237 3.0291e-17
8593.772 2.9349e-17
8595.308 2.4747e-17
8596.844 2.249e-17
8598.379 2.4045e-17
8599.914 2.4414e-17
8601.449 2.5413e-17
8602.984 2.5769e-17
8604.52 2.0729e-17
8606.056 2.1895e-17
8607.591 2.4603e-17
8609.126 2.1641e-17
8610.661 2.3098e-17
8612.196 2.5237e-17
8613.731 2.4573e-17
8615.268 2.1383e-17
8616.803 2.2192e-17
8618.338 2.4194e-17
8619.873 2.3272e-17
8621.408 2.5993e-17
8622.943 2.4337e-17
8624.479 2.5927e-17
8626.015 2.9934e-17
8627.55 3.1171e-17
8629.085 2.8043e-17
8630.62 2.011e-17
8632.155 1.4501e-17
8633.691 1.6634e-17
8635.227 2.2765e-17
8636.762 2.8525e-17
8638.297 3.0789e-17
8639.832 2.9707e-17
8641.367 2.7346e-17
8642.903 3.0657e-17
8644.438 3.1211e-17
8645.974 3.173e-17
8647.509 3.5763e-17
8649.044 3.4626e-17
8650.579 2.5345e-17
8652.115 2.3152e-17
8653.65 2.4529e-17
8655.186 3.2127e-17
8656.721 4.0824e-17
8658.256 3.6618e-17
8659.791 3.1902e-17
8661.327 2.1571e-17
8662.862 2.9353e-17
8664.397 2.3239e-17
8665.933 1.3772e-17
8667.468 2.1083e-17
8669.003 2.3615e-17
8670.538 2.6954e-17
8672.074 2.9921e-17
8673.609 1.7332e-17
8675.145 2.2745e-17
8676.68 2.8042e-17
8678.215 2.8465e-17
8679.75 2.5573e-17
8681.286 2.4547e-17
8682.821 2.7693e-17
8684.356 2.6309e-17
8685.892 2.8367e-17
8687.427 2.8373e-17
8688.962 2.7143e-17
8690.498 2.3046e-17
8692.033 2.1735e-17
8693.568 2.5923e-17
8695.104 2.5836e-17
8696.639 2.2827e-17
8698.174 2.7494e-17
8699.71 2.8457e-17
8701.245 2.5465e-17
8702.78 2.0245e-17
8704.315 2.283e-17
8705.851 2.4216e-17
8707.386 2.422e-17
8708.922 2.5923e-17
8710.457 2.3772e-17
8711.992 2.6163e-17
8713.527 3.2242e-17
8715.062 2.869e-17
8716.598 2.1447e-17
8718.134 1.8248e-17
8719.669 2.431e-17
8721.204 3.0739e-17
8722.739 2.5436e-17
8724.274 2.4738e-17
8725.81 2.8734e-17
8727.346 2.6038e-17
8728.881 2.5146e-17
8730.416 2.8786e-17
8731.951 3.0942e-17
8733.486 2.781e-17
8735.021 2.3472e-17
8736.558 2.1355e-17
8738.093 2.1367e-17
8739.628 2.134e-17
8741.163 2.2478e-17
8742.698 2.3972e-17
8744.233 2.5264e-17
8745.77 2.6925e-17
8747.305 2.4935e-17
8748.84 2.2356e-17
8750.375 2.3798e-17
8751.91 2.486e-17
8753.445 2.423e-17
8754.981 2.4389e-17
8756.517 2.069e-17
8758.052 1.9922e-17
8759.587 1.8669e-17
8761.122 2.0155e-17
8762.657 2.7406e-17
8764.193 3.1932e-17
8765.729 2.8159e-17
8767.264 1.907e-17
8768.799 2.5299e-17
8770.334 2.7099e-17
8771.869 2.3702e-17
8773.405 2.988e-17
8774.94 2.2603e-17
8776.476 2.0795e-17
8778.011 3.1535e-17
8779.546 2.9053e-17
8781.081 2.3175e-17
8782.617 2.3904e-17
8784.152 2.2555e-17
8785.688 2.0509e-17
8787.223 2.4798e-17
8788.758 2.5429e-17
8790.293 2.6162e-17
8791.828 2.563e-17
8793.364 1.6662e-17
8794.899 1.4779e-17
8796.435 2.0854e-17
8797.97 2.4276e-17
8799.505 2.4347e-17
8801.04 2.4502e-17
8802.576 1.8687e-17
8804.111 1.8457e-17
8805.646 2.3508e-17
8807.182 2.4246e-17
8808.717 2.1272e-17
8810.252 2.2538e-17
8811.788 2.0361e-17
8813.323 1.9014e-17
8814.858 2.4742e-17
8816.394 2.9391e-17
8817.929 2.4264e-17
8819.464 1.7516e-17
8821.0 1.7269e-17
8822.535 3.1309e-17
8824.07 4.0216e-17
8825.605 2.6808e-17
8827.141 3.7504e-17
8828.676 3.2583e-17
8830.212 9.9878e-18
8831.747 1.2489e-17
8833.282 2.058e-17
8834.817 2.5973e-17
8836.353 2.8695e-17
8837.888 3.1045e-17
8839.424 2.4843e-17
8840.959 1.9872e-17
8842.494 2.2667e-17
8844.029 2.3834e-17
8845.564 2.767e-17
8847.1 2.6158e-17
8848.636 2.194e-17
8850.171 2.2458e-17
8851.706 2.1626e-17
8853.241 2.2321e-17
8854.776 2.3167e-17
8856.312 2.3509e-17
8857.848 2.2756e-17
8859.383 2.0668e-17
8860.918 2.2201e-17
8862.453 2.1809e-17
8863.988 1.9812e-17
8865.523 2.2108e-17
8867.06 2.6002e-17
8868.595 2.4671e-17
8870.13 1.6493e-17
8871.665 1.4212e-17
8873.2 2.0968e-17
8874.735 2.0171e-17
8876.271 1.6431e-17
8877.807 1.8713e-17
8879.342 1.7895e-17
8880.877 1.7716e-17
8882.412 3.8738e-17
8883.947 2.9349e-17
8885.483 1.325e-17
8887.019 2.3387e-17
8888.554 1.8678e-17
8890.089 1.7595e-17
8891.624 2.5289e-17
8893.159 2.1419e-17
8894.695 1.6929e-17
8896.23 1.9171e-17
8897.766 2.1894e-17
8899.301 2.1733e-17
8900.836 2.1617e-17
8902.371 2.6912e-17
8903.906 1.9866e-17
8905.442 1.2495e-17
8906.978 1.582e-17
8908.513 2.09e-17
8910.048 2.0956e-17
8911.583 2.1041e-17
8913.118 1.7756e-17
8914.654 1.914e-17
8916.189 2.6942e-17
8917.725 2.9935e-17
8919.26 3.5036e-17
8920.795 3.9481e-17
8922.33 2.6935e-17
8923.866 2.1912e-17
8925.401 2.3632e-17
8926.937 2.1072e-17
8928.472 1.9246e-17
8930.007 1.7003e-17
8931.542 1.9413e-17
8933.078 2.1007e-17
8934.613 1.6706e-17
8936.148 1.482e-17
8937.684 1.7147e-17
8939.219 2.2913e-17
8940.754 2.9129e-17
8942.29 3.1836e-17
8943.825 3.0572e-17
8945.36 2.1287e-17
8946.896 1.5853e-17
8948.431 2.0887e-17
8949.966 2.2217e-17
8951.502 1.8338e-17
8953.037 2.551e-17
8954.572 4.373e-17
8956.107 3.3587e-17
8957.643 2.0707e-17
8959.178 2.5296e-17
8960.714 1.4226e-17
8962.249 1.4219e-17
8963.784 2.2993e-17
8965.319 2.0676e-17
8966.854 2.0511e-17
8968.39 2.6718e-17
8969.926 2.5045e-17
8971.461 1.849e-17
8972.996 1.9817e-17
8974.531 2.4576e-17
8976.066 2.2352e-17
8977.602 1.8388e-17
8979.138 1.8149e-17
8980.673 2.252e-17
8982.208 2.1694e-17
8983.743 2.0645e-17
8985.278 2.5585e-17
8986.813 2.9518e-17
8988.35 2.519e-17
8989.885 2.0946e-17
8991.42 1.7381e-17
8992.955 1.7915e-17
8994.49 1.8761e-17
8996.025 1.8987e-17
8997.562 1.8977e-17
8999.097 1.8578e-17
9000.632 1.7508e-17
9002.167 1.7367e-17
9003.702 1.3627e-17
9005.237 1.8278e-17
9006.773 1.7984e-17
9008.309 1.8573e-17
9009.844 1.8118e-17
9011.379 1.6906e-17
9012.914 1.801e-17
9014.449 2.2597e-17
9015.985 2.0299e-17
9017.521 1.9746e-17
9019.056 1.7446e-17
9020.591 1.397e-17
9022.126 1.3766e-17
9023.661 1.9037e-17
9025.196 2.1295e-17
9026.732 1.7647e-17
9028.268 2.0142e-17
9029.803 2.0072e-17
9031.338 1.6746e-17
9032.873 1.6991e-17
9034.408 1.8823e-17
9035.944 2.3019e-17
9037.479 1.8933e-17
9039.015 2.2344e-17
9040.55 2.0989e-17
9042.085 1.4654e-17
9043.62 1.2962e-17
9045.156 1.8123e-17
9046.691 2.1142e-17
9048.227 2.932e-17
9049.762 2.9491e-17
9051.297 2.1161e-17
9052.832 1.8668e-17
9054.368 1.8987e-17
9055.903 1.9781e-17
9057.438 1.7331e-17
9058.974 1.9517e-17
9060.509 2.4131e-17
9062.044 1.829e-17
9063.58 1.772e-17
9065.115 2.2914e-17
9066.65 2.2314e-17
9068.186 2.1879e-17
9069.721 2.4083e-17
9071.256 2.3556e-17
9072.792 1.9712e-17
9074.327 1.8704e-17
9075.862 2.1111e-17
9077.397 2.1517e-17
9078.933 1.6655e-17
9080.468 1.8129e-17
9082.004 1.9515e-17
9083.539 1.7262e-17
9085.074 1.9509e-17
9086.609 1.9705e-17
9088.145 1.4609e-17
9089.68 2.1985e-17
9091.216 2.0962e-17
9092.751 1.4432e-17
9094.286 1.8888e-17
9095.821 2.1295e-17
9097.356 1.8692e-17
9098.892 1.5238e-17
9100.428 1.7092e-17
9101.963 1.6418e-17
9103.498 1.6247e-17
9105.033 2.025e-17
9106.568 1.9751e-17
9108.104 1.8061e-17
9109.64 1.6246e-17
9111.175 1.7681e-17
9112.71 2.2095e-17
9114.245 1.8587e-17
9115.78 1.9021e-17
9117.315 2.0693e-17
9118.852 1.8369e-17
9120.387 1.8286e-17
9121.922 2.0734e-17
9123.457 2.0045e-17
9124.992 1.8332e-17
9126.527 1.8513e-17
9128.063 1.6246e-17
9129.599 1.491e-17
9131.134 1.9741e-17
9132.669 1.9247e-17
9134.204 1.3241e-17
9135.739 1.5521e-17
9137.275 2.006e-17
9138.811 1.897e-17
9140.346 1.7053e-17
9141.881 1.9301e-17
9143.416 2.1127e-17
9144.951 2.0611e-17
9146.486 2.1391e-17
9148.022 2.7108e-17
9149.558 2.5644e-17
9151.093 1.8317e-17
9152.628 1.8941e-17
9154.163 1.8812e-17
9155.698 1.8129e-17
9157.234 1.9602e-17
9158.77 1.7915e-17
9160.305 1.7497e-17
9161.84 2.0905e-17
9163.375 2.3085e-17
9164.91 1.5446e-17
9166.446 1.6329e-17
9167.981 2.0608e-17
9169.517 2.1172e-17
9171.052 2.0225e-17
9172.587 1.8759e-17
9174.122 1.7648e-17
9175.658 2.057e-17
9177.193 2.0161e-17
9178.729 1.6689e-17
9180.264 1.2352e-17
9181.799 1.2996e-17
9183.334 1.7916e-17
9184.87 1.6811e-17
9186.405 1.561e-17
9187.94 2.0868e-17
9189.476 2.2316e-17
9191.011 1.7688e-17
9192.546 1.7596e-17
9194.082 1.3918e-17
9195.617 1.6853e-17
9197.152 2.1967e-17
9198.688 2.1411e-17
9200.223 2.1895e-17
9201.758 2.1046e-17
9203.294 1.9254e-17
9204.829 1.7566e-17
9206.364 1.804e-17
9207.899 1.902e-17
9209.435 2.0007e-17
9210.97 1.5641e-17
9212.506 1.6044e-17
9214.041 2.0279e-17
9215.576 1.7393e-17
9217.111 1.2981e-17
9218.646 1.6256e-17
9220.182 1.8759e-17
9221.718 1.8772e-17
9223.253 1.797e-17
9224.788 1.5175e-17
9226.323 1.8164e-17
9227.858 1.8488e-17
9229.394 1.5271e-17
9230.93 1.1542e-17
9232.465 1.6319e-17
9234.0 2.0304e-17
9235.535 1.4122e-17
9237.07 1.4053e-17
9238.605 1.7184e-17
9240.142 1.9001e-17
9241.677 2.2129e-17
9243.212 2.2406e-17
9244.747 1.7407e-17
9246.282 1.6675e-17
9247.817 1.6581e-17
9249.354 1.3869e-17
9250.889 1.8509e-17
9252.424 1.8986e-17
9253.959 1.88e-17
9255.494 2.3478e-17
9257.029 2.1162e-17
9258.565 1.837e-17
9260.101 1.646e-17
9261.636 1.7487e-17
9263.171 2.3284e-17
9264.706 2.3277e-17
9266.241 1.8443e-17
9267.776 1.7504e-17
9269.312 2.4677e-17
9270.848 2.5794e-17
9272.383 2.1347e-17
9273.918 2.1689e-17
9275.453 2.2342e-17
9276.988 2.1203e-17
9278.524 2.2677e-17
9280.06 2.3553e-17
9281.595 1.8893e-17
9283.13 1.9194e-17
9284.665 2.2184e-17
9286.2 2.4248e-17
9287.736 2.2228e-17
9289.271 2.2612e-17
9290.807 2.3453e-17
9292.342 1.9882e-17
9293.877 1.8054e-17
9295.412 2.0458e-17
9296.948 2.2632e-17
9298.483 2.1038e-17
9300.019 1.771e-17
9301.554 1.6697e-17
9303.089 3.007e-17
9304.624 3.7102e-17
9306.16 3.0445e-17
9307.695 3.3596e-17
9309.23 4.1419e-17
9310.766 3.59e-17
9312.301 3.5252e-17
9313.836 4.5789e-17
9315.372 3.5108e-17
9316.907 1.336e-17
9318.442 1.5645e-17
9319.978 3.3635e-17
9321.513 3.8828e-17
9323.048 3.4746e-17
9324.584 3.2046e-17
9326.119 1.9584e-17
9327.654 1.6134e-17
9329.189 2.9034e-17
9330.725 3.3899e-17
9332.26 2.7684e-17
9333.796 2.7094e-17
9335.331 3.6687e-17
9336.866 2.8618e-17
9338.401 8.4727e-18
9339.937 1.2593e-17
9341.472 2.9127e-17
9343.008 2.3972e-17
9344.543 2.8291e-17
9346.078 3.376e-17
9347.613 2.7728e-17
9349.148 3.0598e-17
9350.684 2.7933e-17
9352.22 2.1335e-17
9353.755 1.794e-17
9355.29 2.3013e-17
9356.825 2.6394e-17
9358.36 2.3945e-17
9359.896 2.0686e-17
9361.432 2.2989e-17
9362.967 2.6747e-17
9364.502 3.1035e-17
9366.037 2.9471e-17
9367.572 2.4678e-17
9369.107 1.3374e-17
9370.644 2.3122e-17
9372.179 4.3405e-17
9373.714 4.3445e-17
9375.249 4.4405e-17
9376.784 5.9733e-17
9378.319 1.0189e-17
9379.854 1.0696e-17
9381.391 3.1509e-17
9382.926 3.2889e-17
9384.461 2.2022e-17
9385.996 2.4646e-17
9387.531 2.927e-17
9389.066 2.6671e-17
9390.603 2.4098e-17
9392.138 1.9161e-17
9393.673 1.2722e-17
9395.208 1.7519e-17
9396.743 2.249e-17
9398.278 2.361e-17
9399.814 2.1218e-17
9401.35 3.4528e-17
9402.885 2.3977e-17
9404.42 8.8573e-18
9405.955 1.6072e-17
9407.49 2.8552e-17
9409.026 2.4687e-17
9410.562 1.8464e-17
9412.097 1.6485e-17
9413.632 1.6147e-17
9415.167 2.047e-17
9416.702 2.3048e-17
9418.238 2.3003e-17
9419.773 2.8893e-17
9421.309 2.6735e-17
9422.844 1.8489e-17
9424.379 1.7019e-17
9425.914 2.2588e-17
9427.45 2.5603e-17
9428.985 1.4595e-17
9430.521 1.7986e-17
9432.056 1.9937e-17
9433.591 1.7035e-17
9435.126 2.4612e-17
9436.662 5.2715e-17
9438.197 7.9396e-17
9439.732 7.0099e-17
9441.268 2.2772e-17
9442.803 -4.433e-18
9444.338 1.1678e-17
9445.874 2.1346e-17
9447.409 1.4989e-17
9448.944 1.6136e-17
9450.479 2.2128e-17
9452.015 1.8806e-17
9453.55 2.3641e-17
9455.086 3.6349e-17
9456.621 3.604e-17
9458.156 3.7017e-17
9459.691 3.5589e-17
9461.227 1.2176e-17
9462.762 1.0044e-17
9464.298 1.9305e-17
9465.833 2.5137e-17
9467.368 2.6568e-17
9468.903 2.1649e-17
9470.438 1.7045e-17
9471.974 1.6007e-17
9473.51 3.3192e-17
9475.045 2.792e-17
9476.58 1.1664e-17
9478.115 9.9617e-18
9479.65 7.3575e-18
9481.186 1.8578e-17
9482.722 2.7564e-17
9484.257 2.8003e-17
9485.792 2.6309e-17
9487.327 2.8172e-17
9488.862 2.7711e-17
9490.397 2.3611e-17
9491.934 2.3964e-17
9493.469 2.6523e-17
9495.004 2.7169e-17
9496.539 1.9672e-17
9498.074 2.1029e-17
9499.609 2.7761e-17
9501.145 2.6747e-17
9502.681 2.7749e-17
9504.216 2.0673e-17
9505.751 1.3497e-17
9507.286 1.8837e-17
9508.821 2.1111e-17
9510.356 1.9983e-17
9511.893 2.1158e-17
9513.428 2.537e-17
9514.963 3.7345e-17
9516.498 3.9337e-17
9518.033 3.2814e-17
9519.568 4.0822e-17
9521.104 2.728e-17
9522.64 1.769e-17
9524.175 2.4373e-17
9525.71 2.0925e-17
9527.245 2.2272e-17
9528.78 2.5371e-17
9530.316 2.5817e-17
9531.852 3.1066e-17
9533.387 2.9892e-17
9534.922 2.8527e-17
9536.457 2.4245e-17
9537.992 2.2027e-17
9539.528 1.9349e-17
9541.063 1.9373e-17
9542.599 2.1919e-17
9544.134 2.5747e-17
9545.669 2.6928e-17
9547.204 2.3348e-17
9548.74 1.7223e-17
9550.275 8.948e-18
9551.811 1.952e-17
9553.346 3.7027e-17
9554.881 3.4379e-17
9556.416 1.8019e-17
9557.952 1.4416e-17
9559.487 1.8533e-17
9561.022 1.8813e-17
9562.558 9.0245e-18
9564.093 -8.9139e-20
9565.628 5.789e-18
9567.164 1.3388e-17
9568.699 2.6529e-17
9570.234 2.1217e-17
9571.77 1.4852e-17
9573.305 1.9215e-17
9574.84 2.3785e-17
9576.376 1.8835e-17
9577.911 1.5839e-17
9579.446 2.1062e-17
9580.981 1.9736e-17
9582.517 1.8465e-17
9584.052 1.2225e-17
9585.588 1.7228e-17
9587.123 2.2707e-17
9588.658 2.5255e-17
9590.193 2.2807e-17
9591.729 2.4911e-17
9593.264 2.1715e-17
9594.8 1.9793e-17
9596.335 1.6588e-17
9597.87 1.5212e-17
9599.405 1.5526e-17
9600.94 2.0195e-17
9602.476 2.3489e-17
9604.012 2.0536e-17
9605.547 7.5659e-18
9607.082 1.0256e-17
9608.617 1.7457e-17
9610.152 2.1644e-17
9611.688 1.5993e-17
9613.224 1.6377e-17
9614.759 2.1281e-17
9616.294 2.0427e-17
9617.829 1.5462e-17
9619.364 9.0062e-18
9620.899 1.6814e-17
9622.435 1.1226e-17
9623.971 5.5144e-18
9625.506 1.6642e-17
9627.041 2.1711e-17
9628.576 1.9914e-17
9630.111 1.6147e-17
9631.646 1.7194e-17
9633.183 2.3086e-17
9634.718 2.256e-17
9636.253 1.709e-17
9637.788 1.2742e-17
9639.323 1.6794e-17
9640.858 2.4141e-17
9642.395 2.1547e-17
9643.93 1.6102e-17
9645.465 2.2422e-17
9647.0 2.2164e-17
9648.535 1.548e-17
9650.07 1.9484e-17
9651.606 2.6166e-17
9653.142 1.6724e-17
9654.677 1.9567e-17
9656.212 2.7992e-17
9657.747 2.5262e-17
9659.282 1.7645e-17
9660.818 1.844e-17
9662.354 2.1093e-17
9663.889 1.6472e-17
9665.424 1.2229e-17
9666.959 1.102e-17
9668.494 1.5705e-17
9670.03 1.4718e-17
9671.565 1.316e-17
9673.101 1.1363e-17
9674.636 7.2011e-18
9676.171 1.2755e-17
9677.706 1.5639e-17
9679.242 1.0716e-17
9680.777 1.0069e-17
9682.312 7.4068e-18
9683.848 3.2342e-18
9685.383 3.0718e-18
9686.918 3.616e-18
9688.454 3.5355e-18
9689.989 3.3454e-18
9691.524 2.2353e-18
9693.06 7.9663e-19
9694.595 7.372e-19
9696.13 1.2606e-18
9697.666 1.1022e-18
9699.201 5.0098e-19
9700.736 2.8757e-19
