 texplosion  fnickel    Pspin  log(Bfield)      Mns  thetaPB   mejecta    kappa  kappagamma      vejecta  temperature    alpha  cutoff_wavelength  log(nhhost)      A_V         MJD0  kenergy  mnickel            TSD   log(L0)  Peak_mag     Peak_MJD  log(E_rad)  log(Peak_lum)  Rise_Time    E_fold  tau_1  delta_m15     r_peak     frac 
   -1.51799  0.07729   4.2193     14.59781  1.69008  0.70421    4.0085  0.18679     0.20047   7536.79399   4762.77372   0.2087          5422.0677       19.233   0.0095   59093.6656  1.35826  0.30981   178063.81215  45.99569  16.77069  59134.52785    50.66444        43.9898   21.52551  34.97896   36.0    0.27665  -20.49385  0.97082 
   -1.72425  0.09709  5.55133     14.31201  1.86934  1.40635   4.17181  0.12729     0.08017   6293.68482    5088.8789  4.37551         3759.57299     21.03293  0.59932  59093.45935  0.98574  0.40505  1271393.63291  44.94746  16.70578    59130.125    50.61338       43.92352     25.448  34.97896   41.5    0.27036  -21.08988  0.94409 
   -1.73932  0.03223  3.88218     14.31449  1.57713  1.35308  10.78759  0.05829     0.06002   6146.18148   4688.37878  1.15987         3982.41291     20.62387  0.23367  59093.44427  2.43087  0.34765   518631.34241   45.5737  16.76922  59134.52785    50.81876       44.20574   18.83482  29.59758   41.5    0.24944  -20.65375  0.96921 
   -1.93115  0.08631  3.71562     14.26443  1.51834  1.54671   3.47168  0.17781     0.20811   7734.91532   4525.18099  0.18471         3963.46694     18.20472  0.00089  59093.25244  1.23902  0.29965   575959.28689  45.54976  16.75858  59131.66496    51.03622       44.52194   13.82416  26.53618   37.0    0.29717  -20.63672  0.97413 
   -1.28155  0.02344  3.05944     14.55025  1.65589  0.77274  14.73115  0.03567     0.03683   5840.28991   4756.51379  0.85982         3265.55487     19.35927  0.01271  59093.90204  2.99732  0.34531   114189.57982  46.45897   16.7391  59137.39075    50.77915        44.1209   21.52551  34.97896   39.0    0.26364  -20.49205  0.98241 
   -2.82624  0.06528   4.3768     14.43301  1.57695   0.6009   3.02701  0.21197      0.2125     9446.541   4825.88915  0.12826          4302.4814     20.75451  0.31567  59092.35735  1.61134   0.1976   381878.89629  45.60242  16.62576  59134.52785     50.7378       44.08808   21.52551  32.28827   38.0    0.31577  -20.86279  0.97739 
   -2.04005   0.0428  6.41693     14.41666  1.74168  0.77843   2.50067   0.2268     0.32939   8984.91743    4194.3246   1.2029         3355.99578     17.31745  0.00012  59093.14354  1.20424  0.10702   977489.42432  44.90505  16.72671  59137.39075    50.88298       44.25585   20.06662  32.28827   39.0    0.31416  -20.63818  0.97716 
   -1.43191  0.09512  2.79444     14.59315  1.67101  0.82044   6.94066  0.10403     0.09557   8526.69219   4979.22138  0.03948         5259.53818     19.20672  0.00894  59093.75168  3.01016  0.66018    78902.23478  46.70214  16.63839  59134.52785    50.75202       44.06347    24.2162  34.97896   34.0    0.32817  -20.63372   0.9733 
   -1.31234  0.02639   2.1263     14.55922  1.94739  0.79828  15.34978  0.04939     0.04942   7748.42133   5636.49895  0.39254         2503.46388     20.84888  0.39229  59093.87125  5.49738  0.40511    62239.85509  47.10898  16.55611  59134.52785    50.91055       44.26036   18.83482  34.97896   37.0    0.26197  -20.94736   0.9924 
   -0.97251  0.03486  0.94694     14.46559    1.685  1.17263  13.91404  0.03678     0.03347   6102.10964   4624.45437  0.01297         2767.93736     19.12491  0.00741  59094.21108  3.09058  0.48506    16438.98203  48.32692  16.63182  59137.39075     50.7497       44.05971    24.2162  34.97896   35.5    0.30718  -20.60218  0.99898 
   -1.36107   0.0357  1.69396     14.61856  1.50737  0.74917  19.58538   0.0434     0.02186   6900.71402   4675.00078  0.21028         5419.50248     16.30189    1e-05  59093.82252  5.56349  0.69911    23265.68833  47.62254  16.72499  59134.52785     50.7664       44.12398   15.66714  35.45595   37.0     0.2492  -20.51886  0.99042 
     -1.898  0.04856  4.33781     14.27656  1.53438  1.27892    3.3764  0.17142     0.18492   8464.89564   4924.16344  0.01108         4268.04284     17.60936  0.00023   59093.2856  1.44319  0.16396   750192.12313  45.30507  16.61375  59131.07635    50.85404       44.28123   16.14413  29.59758   36.0    0.33939  -20.60128  0.98081 
   -1.31673  0.04489  2.17771     14.89356  2.04604  0.60544   16.5115   0.0447     0.02647   7102.76951   4996.00037  0.22812         4821.64605     19.48258  0.01688  59093.86687    4.969  0.74126     14709.9967  47.73615  16.83381  59131.66496     50.5437       43.78105   30.01461  41.17511   35.5    0.29809  -20.55671  0.98917 
   -1.72623  0.01914  2.69773     14.41087  1.63247  1.14176  11.72797  0.05841      0.0682   7009.14532   4950.33575  0.01753         5167.43367      17.7806  0.00034  59093.45736  3.43701   0.2245    166312.9827  46.39877  16.79683  59134.52785    50.60271       43.83928   28.78281  41.17511   36.0    0.28117  -20.54809   0.9909 
   -1.39229  0.02202  2.22483      14.6638  1.65212  0.58787  17.05474  0.04865     0.03238   6642.08524   4934.63903  0.56361         3741.24463     19.67098  0.02604   59093.7913  4.48829  0.37551    35714.70798  47.23945  16.80923  59134.52785    50.78945       44.15989   21.87151  30.48338   38.5    0.22424  -20.63859  0.99029 
   -0.93254  0.03243  2.04027     14.86916  1.71544  0.41182   19.3949   0.0373     0.03086    6871.3538   4487.13982  0.26403          3236.3364     19.63279  0.02385  59094.25106   5.4626  0.62893    12112.75016   47.8006  16.85365  59134.52785    50.76714       44.11872   16.14413  34.97896   37.0    0.26679  -20.56086  0.98801 
   -2.03848  0.22385   4.4226     14.40987  1.51719  0.97264   2.71642  0.27607     0.35441   9204.29578   4358.06419  0.03584          4925.4035     19.90141  0.04427  59093.14511  1.37279  0.60807   417319.66026  45.53806  16.78034  59134.52785     50.6859       43.98972    24.2162  37.66965   35.5    0.32948  -20.57782  0.92893 
   -0.92408  0.04544  1.47463     14.56446  1.54508  0.72707  14.08904  0.05886     0.02823   6800.53812   4443.47072  0.27042          2954.0898       18.462  0.00161  59094.25951  3.88683  0.64014    23185.59504  47.75521  16.67035  59134.52785     50.7921       44.16555   20.63971  30.48338   38.0     0.2319  -20.63595  0.99342 
   -1.48746  0.04305  2.02926     14.54757  1.52571  0.79368  12.01482  0.07806      0.0434   7688.71569   5141.04178  0.01168         2840.88886     18.58013  0.00211  59093.69614  4.23694  0.51724    46862.25547  47.16682  16.59696  59131.66496    50.70991       44.03869   21.52551  34.97896   36.0    0.25616  -20.55739  0.98802 
   -2.31634  0.06685  3.84176     14.53716  1.53557  0.58023   4.52176  0.17729     0.13724   7418.38999   4622.82192  0.04542         4595.78151     19.56363  0.02034  59092.86725  1.48441  0.30226   177345.04036  46.03724  16.73036  59131.66496    50.70431       44.04503   20.63971  33.17407   39.0    0.25804  -20.52238   0.9726 
   -2.17707  0.05457  5.67082     14.51208  1.64722  0.61847   3.71289  0.18291     0.30873   9106.61494   4405.82522  0.51268          4009.3018      19.1923  0.00865  59093.00653  1.83676  0.20262   465262.73904  45.31061  16.54384  59134.52785    50.87859       44.23801   18.83482  34.97896   37.0    0.31397  -20.64118  0.96397 
   -0.93879  0.06345  3.14578     14.33154  1.45326  1.29709   5.89978  0.16053     0.12737   7755.52587   4751.32851  3.95078          2064.4009     17.94584  0.00049   59094.2448  2.11683  0.37435   290087.93664   45.9732  16.77505  59134.52785    50.93046       44.35794   15.66714  30.07457   38.5    0.23212  -20.54063  0.97548 
   -2.01695  0.05838  2.60772     14.35303  1.43745  1.33932   9.19685  0.06565     0.11035   8074.00322   4881.58235  0.05436         3395.11925     18.88668  0.00428  59093.16665  3.57638  0.53694   178595.28852  46.34205  16.78615  59137.39075    50.79638       44.13301   21.52551  34.97896   34.0    0.36207  -20.58666  0.97594 
   -1.84682  0.09894  3.73444     14.31852  1.47426  1.42465   4.15454  0.24179     0.28323   9301.84892    4553.9861  0.19337         4834.39811     19.33439    0.012  59093.33677  2.14431  0.41104   440360.72541  45.64916  16.66891  59131.66496    50.64839       43.96469     25.448  34.97896   35.0     0.2846  -20.64986  0.96307 
   -1.59469  0.06641  6.00218     14.67004  1.66719  0.46591   4.65817  0.16074      0.1423   8834.88188   4875.66683  2.28384            3493.13     19.63828  0.02416   59093.5889  2.16892  0.30934   254882.55288  45.52787  16.69529  59134.52785    50.90406        44.3048   16.14413  32.28827   38.0    0.28918  -20.66214  0.94099 
   -1.18719  0.04809  0.91841     14.64847   1.2645  0.46618  11.92791  0.06539     0.05565    7438.1016   4866.70375  0.18548         2457.57191      17.7055  0.00028   59093.9964  3.93655  0.57366     4998.79403  48.74582  16.93898  59134.52785    50.86032       44.26547   20.06662  29.59758   34.5    0.29598  -20.62462  0.99811 
   -1.76683  0.08924   3.7792     14.47285  1.59902  1.05958   6.74103  0.10143     0.13661   8724.64132   4561.36524  0.11474         3817.08001     19.77467  0.03307  59093.41676   3.0609  0.60157   240311.40582  45.93713  16.58562    59129.069    50.69196       44.03474   21.52551  32.28827   34.0    0.35457   -20.5607  0.95186 
   -1.13976  0.06115  7.13025     14.52718  1.81691  0.70176   2.77329   0.2574     0.36267   9171.58229    4542.8625  1.65745         4375.64626     18.08842  0.00068  59094.04383  1.39159  0.16959   756825.30559  44.94297  16.67709  59131.66496    50.72976       44.09711   18.83482  32.28827   36.5    0.31547  -20.69452  0.95889 
   -2.06893  0.00604  3.66676     14.44136   1.9552   1.2716  16.91586  0.02546     0.03418   5692.10427   4528.26199  0.15394         4347.97887     16.94196    5e-05  59093.11466  3.26939  0.10225   319785.28754  45.92661  16.81323  59131.66496    50.59217       43.86552   26.90689  37.66965   40.5    0.28145  -20.44383  0.99403 
   -2.00397   0.0591  5.30135     14.23986  1.48324  1.22259   4.05473  0.15772     0.15062   9121.50467   4729.00363  1.60502         2680.41503     18.74371  0.00308  59093.17963  2.01244  0.23965  1282568.96892   44.8832  16.73672  59131.66496    50.93478       44.35752   13.82416  31.91756   38.0    0.31208  -20.61377  0.95675 
   -1.83513  0.02808  5.14336     14.46043  1.58662  0.73207   8.43302  0.07297     0.05631   7242.79743   4595.00316  0.20077         5543.70907     17.12419    7e-05  59093.34847   2.6389  0.23682   467662.01377  45.37689  16.61377  59134.52785    50.82335       44.15987   18.83482  34.97896   39.5    0.27369  -20.45127   0.9635 
   -1.86295  0.04129  6.98218     14.80473  1.78972  0.40353    6.9413  0.09448     0.08211   6330.14389   4612.68232  4.62605          3082.6561     17.90015  0.00044  59093.32064  1.65919  0.28664   199120.80447  45.53453  16.71014  59134.52785    50.59136       43.83659   30.01461  41.17511   43.5    0.23271  -20.31059  0.93393 
   -1.14671  0.04704  0.92122     14.67294  1.58611  0.66225  17.22984  0.03755     0.01865   5551.56587    4494.7769  0.39978         4430.61831     18.22862  0.00094  59094.03688  3.16767  0.81048     5636.43497  48.78945  16.65129  59131.66496    50.69381       44.02639   22.75731  34.97896   40.5    0.23564  -20.50968  0.99861 
   -1.40681  0.06031  3.44644     14.32426  1.49133  1.08543   5.82416  0.07847      0.0666   6478.53499   4701.14117   0.2729         2885.82104     17.75935  0.00032  59093.77678  1.45819  0.35126   369500.75221  45.80006  16.60039  59134.52785    50.93547       44.33488   16.14413  32.28827   40.5    0.28336  -20.46353  0.97328 
   -2.31123  0.12363  3.33393     14.76049  1.60083   0.3985   4.40224  0.20836      0.1869   8432.74999   4459.31274  0.19209         2264.11767     20.23415  0.09525  59092.87237  1.86741  0.54423    49785.58699  46.73017  16.78527  59137.39075    50.79844       44.12222   16.14413  40.36034   37.0    0.25964  -20.64129  0.96563 
   -1.51994  0.02009  2.29457     14.65505  1.76032  0.60792  14.80065  0.03545     0.02729   5754.76189   4872.34649  0.12806         5444.02432     17.86825  0.00041  59093.66365   2.9239  0.29731    42141.77867  47.16832  16.58025  59137.39075    50.85301       44.21061   18.83482  34.97896   38.0      0.274  -20.51352  0.99243 
   -2.05407   0.0638  3.80738     14.38415  1.62644  1.11382    4.8113  0.17945     0.15796   7941.89311   4919.31326  0.49924         2207.50087     19.80921   0.0358  59093.12953  1.81025  0.30697   373258.53602  45.74682  16.77128  59131.66496    50.63844       43.95308     25.448  34.97896   37.5    0.24674  -20.56747  0.97493 
   -1.57292  0.09672  2.44492     14.74996  1.76174    0.512    4.4544  0.16161     0.09774   5892.39878   4799.38383  0.16245         4654.53555     20.16483   0.0812  59093.61067  0.92257  0.43083    30928.86794  47.24789  16.65439  59137.39075    50.78145       44.11393   21.52551  34.97896   40.0    0.22925  -20.45915  0.98763 
   -3.89409  0.25444  7.42583     14.96028  2.16745  0.10201    2.6703  0.21763     0.02066   7611.69566    4922.0631   4.1913         3942.59072      17.2587   0.0001   59091.2895  0.92289  0.67944   133258.54577  45.73861  16.80423  59134.52785    50.86536       44.26397   15.76627  32.66614   42.5    0.26066  -20.73183  0.86414 
   -2.13317  0.06499  4.73211     14.63228  1.84173  0.67349   6.51332  0.12974      0.1216   8246.79024   4630.93047  1.56595         2015.60098     19.34472  0.01229  59093.05042  2.64241  0.42328   208257.88453  45.86536  16.87004  59137.39075    50.92859       44.33241   16.89894  32.76526   38.0    0.26169  -20.54092  0.95642 
   -1.73223  0.03196  2.42762     14.53104  1.87758   1.3311  12.78654  0.06367     0.08927   7232.16432   5137.35697  0.10792         3705.89529     19.98801  0.05404  59093.45137  3.98948   0.4086    89062.68812  46.82239  16.54945  59131.66496    50.75491       44.10134   20.63971  33.17407   36.0    0.25121  -20.56109  0.98983 
   -3.09327  0.08454  4.59347     14.52788  1.60117  0.73894   6.32422   0.1548     0.15506   8331.48785     4617.286  1.63546         2740.56141     20.17782  0.08367  59092.09032  2.61866  0.53465   275921.13657  45.70822  16.78866  59137.39075    50.90828       44.28725   18.83482  32.28827   40.0    0.24094  -20.50535  0.93725 
   -1.73624  0.01551   1.5599     14.49484  1.75522  1.10639   21.7384  0.04773     0.03524   7020.53515   4926.64691  0.02533          2728.6439     19.99903  0.05543  59093.44736  6.39139  0.33715    40612.25742  47.51832  16.77945  59131.07635    50.67058       44.01618   21.52551  32.28827   38.0    0.23307  -20.67398  0.99675 
   -1.65347  0.09787  4.18213     14.40819  1.76072  1.16147   2.81065  0.17492     0.27449   7725.11369    5690.0221  0.14195         5111.66761     20.51221  0.18069  59093.53012  1.00056  0.27507   436435.46024  45.63182  16.77225  59137.39075    50.89479       44.24015   18.83482  34.97896   36.0    0.34782  -20.63697  0.97587 
    -1.8291  0.05383  3.95359     14.69195  1.81103  0.53514   5.07379  0.10118     0.10214   6936.96991   4834.59845  0.41478         2164.11078     19.28251  0.01065  59093.35449  1.45646  0.27313   108599.14919  46.29696  16.71627  59137.39075    50.90615       44.27849   15.76627  35.35683   38.5    0.30285  -20.50379  0.97945 
   -1.35138  0.10011  3.29342      14.5352     1.61  0.93187   5.26594   0.1428     0.27906   8030.08096   4795.41744  0.76652         2143.25368     18.85119  0.00394  59093.83221  2.02555  0.52718   137893.63401  46.30083  16.66823  59131.07635    50.65558       43.97554     25.448  32.28827   35.5    0.30166  -20.48219  0.96815 
   -2.11067  0.08316  4.75166     14.82864  1.79217  0.38515   5.35479  0.11307     0.10552   8400.36377   4759.14078  0.07369         3265.12121     17.65853  0.00025  59093.07292  2.25406  0.44531    82717.26249  46.25094  16.67365  59131.66496    50.71487       44.04223   21.52551  34.97896   36.5    0.33527  -20.57192  0.95202 
   -1.27857  0.01091  1.84184     14.37026  1.43655  0.82526  16.22263  0.03016     0.02682   5879.55702   4918.69575  0.18106         2043.59394     19.79377  0.03455  59093.90502  3.34532  0.17705    82245.88089  46.98055  16.75089  59134.52785    50.84513       44.23476   16.14413  32.28827   38.5    0.26754  -20.55737  0.99602 
   -1.80393  0.06522  4.92081     14.48284  1.89924  1.20004   5.69138  0.05831     0.03932   5230.70049   5553.63568  0.51325         5344.42659      19.9033  0.04447  59093.37967  0.92889  0.37118   462160.15225  45.49856  16.87563  59131.66496    50.73835       44.11233   18.83482  32.28827   42.0    0.29855  -20.40737  0.96037 
   -1.69056  0.03347  5.55669     14.33325  1.60312  1.12279   8.03379  0.07141     0.04544   6321.52098   4587.99425  2.22871         3610.73772     19.94615  0.04908  59093.49303   1.9151  0.26887   990647.51087  44.98826  16.81596  59128.80207    50.48292       43.71045   28.78281  41.17511   42.5    0.24898  -20.55079  0.95282 
   -2.12766  0.20728  6.59603     14.86488  1.62739  0.32862   3.47718  0.24902     0.20323   8705.33853   4262.39092  4.31663           2667.874     19.20806  0.00897  59093.05594   1.5719  0.72074   122491.73903  45.75366  16.63577  59134.52785     50.7396       44.07627   21.52551  34.97896   41.5    0.24617  -20.38615  0.84544 
   -1.30876  0.03825  1.85336     14.25553  1.34038  1.09771   9.06642  0.03589     0.04701   5693.83079    4393.3762  0.15373         5047.14867     18.62615  0.00235  59093.87483  1.75336  0.34676   131793.05969  46.74026  16.60437  59134.52785    50.85379       44.21597   18.83482  34.97896   39.5    0.33067  -20.55324  0.99125 
   -1.12595  0.05305  2.16391     14.41151  1.42494  0.96577  11.10153  0.04434     0.05165   7106.06302   4513.65593  0.05739         3552.87155     18.46183  0.00161  59094.05764  3.34401  0.58895    93126.25743  46.78309   16.5941  59131.07635    50.74531       44.10642   20.63971  33.17407   35.5    0.34598  -20.54378  0.98196 
   -2.08161  0.04591  6.03369     14.52055  1.82382  0.86615   7.54875  0.07087      0.0897   7747.69693   4790.30742  1.04634         2679.52665     18.32806  0.00118  59093.10198  2.70301  0.34655   560875.57694  45.21979   16.5705  59131.07635    50.83297        44.2189   18.83482  32.28827   39.0    0.31453  -20.43685   0.9417 
   -1.63331  0.05488  2.23433     14.34554  1.25102  0.86675    8.5147  0.09448     0.11511   7328.94873     4713.889  0.03778         5516.33976     18.90073  0.00442  59093.55028  2.72822  0.46731   118112.12777  46.59552  16.70547  59137.39075    50.97539       44.38252   16.14413  32.28827   37.0    0.27422  -20.54206  0.98096 
   -2.03095  0.03341   0.9113     14.34452  1.41143  1.10251  19.62844   0.0303     0.01093   5658.15984   4611.59792  0.06634          2616.8592     18.82893  0.00375  59093.15265  3.74855  0.65581    22271.89618  48.15142  16.71583    59129.069    50.62651       43.86776   30.01461  41.17511   40.0    0.24737  -20.54427  0.99795 
   -1.66663  0.04219  1.36035     14.53032  1.31918  0.60587  16.79853  0.02829     0.02945   5997.58195   4641.86722  0.20804         2320.31457     20.43491  0.15123  59093.51696  3.60455  0.70873    19713.97188  47.82707  16.80915  59134.52785    50.83146       44.22855   16.14413  32.28827   39.0     0.3067  -20.46096  0.99195 
   -1.06377  0.02299  2.29711     14.30884  1.54113  1.23447  11.11028  0.02751     0.02324   5060.92686   4801.45189  0.19836         4028.26851      20.1295  0.07486  59094.11982  1.69751   0.2554   182110.21651  46.47399  16.73905  59134.52785    50.79124       44.16803   16.14413  32.28827   43.0    0.29943  -20.40433  0.99182 
   -1.43632  0.02159  2.86622      14.4777   1.6579  0.87478   13.3228  0.04331     0.04734   6930.96339   4966.49017  0.58206         2286.70721     19.87466  0.04163  59093.74727  3.81777  0.28757   140148.16895   46.4272  16.84107  59131.66496    50.80752       44.19967   18.83482  29.59758   37.0     0.2885  -20.59001   0.9871 
   -1.38778  0.03596  1.76164      14.3857   1.3412  1.14519  17.93965  0.03565     0.03428   7555.88121   4662.51301   0.1388         3943.99301      18.3615  0.00128  59093.79581  6.10958  0.64511    65424.12052  47.08876  16.59317  59131.07635    50.96121       44.40915   12.97137  29.75975   34.0     0.3293  -20.58023  0.98702 
   -1.18033  0.03011  1.68658     14.70099   1.6636  0.65086  20.45382  0.03516     0.03217   7671.23393   4838.47654  0.07478         4325.44994      18.9744  0.00524  59094.00326  7.18013  0.61586     17414.0044  47.79498  16.74435  59134.52785    50.76208       44.12715   20.63971  30.48338   34.5     0.3039  -20.60292  0.99279 
   -1.30783  0.02608  1.46071     14.65073  1.68468  0.67692  19.63789  0.03584     0.02334     6499.936   4883.75123  0.04684         3560.40521     19.46536  0.01622  59093.87576  4.94926   0.5121    16672.44902  47.94423  16.64271  59131.66496    50.82355       44.20739   15.66714  32.76526   37.0    0.24609  -20.58737  0.99577 
   -1.46114  0.02402  2.05195     14.57405  1.80275   0.9303  17.87611  0.02367     0.02623   5840.93119   4795.78239  0.13729         3953.81405     19.69548  0.02756  59093.72245  3.63801   0.4293    50116.33347  47.20047  16.77946  59134.52785    50.71722       44.01757    24.2162  37.66965   36.5    0.29932  -20.44407  0.99219 
   -1.31849  0.03391  3.16404     14.45951  1.67561   0.9635  10.46855  0.04372     0.03774    6515.9891   4883.55103  0.06383         3761.47208     18.71833   0.0029   59093.8651   2.6514  0.35495   187695.28081  46.21908  16.83599  59128.15234    50.54842       43.84038     25.448  34.97896   38.0     0.3194  -20.46916  0.98092 
   -1.36553  0.02157  3.72935     14.45748  1.64334   0.9454  11.61423  0.04855     0.04345   6626.34887    4891.8251  0.68433         3084.93612     17.07091    7e-05  59093.81806  3.04205  0.25049    258139.4992  45.92945   16.5621  59134.52785    50.85591       44.23227   20.63971  33.17407   38.0    0.28226  -20.48835  0.98061 
   -1.68096  0.04903  4.21714     14.60978  1.55968  0.49413   4.06685  0.13522     0.14532   7705.30941   5008.25194  0.13477         4104.41012     19.26277  0.01017  59093.50263  1.44034   0.1994   155356.52961  46.02051  16.79709  59131.66496    50.74534       44.10079   20.63971  33.17407   37.0    0.31325  -20.55384  0.97856 
   -1.84566  0.05091  3.94597     14.52163  1.55256  0.73787   8.31921  0.04978      0.0713   6795.88959     4698.762  0.15134         5229.23082      17.0119    6e-05  59093.33794  2.29193  0.42353   203191.77461  45.95968  16.74609  59134.52785    50.86129       44.26614   18.83482  29.59758   38.0    0.35368  -20.42352  0.96077 
   -2.73971  0.02058   1.3939     14.40115  1.55173    1.062  18.95292  0.04071     0.03001   6490.22401    4570.4284  0.00474         2016.30102     18.60221  0.00222  59092.44388  4.76236  0.39011    44137.14387  47.52639  16.70566  59137.39075    50.82923       44.16038   15.66714  38.14664   38.0    0.23791  -20.55995   0.9963 
   -1.50363  0.05664  3.33157      14.5223  1.70077  0.86535   9.77761  0.08267     0.04585   6879.21335   4381.73421  1.29143         2598.40277     18.82691  0.00373  59093.67997  2.76018   0.5538   158185.64876  46.25503  16.69372  59134.52785    50.80895        44.1667   18.83482  34.97896   41.5    0.22188  -20.53991  0.96816 
   -1.51326  0.11893  4.15928     14.39045  1.56641  0.99652   3.23743  0.26791     0.31678  10077.37366   4667.04983  0.33863         2924.07117     18.01836  0.00058  59093.67033   1.9612  0.38501   416728.77726  45.60586  16.91131  59131.66496    50.68881       44.04155   20.06662  32.28827   34.0    0.31981   -20.7409  0.96077 
   -2.15737  0.02825  8.09229     14.69151  1.96767  0.56363   8.34627  0.09248     0.06184   6968.20941   4633.18155  3.83561         4139.78545     17.49728  0.00017  59093.02623  2.41747  0.23574   495318.13558  45.05177  16.85935  59134.52785    50.67996        44.0334   20.63971  33.17407   42.0    0.25195   -20.5272  0.93622 
   -2.11504  0.04998  4.29329     14.43334  1.68007  0.81062   4.17281  0.17717     0.14271    7848.1742   4622.20925  0.28833         3189.84719     19.87554  0.04171  59093.06856  1.53318  0.20854   390880.97383  45.63655  16.66202  59131.66496    50.67425        43.9668     25.448  37.66965   39.0     0.2697  -20.64108  0.97917 
    -2.1515  0.05224  5.69495     14.43619  2.04482  1.33569   4.19535  0.14652     0.19745   8539.27091   4359.69592  0.16358          3641.8493     19.21262  0.00906   59093.0321  1.82489  0.21918   826155.99042  45.15146  16.57195  59137.39075    50.96362       44.35345   16.14413  34.97896   37.5     0.3156  -20.63267  0.97147 
   -0.88302  0.04418  1.04059     14.56216  1.68369  1.13939  16.14738  0.04599     0.02105    6209.3302   5138.37205  0.33702         2713.05404     19.55571  0.01997  59094.30058   3.7138  0.71334     12714.9999  48.35623  16.85499  59131.66496    50.64026       43.96807   22.75731  34.97896   38.0    0.24149  -20.51262  0.99849 
   -1.31614  0.05234  1.98731     14.57844  1.75679  1.00347  13.79596  0.05037     0.04393    7539.0045   4645.96117  0.04941         3171.04977     19.32423  0.01172  59093.86746  4.67743  0.72212    44893.61044  47.26485  16.66558  59134.52785    50.84953       44.23913   15.76627  32.66614   35.0    0.32109  -20.60375  0.98796 
   -2.75841  0.10445  5.51316     14.34081  1.60059  1.06175   2.13223  0.23124     0.24584     7122.746   4450.79074  0.29437         4114.79099     18.51468  0.00182  59092.42518  0.64529  0.22271   940331.84039  45.01704  16.78503  59137.39075    50.86506         44.231   15.66714  35.45595   40.5     0.3047  -20.39634   0.9611 
   -1.69119  0.01294  1.77957     14.26352  1.39285  1.13332  16.13003  0.03238     0.02699   5820.10221   4849.54972   0.0095         2840.43017     19.02843  0.00593  59093.49241  3.25929  0.20865   121705.36194  46.82681  16.62941  59131.07635    50.65019         43.953     25.448  34.97896   38.5    0.28005  -20.52809  0.99544 
   -1.79827  0.09419  5.24041     14.83105  1.87522  0.44198   7.16366  0.08169      0.1342   8227.73112   4082.41747  0.12541         4246.75372     17.90326  0.00044  59093.38532  2.89283  0.67477   104110.65621  46.08567  16.71466  59134.52785    50.70007       44.00243    24.2162  37.66965   38.0     0.3164  -20.52431  0.92016 
   -1.70879  0.01408  2.02275     14.48655  1.59763  0.82464  16.58265  0.05016     0.04249   7234.44032   4890.29536  0.18056         3584.62566      17.7825  0.00034   59093.4748  5.17715  0.23352    64575.53576  47.05037  16.65937  59130.21814     50.7989       44.20518   16.14413  29.59758   36.0    0.26583  -20.70779  0.99472 
   -1.55066  0.04837  1.76897     14.41583  1.57862  1.14819   8.51933  0.05885      0.0537   6061.13611   4959.19131  0.00955         5273.01916     19.49064  0.01719  59093.63294  1.86698  0.41211    67588.14844  47.14181  16.62889  59134.52785    50.67784       43.98167   21.52551  37.66965   36.5    0.27922  -20.47295  0.99323 
   -1.76005  0.02865   3.3601     14.54824  1.67761  0.66701   7.07574  0.09406     0.07958   6390.90668   4590.23214  0.21457         2069.49291     18.92207  0.00464  59093.42354  1.72395  0.20269   140843.98895  46.29209  16.61915    59129.069    50.59104       43.87994   26.10155   35.7843   40.0    0.23944  -20.46519  0.98757 
   -2.06506  0.08186  5.34672      14.5702  1.75311  0.68805    3.7642  0.22033     0.23593   9696.39777   4608.69278  0.72524         2107.58983     18.60746  0.00225  59093.11853  2.11116  0.30813   336821.61519  45.52908   16.5697  59134.52785    50.91196       44.30824   13.82416  34.60825   35.5    0.31162  -20.60204  0.95621 
    -1.9648  0.01733  2.05627     14.45732   1.6184  0.96175  20.12698  0.02941     0.02582   6474.39986   4635.21916  0.02845         2811.00065     18.51504  0.00182  59093.21879  5.03274  0.34885    77343.86233  46.96334  16.72567  59130.21814    50.70525       44.07021   18.83482  32.28827   36.5    0.27476  -20.54164  0.99206 
   -2.24997  0.04832  3.35809     14.32936   1.6462  1.33545   5.57774  0.07379     0.10412   5988.54143   4863.75589  0.06384         3368.66316     20.37329  0.13122  59092.93363  1.19324  0.26949   378230.28869  45.85539   16.5707    59130.125    50.55912       43.82635   28.78281  38.48442   42.0    0.29865  -20.41758  0.98308 
   -2.00212  0.01876  5.71652     14.43489  1.84426  0.92937   2.81584  0.20243     0.34694   8696.76428   4391.11401  1.31097         2768.30349     16.13002    1e-05  59093.18147  1.27043  0.05282   755296.79043  45.14229  16.78668  59134.52785    50.86064       44.25955   20.06662  29.59758   37.5     0.3159   -20.6664  0.99172 
   -1.72958  0.07172  3.81609     14.68548  1.72249  0.61898   8.46494   0.0822     0.09596   8738.84526   4337.12643  0.02208          2790.5587     18.28118  0.00106  59093.45402  3.85619  0.60714    99141.38869  46.34551  16.64911  59130.21814     50.6396       43.96081    24.2162  34.97896   34.0    0.33821  -20.57967  0.95555 
   -1.98282  0.06534  5.66572     14.23162  1.37228  0.92347   5.09588  0.10945     0.06808   7448.09395    4627.4926  2.35147         2867.76352     17.74022  0.00031  59093.20077  1.68631  0.33299  1407761.55043  44.75125  16.80712  59134.52785    50.64246        43.9531    24.2162  34.97896   44.5    0.26631  -20.44458  0.92503 
   -1.11709  0.03422  1.31869     14.63021  1.75793  0.83618  17.30312   0.0279     0.01672    5323.0442   4927.56019  0.40328         4422.94496     19.94373   0.0488   59094.0665  2.92463  0.59218    15584.53877  48.08087  16.94167  59131.66496     50.5095       43.75004   28.78281  41.17511   38.0    0.27665  -20.50936  0.99698 
   -1.22217  0.10892  2.27992     14.47788  1.63454  1.11874   6.99382  0.13664     0.25388   8882.61238   4169.65124  0.04079         2920.46976     20.18662  0.08538  59093.96142  3.29172   0.7618    87354.98314  46.82511  16.66515  59134.52785    50.91829       44.28754   13.82416  37.29894   35.5    0.28435  -20.72953  0.97943 
   -2.19117  0.08519  6.67923     14.61177  1.91153  0.62717   3.93833  0.19446     0.10545   7326.98516   4331.17839  0.86163         4873.28456     18.41985  0.00146  59092.99242  1.26122  0.33551    473262.9233  45.22567  16.77632  59131.66496    50.80195       44.19533   18.83482  29.59758   41.5     0.2447  -20.55211  0.93569 
   -2.09155  0.05451  4.89843     14.43437  1.77434  1.05006   5.10916  0.13229      0.1075   7969.27813   4806.38493  0.30445         4539.80719     18.60045  0.00221  59093.09204   1.9356  0.27849    534829.4544  45.40955  16.70218  59134.52785    50.76487       44.07887   22.75731  37.66965   37.0    0.28924  -20.60494  0.96706 
   -1.20395  0.03842  1.78792     14.59706  1.60021  0.63854  14.85813  0.04703     0.03236   7512.45743   4828.75871  0.19564         3839.10707      20.4375  0.15214  59093.97964  5.00214   0.5709    30379.25131  47.48575  16.75191  59137.39075    50.72904       44.03158     25.448  37.66965   35.5    0.27941  -20.79377  0.99052 
   -1.30784  0.12652  3.72239     14.51313  1.56016   0.7501   3.97192  0.22669     0.15538   9137.95611   4687.18616  0.56684         2747.08839     18.33623   0.0012  59093.87575  1.97845  0.50251   188961.88436    46.044  16.71963  59134.52785    50.90618       44.30504   16.14413  32.28827   35.5    0.29147  -20.66632  0.95902 
   -1.98221  0.03004  4.31537     14.68544  1.66508  0.40151   5.35438  0.09022     0.09285   7147.52837   4492.41375  0.14251         3988.06802     18.30618  0.00112  59093.20138  1.63173  0.16086   122575.20943  46.13184  16.70278  59137.39075    50.77658        44.1139   18.83482  37.66965   40.0    0.30352  -20.57578  0.98347 
   -1.75352  0.02202  4.91063     14.53799   1.8913  0.87401   9.77974    0.064     0.06873   6111.66936   4439.19247  1.43097         3124.28351     16.50872    2e-05  59093.43007  2.17909  0.21535   355519.06067  45.61247  16.72693  59131.66496    50.68122       44.00674   21.52551  34.97896   42.0    0.23062  -20.46183  0.97654 
   -1.55707  0.03186  3.30482      14.2866  1.47472  1.28688  10.42423  0.07206     0.04527   6690.44183   4450.55637  0.41506         5079.13741     19.55272  0.01984  59093.62652  2.78343  0.33208   399602.28918  45.79763  16.70585  59126.08255    50.74545       44.02966   26.10155  38.47498   39.5    0.24745  -20.62732  0.97634 
   -2.07931  0.04019  4.80218     14.53646  1.35756  0.48494   5.93997  0.09983     0.11884   7275.19099   4688.05849  1.07271         4028.29563     18.17909  0.00084  59093.10429  1.87543  0.23871   245773.83275  45.64819  16.80397  59131.66496    50.73781       44.04613    24.2162  34.97896   38.5    0.28679  -20.54311  0.95963 
   -1.61335  0.04307  2.79258     14.66982  1.64297  0.56054  10.24012  0.05468     0.05393   6557.24036   4813.24717  0.43224         2297.70908     18.27442  0.00105  59093.57024  2.62648  0.44107    54426.00559  46.85666  16.61372  59134.52785    50.77955       44.13857   20.63971  33.17407   38.0    0.27354  -20.47028  0.98126 
    -1.7571  0.00497  1.88564     14.44218  1.66379  0.92242   22.0884  0.01673     0.02954   5868.20246   5596.56297  0.01702         3986.63375     20.04497  0.06162  59093.42649  4.53734  0.10971    71693.34702  47.08355  16.75083  59131.66496    50.78669       44.15983   18.83482  32.28827   36.5    0.32393  -20.52697  0.99797 
   -1.44831  0.04086  3.53185     14.34386  1.42355  0.81755   6.23779  0.09806     0.08392   6963.73156    4488.6212  0.05174         2080.73717     17.15362    8e-05  59093.73529  1.80444   0.2549   338436.94217  45.79674  16.68867  59131.66496    50.80918       44.15598   22.75731  32.28827   40.0    0.27219  -20.51031  0.97799 
   -1.45492  0.10696    3.908     14.35942  1.60769  1.27908   3.40009  0.21973     0.29282    8788.7025   4309.63523  0.03027         3578.88281     18.78031  0.00335  59093.72867  1.56663  0.36366   435591.92304  45.65206    16.622    59130.125    50.63591       43.93487   26.10155  33.09361   35.0    0.31283  -20.63634  0.96837 
   -2.30636  0.02437  2.35647     14.31075  1.49688  1.18722  11.68683  0.05205     0.03146   6191.04557   5053.52042  0.03036         2313.39683     17.80295  0.00035  59092.87723   2.6721  0.28477   184513.40962  46.43348  16.62683  59131.66496    50.77965       44.16253   16.14413  32.28827   39.0    0.26053  -20.50371  0.98997 
   -1.42614  0.07113  1.94931     14.60251  1.67463  0.67711  10.64938  0.09163     0.06673   8755.89379    4654.3188  0.05487          4517.5124     20.53301  0.18956  59093.75745  4.87026  0.75753    36853.43941  47.34652  16.66516  59134.52785    51.02504       44.40988   18.83482  32.28827   36.0     0.2771  -20.87899  0.98578 
   -1.63354  0.04367  2.41343     14.69784  1.84148  0.80534  15.76293  0.04365     0.03086    6548.1966   4533.64953  0.07973         4840.79124     18.24086  0.00097  59093.55005  4.03188  0.68831    40047.16503  47.16617  16.63286  59134.52785    51.06151       44.51733   12.97137  29.75975   38.5    0.26709  -20.38734  0.98337 
   -1.52611  0.04612  3.53913     14.53075  1.56988  0.63805   6.80228  0.13868     0.12996   8492.05516   4624.73595  0.08777         2211.28204     19.55746  0.02005  59093.65748  2.92622  0.31369   158481.07995  46.16694  16.74934  59134.52785    50.75267       44.08422   16.14413  40.36034   36.5    0.26012  -20.64909  0.97663 
   -1.02377   0.1784  1.10512     14.66802  1.40638  0.67594   4.59707  0.19594     0.11436   7978.53896   4737.29107  0.09822         3792.57652     16.58067    2e-05  59094.15983  1.74564  0.82013     7356.80523  48.46344  16.65318  59131.66496    50.72974       44.10278   20.63971  30.48338   36.0    0.25967  -20.51231   0.9972 
   -1.39568  0.18363  3.04624      14.6054  1.90839   0.8547   1.88445  0.31315     0.46681   8192.06134   5037.86292  0.00808         2947.21329     19.99354  0.05474  59093.78791  0.75439  0.34605   101205.92805  46.57678  16.72572  59131.66496    50.77937       44.14406   16.14413  34.97896   32.5    0.35218  -20.68203  0.98596 
   -3.02334  0.03269    7.176     14.43453  1.70457   0.7489    6.4043  0.09086     0.08152   7181.37322   4330.39404  1.27831          4163.0095     16.43092    1e-05  59092.16025  1.97022  0.20936  1101894.47083  44.74655  16.69996  59134.52785    50.81969       44.19164   18.83482  32.28827   43.0    0.26616  -20.42535  0.94408 
   -2.02423  0.05756  5.36515     14.49409  1.62975  0.74164   6.99452  0.13846     0.11138   7976.06972   4534.71834  1.67064         3530.90353     20.15968  0.08024  59093.15936  2.65438   0.4026   447636.59972  45.37088   16.6316  59134.52785    50.81401       44.14797   18.83482  37.66965   41.0    0.22965  -20.54315  0.93695 
   -2.10833  0.08031  3.77978     14.48758  1.34037  0.47761   3.86856  0.10928     0.16048   6615.75328    4133.4148  0.01461         4150.67968     18.19442  0.00087  59093.07527  1.01003  0.31067    188284.5832  45.96632  16.70872  59134.52785    50.83622       44.19861   18.83482  32.28827   43.5    0.29105  -20.43431  0.96666 
   -1.05869   0.0433  1.36705     14.66505  1.82401  0.94547  15.51984   0.0593     0.02444    6537.2266   5131.08614  0.30646         4319.08241     20.07555  0.06611   59094.1249  3.95641  0.67208    14801.64125  48.08799  16.61809  59137.39075    50.88667       44.23635   18.83482  34.97896   38.5    0.23932  -20.50556  0.99698 
    -0.8733  0.04054  1.88615     14.52766  1.87427  1.36939   12.1604  0.07573     0.04662   7801.35612   4758.62422  0.01392         3460.06702      17.3586  0.00013  59094.31029  4.41484  0.49297    54510.30683  47.25404  16.66435  59131.66496    50.67506       43.99895    24.2162  32.28827   35.5    0.26299  -20.68336  0.99339 
   -2.21088  0.05126  5.03652     14.36189  1.48522   0.8919   5.56933  0.11444     0.13861   8111.14215   4541.23313  0.17546         5020.79189      18.6463  0.00246  59092.97272  2.18572  0.28546   660831.24552  45.21628  16.72529  59134.52785    50.72587       44.03619   22.75731  37.66965   37.5    0.31083  -20.49216  0.95387 
   -1.78639  0.10457  3.87143     14.42876  1.71898  0.98654   3.74209   0.1971     0.17277   7810.26657   4313.91189  0.03244         3423.98528     19.46893  0.01636  59093.39721  1.36167   0.3913   332130.67702  45.80706  16.54018  59134.52785    50.55142       43.76836   40.36034  45.74172   38.0     0.2645  -20.61697  0.96973 
   -0.77611  0.05382   1.7061     14.47101  1.46744  1.18791  15.25413  0.04762     0.03857    7644.8632   4333.02726  0.05406         3006.36936     17.34411  0.00012  59094.40749  5.31807  0.82103    45328.00163  47.31503  16.68899  59131.66496    50.84909       44.24364   18.83482  29.59758   35.0    0.30213   -20.5354  0.98798 
   -1.32949  0.02342  2.73459     14.64155  1.66899  0.65418  18.75214  0.02338     0.02131   5189.77056   4914.96918  0.43208         4522.44053      19.0527  0.00627   59093.8541  3.01283  0.43912    60387.17738  46.83657  16.67103  59131.07635    50.81732       44.22296   15.66714  30.07457   39.5     0.2744  -20.39379  0.98267 
   -1.97161  0.03523  1.57494       14.548   1.6051  0.82813  20.92631  0.02496     0.02945   7164.54182   4377.45302  0.01677         4903.65122     17.52035  0.00018  59093.21198  6.40762  0.73729    29637.53786  47.60798  16.62775  59131.66496    50.84822       44.24681   15.66714  32.76526   35.0    0.34174  -20.63552  0.99167 
   -1.72064  0.07287  3.93229     14.52034  1.64752  0.76071   7.04215  0.07924     0.07196   7254.20317   4577.08454  0.10765         3607.69719     18.20148  0.00088  59093.46295  2.21061  0.51318   215404.49327  45.96313  16.69432  59137.39075    50.91009       44.29276   15.66714  35.45595   39.0    0.30643  -20.50468  0.95697 
   -1.13665  0.04022  1.60776      14.4578  1.41619  1.02344  17.13978  0.04553     0.05606   8167.98382   4498.05574  0.03916          3214.2075     19.46875  0.01635  59094.04694  6.82122  0.68933    41284.22667  47.39174  16.81262  59131.66496     50.9191        44.3701   13.82416  28.90696   34.5    0.33302  -20.60916  0.99032 
   -1.67135  0.01448  3.48077     14.41291  1.66121  1.11771  14.03282  0.04926     0.02675    5420.5779    5015.9861  0.89577         3909.97377     18.56104  0.00202  59093.51225  2.45959  0.20313   279102.53976  45.96015  16.77225  59131.66496    50.83799       44.25564   18.83482  26.90689   42.5    0.20346  -20.45933  0.98647 
   -3.26695  0.05025  7.48741      14.8064  1.80677  0.35789   4.93951   0.1172     0.19326   9292.34534    4499.0588  4.32595          2301.9488     16.83785    4e-05  59091.91665  2.54426  0.24822   229392.35501  45.41651  16.75155  59131.66496     50.7379       44.10587   20.63971  33.17407   38.0    0.32113  -20.42775  0.93475 
   -1.71954  0.05215  3.43472     14.37352  1.78946  1.22942    2.3876  0.26437     0.17979   7306.93894   4886.53606  0.11148         3553.74765     16.61645    2e-05  59093.46405  0.76043  0.12452   350984.98126   45.9045  16.70467  59131.66496     50.7328       44.10585   20.63971  30.48338   37.5    0.28913    -20.682  0.99271 
   -1.68807  0.08752  4.32872     14.65592  1.83135  0.62592   4.22589  0.15004     0.21979   7795.02131   5235.75111  0.50943         3250.85241     20.48934  0.17142  59093.49552  1.53172  0.36985   155405.22264  46.06743  16.81525    59130.125    50.73845       44.14679   18.83482  26.90689   37.0    0.29156  -20.61128  0.96755 
   -1.40329  0.04167  2.72638     14.47115  1.48246  0.68528   5.17865  0.09161     0.09712   6090.14152   4602.95673  0.19195         3755.56132     19.26984  0.01034   59093.7803  1.14577  0.21578   116863.36117  46.50098  16.60167  59137.39075    50.95802       44.32338   16.89894  35.45595   38.5    0.28562  -20.49753  0.98956 
    -1.1628   0.0503  1.06995       14.915  1.69431  0.44921  18.88528   0.0451     0.02395     6614.304   4414.20901  0.21511         5052.89438     17.94505  0.00049  59094.02079  4.92855  0.94986     2664.04433  49.01357  16.71036  59134.52785    50.75206       44.05912   21.52551  37.66965   40.5    0.23268  -20.47882  0.99804 
   -1.75648  0.04344  2.56409     14.44547  1.38555  0.71277    8.9932  0.07741     0.06531   7089.03507   4371.77036  0.38817         2134.85866     17.96095  0.00051  59093.42712  2.69597  0.39064   108734.61052  46.55623  16.52302  59131.66496    50.71289       44.04984   21.52551  34.97896   38.0    0.26691  -20.55396  0.98176 
   -2.53201  0.09522  3.53639     14.68505  1.55302  0.55976   6.83949  0.08475     0.04928   6633.30318   4919.80432   0.3714         3090.92692     17.43991  0.00015  59092.65158  1.79519  0.65126    76913.91143   46.4769  16.73213  59131.07635    50.48034       43.69105   32.90942  43.66167   39.5    0.28263  -20.32096  0.95249 
   -1.64876  0.04452  4.92801      14.8058  1.89715  0.49446    9.8487    0.056     0.05421   6999.71085   5039.68628  0.12668         5162.00985     16.98992    5e-05  59093.53483   2.8785  0.43844   104631.58318  46.14194  16.65321  59134.52785    50.75553       44.07434     25.448  34.97896   38.0    0.29743  -20.39094  0.95339 
     -2.071  0.09574    4.476     14.61793  1.69719  0.64493   5.66004  0.15781     0.14406   8500.79901   4418.56049  0.62903         4041.77534     19.92644   0.0469  59093.11259  2.43987  0.54189   183428.90613  45.93333  16.63201  59131.66496     50.7241       44.06558   22.75731  32.28827   38.0    0.27617   -20.6403  0.94434 
   -1.70572  0.04019  2.80492     14.52722  1.61955  0.81298  14.63969  0.03311     0.02487   6181.93747   4692.28513  0.07182          5854.8605     17.17082    8e-05  59093.47788   3.3374   0.5883   104377.67004  46.56379  16.88492  59131.66496     50.9794       44.44988   15.66714  27.06398   39.5    0.28604   -20.4319  0.97438 
    -0.9679  0.02368  1.53385     14.35947  1.52387  1.15877  14.80064  0.04414     0.03648   6318.77338   4749.24741  0.09617         5458.50226     18.42158  0.00147  59094.21569  3.52511  0.35054    63590.26422  47.27684  16.85963  59137.39075     50.8211       44.15271   18.83482  37.66965   36.5    0.26139  -20.66844  0.99552 
   -2.19721  0.02687  6.39082     14.21056  1.63809   1.1471    4.3345  0.12009     0.11127   7059.52577   4651.84977  2.44821         4594.29875     20.80839  0.35737  59092.98639   1.2886  0.11645  2355843.02016  44.49992  16.90075  59131.66496    50.95044       44.38105   13.82416  29.22687   42.0    0.28859  -20.86961  0.97292 
   -1.70185  0.06175  2.19343     14.45654   1.2343  0.58476   7.09169  0.07124     0.04596   5763.93403   4775.41769  0.48501         5935.11461     17.29489  0.00011  59093.48174  1.40545  0.43791    67359.02962  46.84962  16.71279  59137.39075    50.78361       44.11938   18.83482  37.66965   37.5    0.27532  -20.67031  0.98235 
   -1.71499  0.03531   2.0467     14.57626   1.6906   0.8242  12.65015   0.0452     0.03943   6199.14769   5082.61345  0.04475         3355.44746     19.20909  0.00899   59093.4686  2.89993  0.44669    46284.93605  47.20934   16.7301  59134.52785    50.68863       43.99001     25.448  34.97896   37.0    0.27959  -20.45074  0.99098 
   -2.98216  0.02024  2.02458     14.32223  1.56809  1.48752   6.72257  0.07088     0.07343   5184.98312    5096.3385  0.02711         4403.14898     18.77653  0.00332  59092.20143   1.0781  0.13609   135330.89157  46.72015  16.74596  59134.52785    50.80302       44.15374   18.83482  34.97896   39.5    0.25484  -20.31954  0.99678 
   -1.14457  0.07451   3.5426     14.88119  1.86472  0.41555   6.67454  0.14053     0.21108   9717.69726   4601.73778  0.08363         2343.17329     19.33333  0.01197  59094.03902  3.75989  0.49729    37556.50342  46.86613  16.82459  59131.66496    50.64135       43.90147     25.448  40.36034   33.0     0.3194  -20.72234  0.97184 
    -1.5139  0.00795  2.49757     14.32532  1.54889  1.07136  16.46434  0.02951     0.02006   5162.47358   4596.59974  0.26236         4308.96741     19.94076  0.04847   59093.6697   2.6175  0.13088   200553.59684   46.3616  16.65549  59139.91326     50.8835        44.2056   18.83482  40.36034   41.5    0.23396  -20.48581  0.99501 
   -1.85002  0.01973   5.8045     14.54782   1.9273  0.80184   5.26132  0.10074     0.14485   7529.89682   4678.23633  2.00564         2146.28672     16.84274    4e-05  59093.33357  1.77951  0.10382   483781.34276  45.34162  16.77599  59131.07635    50.79173       44.19361   18.83482  29.59758   39.0    0.29509  -20.46961  0.98445 
   -1.96738  0.02766  2.25177     14.62157  1.62231  0.55203  15.51338  0.04963     0.04328   6830.53865   4744.92317  0.03356         2996.37261      20.4836  0.16917  59093.21621  4.31761  0.42907    43636.67602  47.13408  16.74899  59131.66496    50.79266       44.18133   18.83482  32.28827   38.5    0.24986  -20.63092  0.98799 
   -1.33692  0.03635  1.23549     14.46026  1.40552   0.8484  15.74019  0.04736     0.03163   6608.00372   4914.65924  0.02608         3500.97829      19.9165  0.04584  59093.84667  4.09994  0.57214    23923.38371  47.85418  16.77619  59131.66496    50.70161       44.04819   18.83482  34.97896   37.0    0.23099  -20.59398  0.99576 
   -2.13189  0.13458  4.71559     14.21432  1.34492  1.28874   3.52292  0.19926     0.26042   9743.60802   4460.67299  0.52281         2276.74991     17.07995    7e-05   59093.0517  1.99512   0.4741  1035006.38845  45.03553  16.68127  59131.66496    50.72137       44.08573   21.87151  30.48338   36.0    0.32776  -20.59777  0.92448 
   -1.91665  0.13172  4.23916     14.70091  1.65573  0.50165   4.85991  0.16723     0.18203   9307.38264   4491.48633    0.252         2384.81381     19.99006   0.0543  59093.26695  2.51137  0.64017    109533.2572  46.19373  16.70876  59134.52785    50.98675       44.40906   16.14413  29.59758   36.0    0.30849  -20.64009  0.93919 
   -1.61841  0.06084  2.47828     14.66501   1.7855  0.70378   9.87401  0.06035     0.05239   6753.02247   4502.89893  0.08216         2261.16936     18.65474  0.00251  59093.56518  2.68607  0.60078    47626.36312  47.05446   16.8626    59130.125    50.72258       44.11723   18.83482  29.59758   37.0    0.27458  -20.48996  0.98293 
   -1.80869  0.03297   2.9826     14.50262   1.6357  1.08891  15.97128  0.03582     0.03768   6559.94834   4969.73485  0.08944         5806.28694     18.05037  0.00062   59093.3749  4.09985  0.52661   133494.44936   46.4079  16.73717  59130.21814    50.60993        43.8946   26.10155  38.47498   37.0    0.29903  -20.37403  0.97467 
   -1.62613  0.13255  8.45776     14.40577  1.74345  1.09991   3.61032  0.19186     0.30806   9529.10246   4328.25488  2.75895         3714.50958     17.27202   0.0001  59093.55747  1.95559  0.47854  1787256.41768  44.40356  16.89441  59131.66496     50.5385       43.76811   28.13869  43.05103   38.5    0.32651    -20.459  0.84625 
   -1.56755  0.03816  4.44296     14.49098  1.77131  0.81799   3.65515   0.2018     0.27753   8375.01547   4543.24894  0.05718         2468.57865     17.49178  0.00017  59093.61604  1.52934  0.13949   338452.01148   45.6923  16.67115  59130.21814    51.01437        44.5009   13.82416  26.53618   36.0    0.29529  -20.62198  0.98614 
   -1.93281  0.09454  1.95902     14.42849   1.1962  0.57346   4.64065  0.15147     0.08678   6828.74531   4732.31569  0.32251         3835.62119     19.63114  0.02376  59093.25079  1.29088  0.43873    59253.21137  46.98986  16.69072  59131.07635    50.87195       44.30889   15.66714  27.38388   38.0    0.26113  -20.65713  0.98527 
   -2.00798  0.06104  3.52216      14.4525  1.43501   0.6987   4.64215  0.15042     0.18711   8408.18775   5016.35088  0.38184         3557.21116     19.68596  0.02696  59093.17562  1.95772  0.28334   205722.29401   46.0188  16.81636  59130.21814    50.63387       43.96615   22.75731  34.97896   35.0    0.30181   -20.6806  0.97607 
   -1.28476  0.08226  4.54956     14.41168  1.58977  0.98291   4.65934  0.15643     0.17194   8376.47782    4848.5473  0.60721         3625.19181      19.5509  0.01975  59093.89883  1.95018  0.38326   458906.28288  45.49252  16.66479  59137.39075    51.03787       44.44076   13.82416  34.60825   36.5      0.297  -20.60967  0.95454 
   -1.17148  0.06994  2.62502     14.47712  1.83855  1.28458   8.08728  0.08254     0.08145   8461.16513   4720.94517  0.06094         3110.50742     20.11779  0.07286  59094.01211  3.45374  0.56564   130714.09462  46.57874  16.53904  59131.66496     50.8896       44.30106   16.14413  32.28827   33.5    0.32598  -20.76979  0.98234 
