 log(Bfield)      Mns    Pspin  cutoff_power  cutoff_wavelength  fnickel    kappa  kappagamma  mejecta  log(nhhost)  temperature  texplosion  thetaPB     vejecta      A_V        MJD_0   log(KE)     M_Ni  Peak_mag     Peak_MJD 
    12.25155  1.93586  1.41981       2.76895         4281.85043  0.00768  0.25589     0.02485  3.17796     21.04723   4766.15871   -17.64566  1.00297  5676.41814  0.61939  58200.60074   51.9838  0.38513  18.56832  58275.77382 
    12.12565  1.95292  1.31736        2.3705         4473.26976  0.00367  0.20554     0.01532  4.16843     21.00855   3493.75445    -18.6734  1.30452  5303.77024   0.5666    58199.573  51.95755  0.19827  18.56066  58274.40425 
     12.2429  1.86292  1.44645       3.62493         4238.04161  0.00367  0.23748     0.02028  3.43012      21.1287   4252.78849   -18.22839  1.23646  5489.14187  0.74719  58200.01801  51.96412  0.18807  18.57281   58274.2068 
     12.0927  1.59005  1.23366        1.3646         3946.46745  0.01286  0.31099     0.03395   2.8164     21.09566   4541.47457   -17.02447  1.33081  6338.58688  0.69244  58201.22193  52.06423  0.62232   18.5705  58274.40425 
    12.48534  2.02543  1.81403       2.57204         4458.18763  0.00145  0.16988     0.01733  4.27656     21.06316   3132.02524   -16.88966  0.93303  5513.70987  0.64251  58201.35674  51.99424  0.07892  18.56051  58274.40425 
     12.5941  2.04325  2.03891       4.04556         4313.74395  0.00181  0.16663     0.01236  4.45558     21.18878   9706.06342   -17.99019  1.05657  5007.23545  0.85803  58200.25621  51.91525  0.09974  18.57187  58274.40425 
    12.00862  1.78547  0.70049       0.89271         4288.63791  0.02137  0.32397     0.02614  2.95931     21.15584   4627.67673   -18.87985  0.41697  6043.24222  0.79536  58199.36655  52.02917    1.049   18.5607  58275.77382 
    12.16737  1.88415  1.35332       3.74621         4172.77358  0.00174  0.23012     0.01697  3.82356     21.12119   5142.17941   -18.72593  1.47016  5421.14005  0.73437  58199.52047  51.96641  0.09188  18.55901  58274.40425 
    12.02079  1.65334   1.1267       4.91881         4133.15915  0.00131  0.17382     0.01533  4.15376     21.20624   7087.26206   -17.08134  1.48664  5330.20219  0.89325  58201.16506  51.96146  0.07056  18.55889  58274.40425 
    12.49178  1.97033   1.8034       1.89081         4539.09669  0.00413  0.22276     0.02364  3.29654     21.02263   3480.87226   -16.70653   0.8766   5590.3089  0.58527  58201.53987  51.97509  0.20925  18.54742   58274.2068 
    12.20662  1.60269  1.21866       3.03201         4258.75795  0.00315  0.23605     0.01758  3.48676     21.15533   6580.96302    -18.1329  0.85754  5375.66195  0.79442   58200.1135  51.94798  0.16199  18.56385   58273.3437 
    12.16444  1.67467  1.24725        4.0758         4358.16368   0.0073  0.15516     0.01103  4.76215     21.10453   4026.85374   -17.57563  0.95421  4925.76477  0.70673  58200.67077  51.90854  0.40868  18.56576  58274.40425 
    12.07693  2.09827  1.15065       0.64956         4866.66699  0.00179  0.24474     0.01902  3.34824     21.11052   6540.60797   -17.78781  1.13071  5611.87494  0.71655  58200.45859  51.98036  0.09089  18.56632  58274.40425 
    12.38992  1.95888  1.70854       0.22105         5768.01293  0.04594  0.27926     0.03214  2.80313     21.09893   4115.07881   -15.73996  1.19321  6250.17518  0.69768  58202.50644  52.05142  2.21916   18.5605  58274.40425 
    12.00287  1.69049  1.23294       1.82772          4438.1244   0.0017  0.20223     0.02516  4.13958     20.74602   7627.17079   -17.24874  1.50224  6072.70229  0.30956  58200.99766  52.07434  0.09155  18.57374  58274.40425 
     12.4376  1.98129  1.95157       3.90291          4358.6093  0.00346  0.22133     0.02426  3.33228     20.96066   4950.10202   -16.81443  1.32204  5522.52875  0.50745  58201.43197  51.96583  0.17588  18.57244  58274.40425 
    12.16476  1.67014  1.11979       3.78412         4345.70795  0.00529  0.16822     0.01145  4.54292     21.08169    7708.7174   -18.87429   0.7055  4827.35026  0.67053  58199.37211  51.88569  0.29238  18.56519   58274.2799 
    12.09986  2.02834  1.27584       3.50798         4307.62996  0.00689  0.18365     0.01387  4.42181     21.08975   4001.74894   -17.68189  1.48157  5284.71672  0.68309  58200.56451  51.96123  0.37837  18.56341  58274.40425 
    12.14606  2.05642   1.4029        4.7564         4223.49154  0.00384  0.19003     0.02036   4.3586     20.93455   5659.21781   -17.34332  1.36395  5790.19387  0.47783  58200.90308  52.03892  0.20996  18.56745  58274.40425 
      12.151  2.08375   1.2849       2.41271         4397.30694  0.00648  0.17481     0.01757  4.75001     20.94418   6944.26854   -17.60103  0.97002  5743.73483  0.48855  58200.64537  52.04169  0.36225  18.56201  58274.40425 
    12.07865   1.6725  1.13565       3.34208         4253.30542   0.0033  0.18855     0.01594  4.00667      21.1729   7605.66849   -16.99338  1.07302  5488.96923  0.82722  58201.25302  51.98274  0.17626  18.56642  58274.40425 
     12.2753  1.42532  1.17017       2.87059         4193.52982  0.03199  0.18108     0.01035  4.94024     21.25392   4807.57125   -18.07284  0.71382  5246.72413  0.99689  58200.17356  51.96747  1.80777  18.56107   58273.3437 
    12.53104  1.75191  2.07956       4.80119         4196.33502  0.01611  0.17915     0.01733  4.00278     21.14149    5039.0487   -16.33832  1.37806  5330.84146  0.76951  58201.90808  51.95724  0.86103   18.5753  58275.77382 
    12.37876   2.0561  1.69801       2.02905         4501.16124  0.01571  0.18608     0.01499  4.31146     21.06195   3213.75882     -17.747  1.14721  5309.66458  0.64074   58200.4994  51.96242  0.85685  18.56509  58274.40425 
    12.07571  1.69135  0.97994       3.66052          4300.3926  0.00314  0.13529     0.01043  5.22603     21.19334   6113.04891   -17.33656   0.7169  5021.24428  0.86709  58200.90984  51.93552  0.18025  18.56175  58274.40425 
    12.01047  1.77457  0.87759       2.79092         4346.47915   0.0065  0.18311     0.01199   4.4843     21.15732   8155.03503   -18.03599  0.66376  5167.87846  0.79809  58200.21041  51.94341  0.35841  18.54737  58274.40425 
    12.16368   1.4117  1.38272       2.46533         4526.11318  0.00845  0.17841     0.01593  4.02332     21.08767   7287.30568   -16.78799  1.50836  5293.39029  0.67982  58201.45841  51.95171  0.45231  18.57224  58274.40425 
    12.24988  1.67397   1.4453       4.28908         4365.75927  0.04116  0.13738     0.01004  4.65468     21.24184   4891.38282   -15.49375  1.29742  4686.75422  0.96954  58202.75265  51.86276  2.29012  18.57739   58274.3209 
    12.13087  1.70906  1.31567       4.61826          4274.4146  0.03572  0.19598     0.01359  4.00915     21.14425   6960.49513   -16.69811  1.49659   5058.9035  0.77441  58201.54829  51.91194  1.91022  18.55849  58274.40425 
    12.30909   1.9423  1.55269        4.9758         4227.00621  0.01721  0.16026     0.01255  4.54305     21.17561   9697.17638   -17.04157  1.21514  5017.43231  0.83242  58201.20483  51.91923  0.95147  18.54559  58274.40425 
    12.43223  2.01306  1.86848       1.74863         4473.33319  0.01848  0.27848     0.03119  2.98704     20.99118   4108.64941   -17.03753   1.2043   6012.3787  0.54439  58201.20887  52.02591  0.90988  18.56936  58274.40425 
    12.59657   1.6831  1.88435       3.22405         4040.76945  0.01136   0.2196     0.02086   3.7366     21.21101   4206.48371   -17.09408  0.87532   5848.0505   0.9031  58201.15232  52.02951  0.59579  18.56671  58275.77382 
    12.02631  1.37972  1.16054       3.29241         4112.50543  0.00265  0.20557     0.01703  4.16865      21.1015   3784.16394    -18.1663  1.48447   5649.3459  0.70182   58200.0801  52.01239  0.14322  18.56794  58274.40425 
    12.01182  1.87956  1.06123       3.99187         4365.15565  0.00946  0.18534     0.01618  4.19418     20.95882   9938.07313   -17.62559  0.87111   5278.1361  0.50529  58200.62081  51.95406  0.51234  18.56699  58274.40425 
    12.29242  2.04852  1.60711       4.49357         4214.57582   0.0094  0.19604     0.01794  4.10288     21.08716   8500.55931   -17.35952  1.51386    5529.357  0.67903  58200.88688  51.99189  0.50581  18.56511  58274.40425 
    12.18018  1.88316  1.41583       1.05788         4721.44892  0.00179  0.21649     0.02343  3.58689     20.91741   9557.95563   -17.09354  1.20843   5791.2426  0.45934  58201.15286   52.0161  0.09298  18.56831  58274.40425 
    12.16562  1.68514    1.231       3.98471         4269.88285  0.00734  0.16699     0.01065  4.51194     21.19143   6463.93911   -17.95552  1.03174  4874.24988  0.86329  58200.29088  51.89331   0.4053  18.55858  58274.40425 
    12.26195  1.79565  1.43541        3.9972         4320.55803  0.00694  0.19798     0.01712  3.76366     21.01937   8442.02618   -17.04455  0.95458  5220.77738  0.58089  58201.20185  51.93182  0.36459  18.56987  58275.77382 
    12.04613  1.74006  1.33838       0.69586          4779.1682  0.00434  0.31733     0.04403  2.94861     16.37033   5796.75644   -17.30981  1.30796  6463.97453    1e-05  58200.93659  52.08716  0.21277  18.55865   58274.2068 
    12.06505  1.74807   1.3639       0.52175         5128.30789   0.0035  0.30791     0.04317   3.0378     16.39763    3495.0894   -17.97032  1.28123  6362.22138    1e-05  58200.27608  52.07718  0.17319  18.56156  58274.40425 
    12.45515  1.78538  1.56214        1.2084         4681.29481  0.00642  0.22928     0.02158   3.4905     21.05577   7889.96117   -17.63789     0.71  5660.85532  0.63168  58200.60851  51.99301   0.3304  18.55969  58275.77382 
    12.01219  1.91528  1.13463       1.03871         4418.49542  0.00281  0.29281     0.02665   2.9734     21.09997   7745.21174   -18.35643  1.56364  5936.64723  0.69935  58199.88997  52.01432  0.13812  18.55945   58274.2068 
    12.49875  1.95685  1.94616       3.86826         4378.46255  0.00402  0.16265     0.01233  4.55103     21.06454   5023.60448   -17.96968  1.11179  4932.90983  0.64457  58200.27672  51.90468  0.22249  18.57385  58274.40425 
    12.39814  1.86096  1.72924       2.86519         4228.14078  0.01175  0.20813     0.01678  3.76583     21.19892   8477.23194   -17.77394  1.56245  5390.48203  0.87832  58200.47246  51.95967  0.61789  18.56185  58274.40425 
    12.09511  1.86679    1.216       4.63428          4298.1287  0.00272  0.17182      0.0112  4.38049     21.14746   6236.70049   -18.21926  1.23086   4806.9207  0.78016  58200.02714  51.87785  0.14904  18.55852  58274.40425 
    12.03919  1.62365   1.1907       4.25515         4174.25995  0.00631  0.17978     0.01889   4.1923     21.10575   4618.01013   -16.79426  1.39677  5632.47879  0.70872  58201.45214  52.01045  0.34136  18.55566  58275.77382 
    12.12194  1.94156  1.28666        1.4319         2975.62342  0.00135  0.33724     0.04231  2.55171     21.08546   6386.40919   -17.16669  1.46603  6677.32772  0.67638  58201.07971  52.09644  0.06318  18.55627  58274.40425 
    12.04866  1.76509  1.13053       1.05805         2011.99068  0.00116  0.29301     0.03452  3.05613     21.04673   6263.29092    -17.5872  1.10443  6691.36861  0.61867   58200.6592  52.12176  0.05754  18.56517  58274.40425 
    12.00772  1.85732  1.05844       1.84618         3223.35644  0.01034  0.29483     0.03619  2.91547     21.14313   8560.39338   -16.91519  1.12675  6678.95015  0.77243  58201.33121  52.11413  0.50524   18.5716  58274.40425 
    12.10083  1.94991  1.23827       0.99432         3061.86329   0.0084   0.3395     0.03894  2.53368     21.12121   4018.65333   -17.38193  1.43403  6536.49079  0.73441  58200.86447  52.07698  0.39367   18.5502   58274.3209 
    12.40841  1.88571  1.79957       4.95076         4286.14505   0.0069  0.18135     0.01323  4.20517     21.13616   4681.80187   -17.84156  1.46067  5007.57772  0.76014  58200.40484  51.90866  0.37368  18.57082  58274.40425 
    12.16598  1.99129  1.26649       4.96138         4170.34966  0.00199  0.18445     0.01477  4.48063     21.13806   4471.04276   -18.03592  1.05153  5415.58831  0.76346  58200.21048  51.98399  0.10937  18.54332  58274.40425 
    12.09193  1.80537  1.25407       4.69853         4151.89648  0.00425  0.20774     0.01724  3.82616     21.13253   9327.55717   -17.47696    1.531  5397.18755  0.75381  58200.76944  51.96265  0.22421  18.56276  58274.40425 
    12.16342  1.58873  1.35153       2.80564         4341.72503  0.01344    0.227      0.0195  3.43533     21.13609   6359.35492   -16.82502  1.45274  5514.66772     0.76  58201.42138  51.96834  0.68897  18.56719  58275.77382 
    12.28421  1.71828  1.33238       4.97318         4093.25272  0.01096  0.24078     0.02207  3.50224     21.16285   5225.32316   -16.93828  0.84418  5845.17135   0.8083  58201.30812  52.02125  0.56463  18.55896  58274.40425 
    12.23029  1.96928  1.38965       4.84141         4287.77982  0.00215  0.17228     0.01472  4.60028     20.97255   8493.05848   -17.88777  0.93711  5308.08129  0.52153  58200.35863  51.96957  0.11938  18.55645  58275.77382 
    12.36851   1.9273  1.62778       3.77727         4204.49641  0.00265  0.22838     0.02193  3.61919     21.09076   7274.85885   -17.30018  1.06851  5788.53773  0.68468  58200.94622  52.01678  0.13802  18.57175  58274.40425 
    12.59998  2.05059  1.98232       4.98085         4221.30993  0.00862  0.15646     0.01071  4.50167     21.27687   8567.96908   -17.75511  1.06269   4776.1793    1.051  58200.49129  51.87539  0.47526  18.56912  58275.77382 
    12.10419   1.7175   1.2992       1.55012         4694.56048  0.00802  0.23191     0.02061  3.48761     21.02262   9458.57371   -17.52433  1.42904  5600.24652  0.58526  58200.72207  51.98356  0.41284  18.57269  58275.77382 
    12.09263  1.34512   1.0453       2.41662         4169.35307  0.00839  0.22897      0.0186  3.90692     21.15495   6653.30543   -18.76375  0.81091  5656.90972  0.79373  58199.48265  52.00595  0.44565  18.56859  58275.77382 
    12.31798  1.80389  1.54632         0.288         5300.10337  0.00223  0.30125     0.03534  2.68283     21.01488   3226.47095   -17.32679  1.04713  6188.17454  0.57492  58200.91961  52.03702  0.10645  18.56724  58274.40425 
    12.56171  2.07081  2.15401       0.33483         5558.28786  0.00262   0.2782     0.03418  2.83204     20.98086   3812.97302   -16.62534  1.23949  6194.45313   0.5316  58201.62106  52.04497  0.12704  18.57205  58274.40425 
    12.06392  1.62844    1.132       4.92074         4145.32437  0.01029  0.19544     0.01567  4.09669     21.13763   5648.24483   -17.37901  1.05463  5361.61944  0.76271  58200.86739  51.96495  0.55355  18.57901  58274.40425 
    12.06959  1.75946  0.96782       4.80822         4267.40478  0.00382  0.16346     0.01133  4.68315      21.1745   7707.78065   -18.18867  0.70259  4965.07493  0.83029  58200.05773  51.91356  0.21306  18.57916  58274.40425 
    12.20937  1.91297  1.12457       4.28305         4178.90568  0.00406  0.16152     0.01043  4.49469     21.29048    4261.7168   -18.03719  0.78822  4873.20022  1.08444  58200.20921  51.89268  0.22402  18.57362  58274.40425 
    12.01545  1.53051  1.07364       4.74816         4026.01057  0.00147  0.29483     0.02627  3.02068     21.10231   9701.15897   -18.43282  1.05915  5785.47961  0.70313  58199.81358  51.99392  0.07262  18.56764   58274.3209 
    12.01971  1.63208  0.90047       3.26747         4396.03881  0.00431  0.18325     0.01319  4.30305     21.09304   8728.07676   -18.46939   0.6382  5092.48054  0.68828  58199.77701  51.92592   0.2351  18.57055  58274.40425 
    12.16813  1.81338  1.24015       4.32949         3800.71724  0.00115  0.33534     0.03562  2.66797       21.085   9479.21481   -18.10197  0.94467  6233.33449  0.67565  58200.14443   52.0426  0.05495  18.56778  58275.77382 
    12.60758  1.96989   2.0619       4.44935         4314.68655  0.00108  0.15681     0.01092  4.52312     21.18091   7190.14498   -17.43208  1.02793  4803.42808  0.84264  58200.81432  51.88087  0.05964  18.57155  58275.77382 
     12.2059  1.72879  1.25701       4.46814         4222.72727  0.01445   0.1759     0.01132  4.34154     21.26424    9816.0838   -16.84109  1.06464   5107.8843  1.02086  58201.40531  51.92957  0.78964   18.5626  58274.40425 
    12.41411  1.55181   1.3905       4.93572         4227.05982  0.01773  0.17626     0.01109  4.51246     21.20801   3937.55722   -17.88332  0.67567  4965.79808  0.89688  58200.36308  51.90948  0.97878  18.56874  58274.40425 
    12.33988  1.75284  1.38779       4.96044         4227.91769  0.02742  0.17213      0.0116  4.23538     21.25878   6391.48092   -17.01955  0.85565  4878.73688  1.00811  58201.22685  51.88685  1.48818  18.56007  58274.40425 
    12.00876  1.55502  1.12903       4.76291         4168.44141  0.00182  0.17251     0.01352  4.47805     21.15423   4685.13826   -18.31182  1.47982  5172.94925  0.79243  58199.93458  51.94411  0.10029  18.55782   58274.2068 
    12.41088  2.03353  1.72147       3.29791         4407.42269  0.02902  0.17391     0.01004  4.40872     21.22234   4983.78213   -17.43273  1.36731  4792.72204  0.92698  58200.81367  51.87601  1.59195  18.56185   58274.2068 
    12.23682  2.14177  1.26899       4.91499         4267.05096   0.0011  0.16875     0.01036  4.46496     21.22524   3709.87944   -18.11273   0.9248  4899.76043  0.93319  58200.13367  51.89665  0.06079  18.55563   58273.2484 
    12.11021  1.81127  1.08565       3.04886         4478.47533  0.00116  0.18344     0.01528  4.04243     21.03323   6628.29728   -17.75211  0.73563  5201.48861  0.59973  58200.49429  51.93706  0.06208  18.55528    58274.262 
    12.21092  1.68962  1.44551       3.46524         4382.63068  0.00516  0.15295     0.01373  5.03495     21.04311   5616.94418   -17.21813  1.24697  5353.55999  0.61353  58201.02827  51.98708  0.29323  18.55908   58274.2068 
    12.44139  2.16701  1.39306       2.14841         4380.94555  0.01523   0.2519     0.02265  3.26076     21.11127   6333.81796   -17.82765  0.58159  5664.94041  0.71779  58200.41875  51.98525  0.76877  18.56317  58274.40425 
    12.10998  1.76441  1.25312       3.39835         4216.38778  0.00918  0.29118     0.03171  2.83564     21.01978   6338.09238   -17.14008  1.10181  5977.67999  0.58145  58201.10632  52.01419  0.44519  18.57811  58274.40425 
    12.02162  2.09041  1.02812       4.88244         4090.19576  0.00838  0.15429      0.0134  5.04835     21.20051    3323.7881   -16.64344  0.98159  5643.83207  0.88153  58201.60296  52.03324  0.47634  18.55911  58275.77382 
    12.18147  2.00431  1.41469       4.89515         4225.13389  0.00149  0.18375     0.01539  4.21237     21.09461   4351.94026   -18.13114  1.48044  5143.79852  0.69078  58200.11526  51.93217  0.08088  18.57598  58274.40425 
    12.63025  2.02351  2.37422       2.69118         4247.89957  0.00108  0.28852     0.03578  2.86507      20.9813    7193.8695   -16.85871  1.29189  6147.23186  0.53214  58201.38769  52.03982   0.0523   18.5607  58274.40425 
    12.77893  2.16343  2.62843       4.54977         4272.42957  0.05839  0.16813     0.01279  4.36883     21.23776   3416.90089   -15.84385   1.2449   4987.3529  0.96048  58202.40255  51.90955  3.19548  18.55303  58274.40425 
    12.27167  1.99956  1.34582       4.24473         4342.42296  0.00527  0.15919     0.01095  4.92217     21.05156   3666.98115   -17.76301  0.81375  5017.58997  0.62558  58200.48339  51.92827  0.29731  18.56081   58274.2799 
    12.09634  1.71737  1.23122       4.13149          4205.0037  0.00114   0.1647     0.01268   4.8471     21.16528   3167.00165   -18.66655   1.3808  5241.15052  0.81284  58199.57985  51.96442  0.06422  18.55359  58274.40425 
    12.33711  1.78437  1.51795       4.26629         3981.80464  0.02358  0.20241     0.01562  3.90939     21.22514   4720.43144   -17.07097  1.12411  5413.08878  0.93298  58201.17543  51.96775  1.25238  18.56917  58274.40425 
    12.26608  1.76036  1.47582       3.52215          4372.5362   0.0021  0.17097     0.01127  4.35234      21.2028    6227.1013   -18.41852  1.43299  4827.71442  0.88619  58199.82788  51.88086  0.11508   18.5688  58274.40425 
    12.10411  2.14916  1.16054       0.54516         5076.55376  0.01975  0.22042     0.01951  3.56153     21.15185   3565.16934   -16.45923  1.07508  5867.82558  0.78809  58201.78717  52.02666  1.02268  18.56516  58274.40425 
    12.50163  2.17645  1.84674       0.85014         2673.76028  0.00383  0.29635     0.03104  2.90035     21.21191   8230.36469   -17.83392  1.29643  6503.79806  0.90499  58200.41248  52.09038   0.1869  18.57169  58274.40425 
    12.23588  2.16596   1.4586       0.36141         2678.36226  0.00638   0.3151     0.03821  2.66239     21.10191   8741.70302   -16.68986  1.53013  6678.36726  0.70248  58201.55654  52.10222  0.30347  18.56312  58274.40425 
    12.01167  1.50649  0.83315       3.55402         4266.50867  0.03799  0.17437     0.01261  4.47968     21.21452    6835.4732   -16.78095  0.58984  5223.64499  0.91044  58201.46545  51.95262  2.09289  18.55976  58274.40425 
    12.02697  1.91003    1.173       4.68824         4281.64502  0.00987  0.14231     0.01035  5.02885     21.12998     7975.493   -17.66672   1.4476  4799.37024   0.7494  58200.57968  51.89203  0.56029  18.56261  58275.77382 
    12.16652  1.82559  1.40544       4.27147         4282.91674  0.01424  0.18932      0.0136  4.15744     21.05904   4752.39017   -17.83751  1.53085  5018.92086  0.63645  58200.40889   51.9093  0.76887   18.5666  58275.77382 
    12.27016  1.73036  1.47113       4.62677         4208.36967  0.03511  0.19301     0.01468  3.87412     21.24001   3537.25542   -16.38051  1.36163  5177.58261  0.96547  58201.86589  51.92804  1.86028  18.56852  58274.40425 
      12.114  2.01043  1.16457       2.10169         4457.52401   0.0037    0.181     0.01277   4.2147     21.18552   4649.63218   -17.95673  1.06216  5177.71587  0.85162  58200.28967  51.93794  0.20061  18.57153  58274.40425 
    12.07663  1.82291  1.21609       4.85579         4398.64783  0.00149  0.16383     0.01158  4.61122     20.85285   5491.61733   -18.70217  0.98349  4744.13989  0.39589  58199.54423  51.87227  0.08297  18.56269  58275.77382 
    12.21599  1.76375  1.41027       4.11119         4140.69132  0.00373  0.17299     0.01419  4.75723     21.18129   5049.28804   -17.94275  1.53638  5491.14614  0.84338  58200.30365   52.0028  0.20855  18.56394  58274.40425 
    12.14254  2.01198  1.29372       4.81685         4188.10688  0.00217  0.18613     0.01463  3.89197     21.20802    3407.9807    -17.8196  1.46966  5096.60929  0.89691   58200.4268   51.9149  0.11528  18.57154  58275.77382 
    12.43865   1.9065  1.68934       3.27668         4441.56362  0.00284  0.15129     0.01223  4.54297     21.16204   7975.83475   -17.50808  0.96818   4929.8849   0.8068  58200.73832  51.90394  0.15728  18.56766  58274.40425 
    12.17165   1.6785  1.22242        4.4509         4177.01461  0.05174  0.19587      0.0123  4.42073     21.27879   5926.58537   -17.34355  1.10673   5253.9036  1.05564  58200.90285  51.95612  2.84054  18.56601   58274.3209 
    12.74369  1.90703  2.49899        4.6855         4235.98121  0.00403  0.16789      0.0134  4.26376     21.14672   5541.73005   -17.38911  1.10008  4977.45709  0.77883  58200.85729  51.90502  0.21925  18.56069  58275.77382 
    12.36058   1.9537  1.69852       0.43446         4671.92707  0.00585  0.31983     0.03973  2.64613     21.06188   4308.57976     -16.691   1.3717  6514.55023  0.64063   58201.5554  52.07984  0.27769  18.56505  58275.77382 
    12.51083  1.84258  1.62617       4.88309         4322.66982  0.00181  0.14605     0.01039  4.84832     21.13733   4305.46066   -17.99385  0.68973  4726.15742  0.76217  58200.25255  51.87461  0.10161   18.5717   58274.2419 
    12.57004  1.98615  1.67777       2.17187          4474.7001  0.02944  0.17737      0.0143  4.02444       21.175   3246.70818   -16.69083  0.65316  5168.17804  0.83125  58201.55557  51.93095  1.57598  18.56621  58274.40425 
     12.3678  1.65237  1.54196       4.46904         4367.25387  0.00194  0.15492     0.01051   4.5055       21.174   3001.95854   -17.14777  0.97315  4771.27375  0.82932  58201.09863   51.8746  0.10711  18.55744  58274.40425 
    12.19056  1.83341  1.15788       4.00075         4231.17158  0.05871  0.17174     0.01386  3.88397     21.30986   8004.11644    -15.4156  0.87444  5143.42004  1.13392   58202.8308  51.92259  3.11275  18.55707  58274.40425 
    12.25164  1.96116  1.56506       3.87095         4328.02022  0.00877  0.20085     0.01857  3.74223     21.03833   4770.27904   -17.04594  1.56739  5360.38917  0.60681  58201.20046  51.95406  0.46032  18.55708  58275.77382 
    12.27601  1.72159  1.44214       4.45118         4204.79712  0.06251  0.17399     0.01075  4.39848     21.27888   7410.92714   -16.33666  1.28178  4897.58753  1.05585  58201.90974  51.89455  3.42686  18.56539  58275.77382 
    12.13904  1.86526   1.3308       4.73306         4300.79008  0.01575  0.16091     0.01207  4.64649      21.1253   8763.76459   -17.43623   1.3977  4998.94818  0.74135  58200.81017  51.91858  0.87603  18.57294  58275.77382 
    12.19732  1.90504  1.44464       4.34246         4312.76707   0.0156  0.14461     0.01332  5.27521     20.94675   3818.73058   -16.82614  1.12797  5275.08679  0.49145  58201.42026  51.97938  0.89648  18.57212  58274.40425 
    12.07542  1.74986  1.28615       2.90806         4321.44812  0.00376  0.22161     0.02265  3.62372     20.97648   4332.46329   -17.22826  1.49962  5750.36588  0.52627  58201.01814  52.01119  0.19576  18.55697  58274.40425 
    12.29385  1.85135  1.60209       4.72135         4293.19573  0.00931  0.18436      0.0148  4.09597     21.06594   9833.24476   -17.72804  1.30441  5073.52077  0.64665  58200.51836  51.91696  0.50062  18.55839  58275.77382 
    12.59427   1.8205  1.75986       3.05878         4345.99606  0.00233  0.17154     0.01294  4.39113     21.20343   9512.75762   -17.88246  0.72822  5145.92526  0.88747  58200.36394  51.93732  0.12764  18.56215   58274.2799 
    12.10954  1.68511  1.31364       1.03705          4704.5457   0.0073  0.24786     0.02604  3.05912     21.02782   8386.26397   -16.58254  1.49866  5768.74544  0.59231  58201.66386  51.99301  0.36203  18.56568   58276.2287 
    12.04315  2.03725   1.2573       3.17505         4490.99265  0.00368  0.17465     0.01411  4.23168      20.9239   7650.22189   -17.88767  1.40015  4966.80606  0.46626  58200.35873  51.90228   0.1999  18.55487  58274.40425 
     12.2003  1.77455  1.13282       4.25447         4292.38424  0.01475  0.15409     0.01025   5.1582     21.10085   5946.36092   -18.19994   0.6617   4888.5833  0.70077  58200.04646  51.91083  0.84263  18.56926  58275.77382 
    12.13698  1.43686  0.92847       2.89833         3788.60134  0.01825  0.18825     0.01743  4.53522     21.27075   6059.03096   -18.01737  0.60597  5945.12086  1.03627  58200.22903   52.0664  1.00879  18.57309  58275.77382 
    12.19258  1.63829   1.4017       4.88573         4266.75134  0.01136  0.19624     0.01422  3.99062     21.13221   7902.19376   -18.02708  1.37855  5021.73468  0.75324  58200.21932    51.905  0.60693  18.55603  58275.77382 
     12.1762  1.59495     1.17       4.92827         4085.40791  0.03837  0.16726     0.01197  4.50262     21.29681   5996.85277   -16.58724  0.95211  5133.07443  1.10038  58201.65916  51.93801  2.11627  18.56481  58274.40425 
    12.42537  1.96751  1.79318       3.81905          4192.0343  0.03714  0.18937     0.01541  4.00393     21.22281   4307.90547   -16.45112  1.50906  5273.51445  0.92798  58201.79528  51.94788  1.98559  18.55666  58274.40425 
    12.28174   1.6445  1.46248       3.06162          4228.0883  0.12532  0.15738     0.01213  4.46189     21.29663   9557.08492   -14.20318  1.21814  5054.13279  1.09992  58204.04322  51.92351  6.89607  18.57339   58274.2068 
    12.31372  2.00275  1.57794        3.3254         4280.34699  0.11948  0.19174     0.01519   3.8458     21.26652   5747.52271   -14.41695  1.42835  5227.16447  1.02624  58203.82945  51.93545   6.3181   18.5622  58275.77382 
    12.10967  1.95741  0.95165       4.11363         4075.32558  0.00348  0.18875     0.01108  4.58282     21.26531   7427.78583   -18.59394  0.69807  5211.84438  1.02337  58199.65246  51.95324  0.19282  18.56054  58274.40425 
    12.58337  1.88583  1.87258       4.60583         4378.15443  0.00773  0.14941     0.01322  4.62829     21.08228   5955.32652   -16.71951  0.73919  5035.96413  0.67143  58201.52689  51.92454  0.42924  18.57742  58274.40425 
    12.07995  1.98077  1.14567       0.24655         5325.01393  0.02369   0.2735     0.02728  2.87857      21.0919   9896.74604   -16.90325   1.0359  5965.37061  0.68647  58201.34315  52.01435   1.1534  18.56226  58274.40425 
    12.18503  2.06062  1.07917       1.02223         4236.65458  0.00146   0.2941     0.02537  3.02738     21.16698   9914.51237   -18.77526  0.69801  5911.42401  0.81604  58199.47114  52.01291  0.07198  18.55261   58273.3437 
    12.10519  1.56465  1.15446       4.37114         3993.30824  0.00128   0.1436     0.01092  5.55804     21.25898   9007.84311   -17.61901  1.21271  5448.07393  1.00857  58200.62739  52.01308   0.0746   18.5529   58274.2068 
    12.14992   1.9588  1.09107       4.83931         4161.47493  0.00622  0.19378     0.01324  4.24599     21.21697   7941.53601   -18.64698  0.79407  5159.09357  0.91558  58199.59942  51.93567  0.33756  18.56822  58274.40425 
    12.16093  2.12992  1.35589       2.97617         4424.83552  0.01748  0.18236     0.01372  4.01476     21.14031   7974.21774    -17.1714  1.46735  5045.49804  0.76743    58201.075   51.9098  0.93532  18.56836  58274.40425 
    12.87222   2.1945  2.73757        4.5419         4180.10463  0.00249   0.1771     0.01381  4.24306     21.21606   6913.72713   -17.94638   1.0205  5065.41907  0.91366  58200.30002  51.91967  0.13537   18.5681   58274.2795 
     12.0005  1.33531  0.86083       4.48707         4318.76414  0.03993  0.15975     0.01197   4.4433     21.17793    3157.4114   -15.82932  0.61553  5008.80995  0.83687  58202.41708  51.91521  2.19467  18.56132  58274.40425 
    12.21202  1.92987  1.39833       4.35354         4447.17709  0.02195  0.15715     0.01322  4.61435     20.93687   4449.29512   -16.54421  0.93837  4918.60323   0.4804  58201.70219  51.90372  1.21872  18.55527  58274.40425 
    12.13911  1.75708  1.37389       0.97105         4446.35677  0.00373  0.28849     0.03747  3.11888     20.81674   4456.10459   -17.36546  1.23532  6502.28515   0.3643  58200.88094  52.09943  0.18613  18.55318  58274.40425 
    12.29352  1.59774  1.58858       4.65204         4306.69707  0.00547  0.17691     0.01409  4.00688     21.13106   6127.14721   -16.89446   1.4885  5030.10944  0.75125  58201.35194  51.90692  0.29229  18.56651   58276.2851 
    12.02718  1.62087  1.16093       3.12447         4328.97619   0.0091   0.2066     0.01719  3.79847     21.13542   4206.77528   -17.57209  1.54597  5403.31844  0.75884  58200.67431  51.96277  0.47932  18.56689  58275.77382 
    12.24961  1.68241  1.65274       0.87994            4983.92   0.0045   0.1597     0.01669  5.18926     20.64242   5855.87787   -17.77566  1.54071  5692.94204  0.24386  58200.47074   52.0438  0.25724  18.56632  58275.77382 
    12.09489  1.81033  1.23596       3.74034         4318.35241  0.00352  0.19362     0.01501   3.8692       21.161   9928.90061   -17.88728  1.40431  5175.41946  0.80488  58200.35912  51.92753  0.18642   18.5669  58274.40425 
    12.34801  1.91463  1.65085       1.96983         4379.02686  0.00286  0.21863     0.02002   3.4791     21.15535   5704.50246   -17.38156  1.43492   5556.4212  0.79448  58200.86484  51.97644  0.14718  18.57587  58274.40425 
    12.08275  1.62957  1.20258       4.33352         4303.02755  0.02297  0.16179      0.0106  4.60732     21.21456    7210.6785   -17.62291  1.41559  4793.70762  0.91051  58200.62349  51.88121  1.27468  18.56297  58274.40425 
    12.21296  1.89064  1.38289       1.33836         4450.33648  0.00467  0.27271      0.0243  3.03327     21.12136   3796.71618   -17.68288  1.24132  5846.97745  0.73465  58200.56352  52.00364  0.23075  18.56763  58274.40425 
    12.23147  1.65346  1.49091       2.52324         4358.50062  0.02498  0.29858      0.0305   2.8791     21.03893   8248.27039   -16.96963  1.32237   5914.2359  0.60765  58201.27677  52.00689  1.21642  18.56994  58275.77382 
     12.1421  1.98075  1.14255       3.08346          4427.8158  0.01086  0.16719     0.01017  4.61175     21.18413   5186.83433   -18.14274  0.89325    4843.098  0.84891  58200.10366  51.89022  0.60287  18.57409  58275.77382 
    12.06697  1.85208  1.05235       1.80036           3971.232  0.00982  0.23661     0.02225  3.80994     21.17637   3458.25306   -18.01494  0.92846  6222.27105  0.83387  58200.23146   52.0857  0.51788  18.57219  58275.77382 
    12.44789   1.8675  1.72203       3.84686         4076.75936  0.00591  0.18139     0.01292  4.58871     21.26443   8101.72959   -18.02685  1.26797  5356.31012  1.02131  58200.21955  51.97714  0.32765  18.57492  58275.77382 
    12.18379  2.15411  1.36318       4.43128         4314.60273   0.0037  0.15651     0.01018  4.82701     21.15518   4333.26794   -17.95173  1.36274  4869.30701  0.79415  58200.29467  51.90004  0.20772  18.55543  58274.40425 
    12.42303  1.91086  1.74949        2.0215          4331.9777  0.00131  0.21596      0.0177  3.92537      21.1031   9589.09763    -17.9547  1.16156  5605.65946  0.70441   58200.2917   51.9986  0.06954  18.56175  58274.40425 
    12.31265  1.74994  1.02477       4.21317          4418.0858   0.0276  0.17593     0.01229  4.23935     21.14043   3937.40046   -16.99489  0.40606  4889.31343  0.76764  58201.25151  51.88884  1.49855  18.56925  58274.40425 
    12.27376  1.73155  0.82651       4.20225         4365.54098  0.03501  0.15589     0.01038  4.52996     21.17806   3257.46355   -16.59351  0.28892  4733.37311  0.83711  58201.65289  51.86828    1.934  18.56113  58274.40425 
    12.35271  1.73287  1.56716       4.15529         4425.62904  0.00745  0.15798     0.01383  4.59974     20.98276    9919.7945   -17.38488  0.87107  5028.74518  0.53393  58200.86152   51.9226  0.41333  18.56525  58274.40425 
    12.04184  2.13717  1.03853       2.76553         4257.60373  0.01574  0.19736     0.01897  4.02862     21.07807   7282.80768   -17.22256  0.82646  5686.63177  0.66496  58201.02384  52.01411  0.84296  18.57355  58274.40425 
