# Wavelength Flux
# STATUS = PUBLIC
# OBJECT = 2018don
# TELESCOPE = P200
# INSTRUMENT = DBSP
# DATE-OBS = 2018-05-16 08:14:43
# MJD =
# EXPTIME =
# SLIT =
# DISPERSER =
# SOURCE = 2019TNSCR1838....1F
# FILTER =
# FLUX_STANDARD =
# EXTINCTION_CORRECTED =
# PHOTOMETRY_CALIBRATED =
# FLUX_UNITS =
# QUALITY =
# MIN_WAVE =
# MAX_WAVE =
# COMMENT = Adams
3400.0 6.5792e-17
3401.525 7.7857e-17
3403.05 7.9102e-17
3404.575 4.5399e-17
3406.1 3.5241e-17
3407.625 6.5141e-17
3409.15 4.4294e-17
3410.675 5.5557e-17
3412.2 2.4014e-17
3413.725 2.2546e-17
3415.25 5.7654e-17
3416.775 5.0021e-17
3418.3 1.7836e-17
3419.825 4.5822e-17
3421.35 2.4297e-17
3422.875 6.1688e-17
3424.4 4.5992e-17
3425.925 2.7078e-17
3427.45 2.8341e-17
3428.975 4.8083e-17
3430.5 3.4058e-17
3432.025 3.7967e-17
3433.55 6.3447e-17
3435.075 9.0498e-17
3436.6 5.9188e-17
3438.125 4.5779e-17
3439.65 4.3854e-17
3441.175 4.142e-17
3442.7 4.8563e-17
3444.225 6.7393e-17
3445.75 6.622e-17
3447.275 4.27e-17
3448.8 3.4777e-17
3450.325 2.8071e-17
3451.85 6.7745e-17
3453.375 1.114e-16
3454.9 9.0176e-17
3456.425 4.1127e-17
3457.95 2.7142e-17
3459.475 7.4899e-17
3461.0 5.9995e-17
3462.525 5.2229e-17
3464.05 3.1461e-17
3465.575 4.6236e-17
3467.1 2.8961e-17
3468.625 6.2965e-17
3470.15 2.8558e-17
3471.675 -4.0832e-18
3473.2 1.5131e-17
3474.725 3.2124e-17
3476.25 9.5205e-18
3477.775 4.9519e-17
3479.3 1.1101e-17
3480.825 3.6172e-17
3482.35 6.9103e-17
3483.875 7.4385e-17
3485.4 1.6888e-17
3486.925 3.0768e-17
3488.45 2.3473e-17
3489.975 2.9339e-17
3491.5 3.7799e-17
3493.025 3.4739e-17
3494.55 3.297e-17
3496.075 5.8173e-17
3497.6 6.4186e-17
3499.125 5.304e-17
3500.65 3.9876e-17
3502.175 3.3163e-17
3503.7 5.9119e-17
3505.225 5.0031e-17
3506.75 3.6417e-17
3508.275 2.4975e-17
3509.8 3.7877e-17
3511.325 4.5008e-17
3512.85 3.5215e-17
3514.375 2.8503e-17
3515.9 6.73e-17
3517.425 7.5523e-17
3518.95 6.3971e-17
3520.475 6.2513e-17
3522.0 5.4044e-17
3523.525 4.4577e-17
3525.05 4.8881e-17
3526.575 7.448e-17
3528.1 5.8132e-17
3529.625 5.8881e-17
3531.15 5.2023e-17
3532.675 5.6271e-17
3534.2 6.272e-17
3535.725 3.3393e-17
3537.25 6.366e-17
3538.775 5.0989e-17
3540.3 4.9267e-17
3541.825 7.276e-17
3543.35 4.1405e-17
3544.875 3.4769e-17
3546.4 4.579e-17
3547.925 4.0496e-17
3549.45 5.1645e-17
3550.975 2.9311e-17
3552.5 2.0466e-17
3554.025 5.2081e-17
3555.55 3.7847e-17
3557.075 2.538e-17
3558.6 2.2446e-17
3560.125 1.9421e-17
3561.65 4.7857e-17
3563.175 4.8315e-17
3564.7 3.5014e-17
3566.225 2.4471e-17
3567.75 3.5668e-17
3569.275 5.0006e-17
3570.8 7.5014e-17
3572.325 6.5003e-17
3573.85 3.3223e-17
3575.375 4.6729e-17
3576.9 4.2482e-17
3578.425 3.5998e-17
3579.95 4.0655e-17
3581.475 2.8805e-17
3583.0 2.0939e-17
3584.525 3.6839e-17
3586.05 5.1104e-17
3587.575 4.9756e-17
3589.1 3.7079e-17
3590.625 3.1225e-17
3592.15 4.3976e-17
3593.675 7.1053e-17
3595.2 6.6692e-17
3596.725 4.0128e-17
3598.25 5.5959e-17
3599.775 7.5729e-17
3601.3 8.2019e-17
3602.825 8.0131e-17
3604.35 7.0292e-17
3605.875 5.5209e-17
3607.4 4.1102e-17
3608.925 2.9653e-17
3610.45 3.0406e-17
3611.975 4.5825e-17
3613.5 5.3841e-17
3615.025 4.8886e-17
3616.55 6.7412e-17
3618.075 5.6727e-17
3619.6 3.3332e-17
3621.125 4.7714e-17
3622.65 4.7023e-17
3624.175 4.8547e-17
3625.7 7.2914e-17
3627.225 6.1483e-17
3628.75 5.5622e-17
3630.275 4.5442e-17
3631.8 2.86e-17
3633.325 2.4819e-17
3634.85 3.0982e-17
3636.375 4.2657e-17
3637.9 5.6376e-17
3639.425 5.2316e-17
3640.95 4.3769e-17
3642.475 4.6185e-17
3644.0 5.2121e-17
3645.525 3.383e-17
3647.05 5.0243e-17
3648.575 5.1524e-17
3650.1 5.9148e-17
3651.625 4.5642e-17
3653.15 3.4073e-17
3654.675 2.6304e-17
3656.2 4.4981e-17
3657.725 5.191e-17
3659.25 5.2061e-17
3660.775 5.4434e-17
3662.3 5.4193e-17
3663.825 6.1639e-17
3665.35 6.4836e-17
3666.875 4.4639e-17
3668.4 4.6868e-17
3669.925 4.8168e-17
3671.45 5.0402e-17
3672.975 6.0928e-17
3674.5 6.8144e-17
3676.025 5.0663e-17
3677.55 4.137e-17
3679.075 3.8071e-17
3680.6 4.2109e-17
3682.125 5.0321e-17
3683.65 4.7224e-17
3685.175 3.531e-17
3686.7 5.4615e-17
3688.225 5.0435e-17
3689.75 5.5811e-17
3691.275 4.1234e-17
3692.8 4.8327e-17
3694.325 3.7531e-17
3695.85 5.3196e-17
3697.375 5.3812e-17
3698.9 4.8717e-17
3700.425 4.962e-17
3701.95 6.1175e-17
3703.475 6.2307e-17
3705.0 4.0332e-17
3706.525 4.0973e-17
3708.05 5.2904e-17
3709.575 3.7101e-17
3711.1 4.0106e-17
3712.625 3.1631e-17
3714.15 4.2989e-17
3715.675 5.2219e-17
3717.2 4.4824e-17
3718.725 5.1823e-17
3720.25 4.4407e-17
3721.775 3.0956e-17
3723.3 4.1804e-17
3724.825 3.5138e-17
3726.35 4.445e-17
3727.875 4.7382e-17
3729.4 3.9381e-17
3730.925 3.4836e-17
3732.45 4.1193e-17
3733.975 4.9524e-17
3735.5 4.6394e-17
3737.025 3.8594e-17
3738.55 3.6659e-17
3740.075 4.2361e-17
3741.6 4.6627e-17
3743.125 5.7082e-17
3744.65 5.6112e-17
3746.175 5.2695e-17
3747.7 4.7248e-17
3749.225 3.3181e-17
3750.75 3.8099e-17
3752.275 4.6251e-17
3753.8 4.5746e-17
3755.325 5.3895e-17
3756.85 6.2104e-17
3758.375 6.2861e-17
3759.9 4.6652e-17
3761.425 4.5491e-17
3762.95 5.1162e-17
3764.475 5.6897e-17
3766.0 6.0673e-17
3767.525 4.9456e-17
3769.05 5.162e-17
3770.575 5.8171e-17
3772.1 5.6402e-17
3773.625 4.3552e-17
3775.15 4.2026e-17
3776.675 5.0376e-17
3778.2 6.258e-17
3779.725 7.3184e-17
3781.25 5.9624e-17
3782.775 5.1563e-17
3784.3 5.5563e-17
3785.825 5.1663e-17
3787.35 4.8657e-17
3788.875 5.1675e-17
3790.4 4.189e-17
3791.925 3.5912e-17
3793.45 5.8303e-17
3794.975 5.1838e-17
3796.5 5.5966e-17
3798.025 4.7235e-17
3799.55 5.2035e-17
3801.075 4.7365e-17
3802.6 3.8805e-17
3804.125 4.498e-17
3805.65 5.5106e-17
3807.175 5.093e-17
3808.7 4.8613e-17
3810.225 5.4956e-17
3811.75 5.0766e-17
3813.275 4.5501e-17
3814.8 5.6899e-17
3816.325 6.6601e-17
3817.85 5.7448e-17
3819.375 5.5779e-17
3820.9 6.4978e-17
3822.425 5.4628e-17
3823.95 5.5904e-17
3825.475 4.5212e-17
3827.0 4.8854e-17
3828.525 5.5194e-17
3830.05 4.9576e-17
3831.575 5.3989e-17
3833.1 5.7503e-17
3834.625 5.2033e-17
3836.15 4.7247e-17
3837.675 4.6725e-17
3839.2 4.0145e-17
3840.725 3.7302e-17
3842.25 3.8285e-17
3843.775 4.4619e-17
3845.3 4.6366e-17
3846.825 5.3869e-17
3848.35 4.4489e-17
3849.875 4.0211e-17
3851.4 4.6147e-17
3852.925 5.4638e-17
3854.45 5.6885e-17
3855.975 5.6689e-17
3857.5 4.5216e-17
3859.025 6.2799e-17
3860.55 6.5989e-17
3862.075 5.0741e-17
3863.6 4.9501e-17
3865.125 5.3784e-17
3866.65 5.3323e-17
3868.175 5.4421e-17
3869.7 5.4707e-17
3871.225 5.6932e-17
3872.75 5.6036e-17
3874.275 5.339e-17
3875.8 6.1035e-17
3877.325 5.3088e-17
3878.85 5.1892e-17
3880.375 5.0854e-17
3881.9 4.6421e-17
3883.425 4.1908e-17
3884.95 4.6736e-17
3886.475 6.2746e-17
3888.0 6.8304e-17
3889.525 6.5749e-17
3891.05 6.7637e-17
3892.575 6.3795e-17
3894.1 6.8119e-17
3895.625 5.8424e-17
3897.15 6.7342e-17
3898.675 7.4502e-17
3900.2 5.1262e-17
3901.725 5.118e-17
3903.25 5.6384e-17
3904.775 7.7042e-17
3906.3 7.5552e-17
3907.825 4.6809e-17
3909.35 4.9122e-17
3910.875 6.0682e-17
3912.4 6.3602e-17
3913.925 5.4273e-17
3915.45 5.4107e-17
3916.975 5.1716e-17
3918.5 5.7262e-17
3920.025 6.5974e-17
3921.55 6.8913e-17
3923.075 6.5839e-17
3924.6 5.3933e-17
3926.125 6.7044e-17
3927.65 7.5465e-17
3929.175 7.3697e-17
3930.7 6.5675e-17
3932.225 6.6139e-17
3933.75 5.4865e-17
3935.275 6.0673e-17
3936.8 5.9296e-17
3938.325 6.4319e-17
3939.85 5.9737e-17
3941.375 5.3908e-17
3942.9 4.8368e-17
3944.425 4.7691e-17
3945.95 6.5475e-17
3947.475 6.5091e-17
3949.0 6.1311e-17
3950.525 5.2562e-17
3952.05 6.1451e-17
3953.575 6.5893e-17
3955.1 6.322e-17
3956.625 6.0102e-17
3958.15 5.0579e-17
3959.675 5.302e-17
3961.2 5.9958e-17
3962.725 6.8891e-17
3964.25 6.224e-17
3965.775 7.0257e-17
3967.3 6.1249e-17
3968.825 4.7494e-17
3970.35 5.3789e-17
3971.875 5.7574e-17
3973.4 5.2726e-17
3974.925 6.3706e-17
3976.45 6.5456e-17
3977.975 6.3084e-17
3979.5 4.5471e-17
3981.025 5.4113e-17
3982.55 5.759e-17
3984.075 5.0644e-17
3985.6 6.4062e-17
3987.125 5.4607e-17
3988.65 5.3309e-17
3990.175 5.3285e-17
3991.7 5.5707e-17
3993.225 5.0295e-17
3994.75 5.7461e-17
3996.275 4.5293e-17
3997.8 5.3222e-17
3999.325 6.4093e-17
4000.85 6.3368e-17
4002.375 6.3125e-17
4003.9 6.6059e-17
4005.425 6.1739e-17
4006.95 6.5517e-17
4008.475 7.0725e-17
4010.0 3.351e-17
4011.525 4.4757e-17
4013.05 5.7474e-17
4014.575 6.4503e-17
4016.1 5.6582e-17
4017.625 5.0387e-17
4019.15 6.2582e-17
4020.675 6.0777e-17
4022.2 6.0628e-17
4023.725 5.6625e-17
4025.25 5.6502e-17
4026.775 5.5833e-17
4028.3 6.1643e-17
4029.825 6.1348e-17
4031.35 6.0067e-17
4032.875 5.0015e-17
4034.4 5.3479e-17
4035.925 5.927e-17
4037.45 6.3554e-17
4038.975 4.9732e-17
4040.5 5.0073e-17
4042.025 5.2756e-17
4043.55 5.4926e-17
4045.075 4.7265e-17
4046.6 6.4088e-17
4048.125 5.1993e-17
4049.65 4.3532e-17
4051.175 6.6631e-17
4052.7 5.7398e-17
4054.225 5.4729e-17
4055.75 5.7552e-17
4057.275 5.8644e-17
4058.8 6.3976e-17
4060.325 6.5126e-17
4061.85 6.2555e-17
4063.375 6.1181e-17
4064.9 6.4259e-17
4066.425 5.8317e-17
4067.95 6.8331e-17
4069.475 6.2202e-17
4071.0 6.2745e-17
4072.525 6.1729e-17
4074.05 5.6846e-17
4075.575 7.6588e-17
4077.1 6.7914e-17
4078.625 6.1458e-17
4080.15 6.282e-17
4081.675 6.3262e-17
4083.2 5.4161e-17
4084.725 4.8985e-17
4086.25 4.9406e-17
4087.775 6.0909e-17
4089.3 6.9935e-17
4090.825 6.2889e-17
4092.35 6.5763e-17
4093.875 6.1092e-17
4095.4 6.1645e-17
4096.925 6.7016e-17
4098.45 6.4103e-17
4099.975 6.546e-17
4101.5 5.4018e-17
4103.025 5.2462e-17
4104.55 6.06e-17
4106.075 5.2223e-17
4107.6 5.8067e-17
4109.125 6.2603e-17
4110.65 6.1745e-17
4112.175 5.3018e-17
4113.7 4.7621e-17
4115.225 4.6916e-17
4116.75 5.3767e-17
4118.275 4.9789e-17
4119.8 4.9996e-17
4121.325 5.7046e-17
4122.85 6.0557e-17
4124.375 6.1737e-17
4125.9 5.8545e-17
4127.425 5.4867e-17
4128.95 6.1248e-17
4130.475 6.4649e-17
4132.0 6.6938e-17
4133.525 7.1953e-17
4135.05 6.9896e-17
4136.575 6.7349e-17
4138.1 6.4785e-17
4139.625 6.1295e-17
4141.15 6.2651e-17
4142.675 5.8173e-17
4144.2 6.0304e-17
4145.725 7.6719e-17
4147.25 7.8369e-17
4148.775 7.3092e-17
4150.3 7.1674e-17
4151.825 7.4257e-17
4153.35 7.0677e-17
4154.875 6.605e-17
4156.4 6.9655e-17
4157.925 5.7593e-17
4159.45 5.8364e-17
4160.975 6.535e-17
4162.5 6.766e-17
4164.025 7.3201e-17
4165.55 7.8272e-17
4167.075 7.1708e-17
4168.6 7.1371e-17
4170.125 7.545e-17
4171.65 7.3809e-17
4173.175 6.8695e-17
4174.7 6.6278e-17
4176.225 7.0523e-17
4177.75 6.5481e-17
4179.275 6.8851e-17
4180.8 6.7058e-17
4182.325 6.7311e-17
4183.85 5.9601e-17
4185.375 6.1424e-17
4186.9 7.466e-17
4188.425 7.3076e-17
4189.95 6.7814e-17
4191.475 6.6369e-17
4193.0 6.9331e-17
4194.525 7.3123e-17
4196.05 7.1533e-17
4197.575 6.8106e-17
4199.1 6.7683e-17
4200.625 7.5444e-17
4202.15 7.6614e-17
4203.675 6.6885e-17
4205.2 6.3607e-17
4206.725 6.1089e-17
4208.25 6.0701e-17
4209.775 6.1713e-17
4211.3 6.3094e-17
4212.825 5.9466e-17
4214.35 6.7551e-17
4215.875 6.6923e-17
4217.4 6.1701e-17
4218.925 5.6875e-17
4220.45 5.7477e-17
4221.975 4.6759e-17
4223.5 4.6704e-17
4225.025 5.9515e-17
4226.55 7.3624e-17
4228.075 7.4703e-17
4229.6 6.7367e-17
4231.125 6.57e-17
4232.65 6.3149e-17
4234.175 6.2706e-17
4235.7 6.0501e-17
4237.225 6.2002e-17
4238.75 6.227e-17
4240.275 5.9279e-17
4241.8 6.0712e-17
4243.325 6.2195e-17
4244.85 7.3866e-17
4246.375 7.4213e-17
4247.9 7.7217e-17
4249.425 6.0852e-17
4250.95 5.5194e-17
4252.475 5.9134e-17
4254.0 7.04e-17
4255.525 6.048e-17
4257.05 6.0324e-17
4258.575 6.1541e-17
4260.1 5.2743e-17
4261.625 5.0261e-17
4263.15 6.1373e-17
4264.675 6.0839e-17
4266.2 6.5337e-17
4267.725 6.642e-17
4269.25 6.7057e-17
4270.775 7.0717e-17
4272.3 7.4171e-17
4273.825 8.5279e-17
4275.35 8.49e-17
4276.875 7.1398e-17
4278.4 7.748e-17
4279.925 8.4187e-17
4281.45 7.8048e-17
4282.975 7.8318e-17
4284.5 7.6174e-17
4286.025 6.8493e-17
4287.55 7.5194e-17
4289.075 7.4555e-17
4290.6 6.8583e-17
4292.125 7.2271e-17
4293.65 7.0048e-17
4295.175 7.9126e-17
4296.7 6.8348e-17
4298.225 7.3575e-17
4299.75 6.7988e-17
4301.275 6.5627e-17
4302.8 7.4955e-17
4304.325 7.2571e-17
4305.85 6.8017e-17
4307.375 7.1721e-17
4308.9 7.1286e-17
4310.425 8.1624e-17
4311.95 8.5324e-17
4313.475 8.5593e-17
4315.0 7.6538e-17
4316.525 8.217e-17
4318.05 7.4382e-17
4319.575 7.5401e-17
4321.1 8.2487e-17
4322.625 8.2982e-17
4324.15 9.624e-17
4325.675 8.6709e-17
4327.2 6.9115e-17
4328.725 7.3479e-17
4330.25 7.3072e-17
4331.775 7.2538e-17
4333.3 7.4948e-17
4334.825 7.2347e-17
4336.35 6.6681e-17
4337.875 7.0675e-17
4339.4 7.6573e-17
4340.925 7.3042e-17
4342.45 7.4015e-17
4343.975 7.0924e-17
4345.5 7.6046e-17
4347.025 7.2012e-17
4348.55 7.0388e-17
4350.075 6.9864e-17
4351.6 6.9168e-17
4353.125 6.5961e-17
4354.65 6.5985e-17
4356.175 6.7867e-17
4357.7 9.875e-17
4359.225 8.7563e-17
4360.75 6.432e-17
4362.275 5.7809e-17
4363.8 6.8126e-17
4365.325 7.0154e-17
4366.85 7.3201e-17
4368.375 7.5286e-17
4369.9 8.1744e-17
4371.425 7.7841e-17
4372.95 7.8846e-17
4374.475 7.3494e-17
4376.0 7.7739e-17
4377.525 7.9529e-17
4379.05 8.2649e-17
4380.575 8.6146e-17
4382.1 8.8453e-17
4383.625 7.0791e-17
4385.15 7.5323e-17
4386.675 8.533e-17
4388.2 7.7903e-17
4389.725 6.3024e-17
4391.25 7.3262e-17
4392.775 8.1744e-17
4394.3 7.8283e-17
4395.825 8.2338e-17
4397.35 6.4529e-17
4398.875 5.8484e-17
4400.4 8.375e-17
4401.925 8.139e-17
4403.45 7.439e-17
4404.975 8.4387e-17
4406.5 7.5224e-17
4408.025 7.4724e-17
4409.55 7.828e-17
4411.075 7.6848e-17
4412.6 7.4921e-17
4414.125 8.0003e-17
4415.65 8.4535e-17
4417.175 7.8366e-17
4418.7 7.8037e-17
4420.225 7.8543e-17
4421.75 8.3505e-17
4423.275 8.7194e-17
4424.8 7.6661e-17
4426.325 7.7279e-17
4427.85 8.0213e-17
4429.375 7.9976e-17
4430.9 7.3876e-17
4432.425 8.7953e-17
4433.95 8.1935e-17
4435.475 7.5878e-17
4437.0 7.1537e-17
4438.525 8.5934e-17
4440.05 8.5873e-17
4441.575 7.3478e-17
4443.1 6.311e-17
4444.625 6.83e-17
4446.15 8.1863e-17
4447.675 7.4153e-17
4449.2 7.479e-17
4450.725 6.8913e-17
4452.25 7.7102e-17
4453.775 9.1826e-17
4455.3 6.992e-17
4456.825 6.5851e-17
4458.35 8.1302e-17
4459.875 7.8105e-17
4461.4 8.5586e-17
4462.925 8.9027e-17
4464.45 9.2347e-17
4465.975 7.6639e-17
4467.5 8.3917e-17
4469.025 9.0945e-17
4470.55 8.7314e-17
4472.075 8.8098e-17
4473.6 8.8706e-17
4475.125 7.9019e-17
4476.65 7.9829e-17
4478.175 8.1827e-17
4479.7 8.518e-17
4481.225 8.8537e-17
4482.75 8.1713e-17
4484.275 7.3792e-17
4485.8 7.2623e-17
4487.325 8.3127e-17
4488.85 8.8676e-17
4490.375 6.509e-17
4491.9 6.9228e-17
4493.425 8.2524e-17
4494.95 7.7971e-17
4496.475 8.2844e-17
4498.0 8.0319e-17
4499.525 7.1707e-17
4501.05 8.6249e-17
4502.575 8.1378e-17
4504.1 8.0666e-17
4505.625 7.1244e-17
4507.15 8.9107e-17
4508.675 7.7981e-17
4510.2 7.2904e-17
4511.725 8.3269e-17
4513.25 8.3085e-17
4514.775 7.4126e-17
4516.3 8.2393e-17
4517.825 7.8501e-17
4519.35 7.8912e-17
4520.875 8.7995e-17
4522.4 8.0215e-17
4523.925 7.6917e-17
4525.45 7.2315e-17
4526.975 7.6849e-17
4528.5 7.504e-17
4530.025 7.44e-17
4531.55 7.1386e-17
4533.075 8.7226e-17
4534.6 7.9024e-17
4536.125 6.7376e-17
4537.65 6.7883e-17
4539.175 7.8721e-17
4540.7 7.9865e-17
4542.225 8.9231e-17
4543.75 8.3019e-17
4545.275 1.0179e-16
4546.8 7.2232e-17
4548.325 7.7127e-17
4549.85 7.3842e-17
4551.375 7.4047e-17
4552.9 8.7043e-17
4554.425 8.7231e-17
4555.95 8.1496e-17
4557.475 6.781e-17
4559.0 8.4247e-17
4560.525 7.3689e-17
4562.05 7.487e-17
4563.575 6.9895e-17
4565.1 7.3319e-17
4566.625 7.7446e-17
4568.15 7.4592e-17
4569.675 7.9671e-17
4571.2 8.711e-17
4572.725 7.0947e-17
4574.25 7.5149e-17
4575.775 7.0674e-17
4577.3 8.931e-17
4578.825 9.2944e-17
4580.35 9.599e-17
4581.875 8.3367e-17
4583.4 7.1727e-17
4584.925 6.948e-17
4586.45 6.8868e-17
4587.975 7.7911e-17
4589.5 8.4291e-17
4591.025 7.1157e-17
4592.55 7.4733e-17
4594.075 8.0834e-17
4595.6 7.8471e-17
4597.125 7.8805e-17
4598.65 7.8026e-17
4600.175 8.1858e-17
4601.7 7.2849e-17
4603.225 6.7487e-17
4604.75 6.3166e-17
4606.275 5.6885e-17
4607.8 6.8649e-17
4609.325 7.4715e-17
4610.85 6.5413e-17
4612.375 6.2754e-17
4613.9 7.0712e-17
4615.425 7.1179e-17
4616.95 6.6787e-17
4618.475 6.6145e-17
4620.0 6.6333e-17
4621.525 7.4684e-17
4623.05 6.7774e-17
4624.575 5.4263e-17
4626.1 6.9946e-17
4627.625 8.3736e-17
4629.15 8.3863e-17
4630.675 8.0611e-17
4632.2 7.9906e-17
4633.725 8.9787e-17
4635.25 7.6336e-17
4636.775 8.7744e-17
4638.3 9.2339e-17
4639.825 8.2411e-17
4641.35 7.2544e-17
4642.875 7.0453e-17
4644.4 8.0994e-17
4645.925 8.0787e-17
4647.45 7.548e-17
4648.975 7.7134e-17
4650.5 6.1106e-17
4652.025 7.7697e-17
4653.55 8.2226e-17
4655.075 8.6769e-17
4656.6 6.4196e-17
4658.125 6.5338e-17
4659.65 8.2505e-17
4661.175 7.3877e-17
4662.7 7.5013e-17
4664.225 7.9045e-17
4665.75 7.8966e-17
4667.275 7.0771e-17
4668.8 7.6577e-17
4670.325 8.0563e-17
4671.85 7.7443e-17
4673.375 6.5765e-17
4674.9 7.2231e-17
4676.425 8.6233e-17
4677.95 8.7949e-17
4679.475 7.7761e-17
4681.0 7.1024e-17
4682.525 7.0513e-17
4684.05 7.3162e-17
4685.575 8.0498e-17
4687.1 8.5143e-17
4688.625 7.2929e-17
4690.15 8.2309e-17
4691.675 8.257e-17
4693.2 6.6578e-17
4694.725 7.227e-17
4696.25 8.3498e-17
4697.775 7.2033e-17
4699.3 6.8985e-17
4700.825 8.9467e-17
4702.35 8.0638e-17
4703.875 7.8783e-17
4705.4 6.8365e-17
4706.925 8.0955e-17
4708.45 7.4475e-17
4709.975 7.3196e-17
4711.5 8.0098e-17
4713.025 8.4849e-17
4714.55 8.5877e-17
4716.075 8.4157e-17
4717.6 8.9916e-17
4719.125 9.556e-17
4720.65 8.9312e-17
4722.175 8.4037e-17
4723.7 8.2488e-17
4725.225 6.9089e-17
4726.75 7.3558e-17
4728.275 9.523e-17
4729.8 8.3487e-17
4731.325 7.2127e-17
4732.85 8.0419e-17
4734.375 8.7927e-17
4735.9 8.812e-17
4737.425 8.5075e-17
4738.95 9.407e-17
4740.475 8.4572e-17
4742.0 8.4769e-17
4743.525 8.3001e-17
4745.05 7.7174e-17
4746.575 7.7255e-17
4748.1 8.2205e-17
4749.625 8.8666e-17
4751.15 8.1786e-17
4752.675 8.8286e-17
4754.2 8.5056e-17
4755.725 8.4512e-17
4757.25 8.8375e-17
4758.775 8.1328e-17
4760.3 8.3696e-17
4761.825 8.3153e-17
4763.35 8.8193e-17
4764.875 7.9365e-17
4766.4 7.5385e-17
4767.925 8.3377e-17
4769.45 8.9739e-17
4770.975 8.2495e-17
4772.5 8.2107e-17
4774.025 9.6973e-17
4775.55 9.539e-17
4777.075 8.839e-17
4778.6 7.769e-17
4780.125 8.7948e-17
4781.65 8.5433e-17
4783.175 8.4799e-17
4784.7 8.1595e-17
4786.225 8.97e-17
4787.75 9.0474e-17
4789.275 8.5351e-17
4790.8 8.5924e-17
4792.325 8.8132e-17
4793.85 9.1379e-17
4795.375 9.0028e-17
4796.9 8.5126e-17
4798.425 9.0304e-17
4799.95 8.2815e-17
4801.475 8.5916e-17
4803.0 9.5292e-17
4804.525 9.5456e-17
4806.05 8.1286e-17
4807.575 8.2391e-17
4809.1 8.4124e-17
4810.625 8.2085e-17
4812.15 8.1171e-17
4813.675 8.3985e-17
4815.2 8.7065e-17
4816.725 9.2508e-17
4818.25 8.9269e-17
4819.775 8.6191e-17
4821.3 8.5066e-17
4822.825 9.3052e-17
4824.35 1.0376e-16
4825.875 8.7347e-17
4827.4 8.6303e-17
4828.925 1.0159e-16
4830.45 8.22e-17
4831.975 8.4867e-17
4833.5 1.0496e-16
4835.025 9.6474e-17
4836.55 9.2977e-17
4838.075 8.8167e-17
4839.6 1.0086e-16
4841.125 1.1115e-16
4842.65 1.0203e-16
4844.175 9.2682e-17
4845.7 9.0433e-17
4847.225 8.6078e-17
4848.75 8.9472e-17
4850.275 9.589e-17
4851.8 8.9789e-17
4853.325 9.7263e-17
4854.85 8.8886e-17
4856.375 8.6556e-17
4857.9 9.4483e-17
4859.425 8.7958e-17
4860.95 9.2328e-17
4862.475 9.427e-17
4864.0 8.9605e-17
4865.525 9.0084e-17
4867.05 8.673e-17
4868.575 9.1879e-17
4870.1 1.0574e-16
4871.625 9.9185e-17
4873.15 9.1233e-17
4874.675 8.8072e-17
4876.2 8.9562e-17
4877.725 1.0068e-16
4879.25 9.3369e-17
4880.775 9.5068e-17
4882.3 8.8567e-17
4883.825 8.3164e-17
4885.35 9.5519e-17
4886.875 9.6483e-17
4888.4 9.3859e-17
4889.925 8.3948e-17
4891.45 8.3734e-17
4892.975 8.9069e-17
4894.5 9.5483e-17
4896.025 1.0097e-16
4897.55 8.9626e-17
4899.075 9.8358e-17
4900.6 9.2162e-17
4902.125 8.5655e-17
4903.65 9.0831e-17
4905.175 9.4207e-17
4906.7 1.0288e-16
4908.225 8.6996e-17
4909.75 8.9005e-17
4911.275 9.135e-17
4912.8 8.8267e-17
4914.325 9.4145e-17
4915.85 1.029e-16
4917.375 9.9323e-17
4918.9 8.9517e-17
4920.425 9.6037e-17
4921.95 1.0159e-16
4923.475 9.9956e-17
4925.0 1.0336e-16
4926.525 8.8008e-17
4928.05 8.6e-17
4929.575 9.0719e-17
4931.1 8.6622e-17
4932.625 8.8367e-17
4934.15 9.5342e-17
4935.675 8.4922e-17
4937.2 9.4303e-17
4938.725 1.0012e-16
4940.25 9.5374e-17
4941.775 9.7424e-17
4943.3 9.9788e-17
4944.825 9.6542e-17
4946.35 8.7237e-17
4947.875 9.9584e-17
4949.4 1.0031e-16
4950.925 9.1881e-17
4952.45 1.009e-16
4953.975 9.4037e-17
4955.5 9.2153e-17
4957.025 9.0539e-17
4958.55 8.8825e-17
4960.075 9.4771e-17
4961.6 9.8111e-17
4963.125 9.5832e-17
4964.65 9.843e-17
4966.175 9.2055e-17
4967.7 9.4737e-17
4969.225 9.3087e-17
4970.75 9.4285e-17
4972.275 8.7775e-17
4973.8 9.3695e-17
4975.325 9.6355e-17
4976.85 8.2076e-17
4978.375 8.7496e-17
4979.9 8.9826e-17
4981.425 8.91e-17
4982.95 9.3706e-17
4984.475 9.2243e-17
4986.0 9.0762e-17
4987.525 8.0614e-17
4989.05 8.3764e-17
4990.575 8.7369e-17
4992.1 8.9219e-17
4993.625 9.2498e-17
4995.15 9.2256e-17
4996.675 8.8613e-17
4998.2 8.5475e-17
4999.725 9.1449e-17
5001.25 8.3267e-17
5002.775 8.7413e-17
5004.3 9.8029e-17
5005.825 9.7985e-17
5007.35 8.8741e-17
5008.875 8.1238e-17
5010.4 9.4156e-17
5011.925 9.2399e-17
5013.45 8.7251e-17
5014.975 1.0021e-16
5016.5 9.277e-17
5018.025 9.1118e-17
5019.55 9.7307e-17
5021.075 9.3908e-17
5022.6 8.952e-17
5024.125 8.3671e-17
5025.65 8.2423e-17
5027.175 8.6318e-17
5028.7 7.9625e-17
5030.225 8.1903e-17
5031.75 9.1173e-17
5033.275 8.9351e-17
5034.8 8.6958e-17
5036.325 9.5711e-17
5037.85 9.5584e-17
5039.375 9.2528e-17
5040.9 8.2833e-17
5042.425 7.3201e-17
5043.95 8.9607e-17
5045.475 8.6392e-17
5047.0 8.6295e-17
5048.525 8.8931e-17
5050.05 8.6429e-17
5051.575 7.689e-17
5053.1 8.4758e-17
5054.625 8.0336e-17
5056.15 7.9226e-17
5057.675 8.1452e-17
5059.2 7.7486e-17
5060.725 7.868e-17
5062.25 8.166e-17
5063.775 8.8741e-17
5065.3 7.8722e-17
5066.825 8.4687e-17
5068.35 9.1485e-17
5069.875 7.9715e-17
5071.4 8.1136e-17
5072.925 8.9601e-17
5074.45 7.4756e-17
5075.975 6.7118e-17
5077.5 7.5592e-17
5079.025 8.6849e-17
5080.55 8.4991e-17
5082.075 8.1274e-17
5083.6 8.4506e-17
5085.125 8.585e-17
5086.65 9.1883e-17
5088.175 9.0558e-17
5089.7 7.8361e-17
5091.225 8.5427e-17
5092.75 9.995e-17
5094.275 8.9599e-17
5095.8 7.1744e-17
5097.325 8.1376e-17
5098.85 8.4708e-17
5100.375 8.3106e-17
5101.9 7.9876e-17
5103.425 7.8344e-17
5104.95 7.7969e-17
5106.475 8.4118e-17
5108.0 9.0248e-17
5109.525 8.939e-17
5111.05 7.9237e-17
5112.575 7.5255e-17
5114.1 8.9759e-17
5115.625 7.7333e-17
5117.15 8.9734e-17
5118.675 8.8566e-17
5120.2 8.4026e-17
5121.725 8.2399e-17
5123.25 8.7335e-17
5124.775 8.5168e-17
5126.3 9.2705e-17
5127.825 9.0579e-17
5129.35 9.7297e-17
5130.875 8.8494e-17
5132.4 9.1774e-17
5133.925 8.6854e-17
5135.45 8.1454e-17
5136.975 8.2669e-17
5138.5 8.3407e-17
5140.025 9.1148e-17
5141.55 9.3113e-17
5143.075 7.6825e-17
5144.6 7.854e-17
5146.125 9.7377e-17
5147.65 9.0147e-17
5149.175 8.7854e-17
5150.7 9.1274e-17
5152.225 8.6362e-17
5153.75 9.3231e-17
5155.275 8.8643e-17
5156.8 8.5045e-17
5158.325 8.5935e-17
5159.85 7.6035e-17
5161.375 8.1107e-17
5162.9 8.0478e-17
5164.425 7.9095e-17
5165.95 8.1431e-17
5167.475 7.8426e-17
5169.0 8.6465e-17
5170.525 8.245e-17
5172.05 8.1641e-17
5173.575 9.6764e-17
5175.1 9.5271e-17
5176.625 8.0344e-17
5178.15 6.8049e-17
5179.675 8.4602e-17
5181.2 8.1714e-17
5182.725 8.7422e-17
5184.25 9.0923e-17
5185.775 8.5578e-17
5187.3 9.6359e-17
5188.825 8.8219e-17
5190.35 8.199e-17
5191.875 7.5624e-17
5193.4 7.3299e-17
5194.925 7.658e-17
5196.45 8.1218e-17
5197.975 9.1086e-17
5199.5 8.2327e-17
5201.025 7.6338e-17
5202.55 8.5082e-17
5204.075 9.3968e-17
5205.6 8.4585e-17
5207.125 8.9328e-17
5208.65 7.7146e-17
5210.175 7.2503e-17
5211.7 8.0839e-17
5213.225 7.6737e-17
5214.75 7.6889e-17
5216.275 8.5652e-17
5217.8 8.8806e-17
5219.325 8.2324e-17
5220.85 7.9485e-17
5222.375 7.9278e-17
5223.9 8.2944e-17
5225.425 7.7354e-17
5226.95 8.1802e-17
5228.475 8.734e-17
5230.0 8.9363e-17
5231.525 8.1358e-17
5233.05 8.9089e-17
5234.575 7.6787e-17
5236.1 7.0778e-17
5237.625 7.6779e-17
5239.15 9.2543e-17
5240.675 9.3448e-17
5242.2 7.7476e-17
5243.725 8.2919e-17
5245.25 8.2984e-17
5246.775 7.608e-17
5248.3 8.4285e-17
5249.825 8.7275e-17
5251.35 8.8209e-17
5252.875 8.2636e-17
5254.4 7.8026e-17
5255.925 8.7016e-17
5257.45 8.4761e-17
5258.975 7.9291e-17
5260.5 8.4865e-17
5262.025 8.0486e-17
5263.55 8.9485e-17
5265.075 9.1032e-17
5266.6 9.0251e-17
5268.125 8.3955e-17
5269.65 8.6789e-17
5271.175 8.4199e-17
5272.7 9.2142e-17
5274.225 9.9348e-17
5275.75 9.8507e-17
5277.275 1.0279e-16
5278.8 9.0364e-17
5280.325 8.9734e-17
5281.85 8.3016e-17
5283.375 8.966e-17
5284.9 9.706e-17
5286.425 9.9933e-17
5287.95 9.3437e-17
5289.475 8.6527e-17
5291.0 8.8419e-17
5292.525 1.0266e-16
5294.05 8.6281e-17
5295.575 8.551e-17
5297.1 8.9751e-17
5298.625 9.3364e-17
5300.15 9.7786e-17
5301.675 8.0643e-17
5303.2 8.2856e-17
5304.725 1.0137e-16
5306.25 1.0097e-16
5307.775 9.0525e-17
5309.3 8.5389e-17
5310.825 8.5545e-17
5312.35 1.0111e-16
5313.875 9.7742e-17
5315.4 9.371e-17
5316.925 9.3049e-17
5318.45 8.1234e-17
5319.975 8.1568e-17
5321.5 1.0289e-16
5323.025 8.9102e-17
5324.55 8.5694e-17
5326.075 1.0384e-16
5327.6 9.7518e-17
5329.125 9.9333e-17
5330.65 9.5612e-17
5332.175 7.9615e-17
5333.7 9.1626e-17
5335.225 1.0181e-16
5336.75 1.0754e-16
5338.275 1.1595e-16
5339.8 1.0209e-16
5341.325 9.4101e-17
5342.85 8.4291e-17
5344.375 8.743e-17
5345.9 9.4821e-17
5347.425 9.458e-17
5348.95 9.5071e-17
5350.475 9.2984e-17
5352.0 9.1449e-17
5353.525 8.8912e-17
5355.05 1.0044e-16
5356.575 1.0228e-16
5358.1 1.006e-16
5359.625 8.8704e-17
5361.15 8.8663e-17
5362.675 8.373e-17
5364.2 8.9163e-17
5365.725 9.9899e-17
5367.25 1.003e-16
5368.775 9.899e-17
5370.3 1.0226e-16
5371.825 8.6265e-17
5373.35 8.1537e-17
5374.875 8.5266e-17
5376.4 9.5347e-17
5377.925 9.8509e-17
5379.45 9.825e-17
5380.975 9.1721e-17
5382.5 8.168e-17
5384.025 8.1106e-17
5385.55 7.5928e-17
5387.075 8.7315e-17
5388.6 1.0214e-16
5390.125 1.0983e-16
5391.65 9.4858e-17
5393.175 8.1984e-17
5394.7 8.7618e-17
5396.225 8.3592e-17
5397.75 7.5857e-17
5399.275 8.3596e-17
5400.8 7.6059e-17
5402.325 8.968e-17
5403.85 9.8529e-17
5405.375 1.0493e-16
5406.9 9.0421e-17
5408.425 1.0526e-16
5409.95 9.3202e-17
5411.475 9.6546e-17
5413.0 9.7684e-17
5414.525 8.6924e-17
5416.05 7.6782e-17
5417.575 8.8747e-17
5419.1 1.0854e-16
5420.625 1.0276e-16
5422.15 9.6982e-17
5423.675 9.942e-17
5425.2 9.4452e-17
5426.725 9.2269e-17
5428.25 8.8694e-17
5429.775 1.0849e-16
5431.3 1.0761e-16
5432.825 9.9286e-17
5434.35 9.6112e-17
5435.875 1.0377e-16
5437.4 1.0426e-16
5438.925 8.5924e-17
5440.45 8.7418e-17
5441.975 9.4573e-17
5443.5 1.0005e-16
5445.025 9.5541e-17
5446.55 1.0094e-16
5448.075 1.123e-16
5449.6 1.0698e-16
5451.125 1.0821e-16
5452.65 1.0772e-16
5454.175 1.2154e-16
5455.7 1.0205e-16
5457.225 8.9515e-17
5458.75 1.164e-16
5460.275 1.239e-16
5461.8 1.1397e-16
5463.325 1.0361e-16
5464.85 8.7259e-17
5466.375 1.1336e-16
5467.9 1.1657e-16
5469.425 1.0829e-16
5470.95 1.2176e-16
5472.475 1.2336e-16
5474.0 9.2063e-17
5475.525 1.0203e-16
5477.05 1.1046e-16
5478.575 1.1511e-16
5480.1 1.198e-16
5481.625 1.0845e-16
5483.15 9.7385e-17
5484.675 8.7443e-17
5486.2 1.2583e-16
5487.725 1.2552e-16
5489.25 1.0067e-16
5490.775 1.2712e-16
5492.3 1.1363e-16
5493.825 1.2803e-16
5495.35 1.2717e-16
5496.875 1.3453e-16
5498.4 1.3121e-16
5499.925 1.0535e-16
5501.45 1.1033e-16
5502.975 1.1186e-16
5504.5 1.1585e-16
5506.025 1.1511e-16
5507.55 1.0731e-16
5509.075 1.0957e-16
5510.6 1.1101e-16
5512.125 1.0749e-16
5513.65 9.8331e-17
5515.175 1.1372e-16
5516.7 1.205e-16
5518.225 1.0396e-16
5519.75 9.3937e-17
5521.275 1.0713e-16
5522.8 1.1082e-16
5524.325 1.1217e-16
5525.85 1.1545e-16
5527.375 1.1419e-16
5528.9 1.1443e-16
5530.425 1.1108e-16
5531.95 1.0294e-16
5533.475 1.1791e-16
5535.0 1.1209e-16
5536.525 1.0922e-16
5538.05 1.0683e-16
5539.575 1.0509e-16
5541.1 1.131e-16
5542.625 1.1055e-16
5544.15 1.0772e-16
5545.675 1.0252e-16
5547.2 1.1003e-16
5548.725 1.1748e-16
5550.25 1.1671e-16
5551.775 1.0408e-16
5553.3 1.0187e-16
5554.825 1.1093e-16
5556.35 1.1101e-16
5557.875 1.1216e-16
5559.4 1.1016e-16
5560.925 9.9295e-17
5562.45 9.3862e-17
5563.975 1.0692e-16
5565.5 9.6224e-17
5567.025 8.5151e-17
5568.55 9.2652e-17
5570.075 9.2885e-17
5571.6 1.0259e-16
5573.125 1.1383e-16
5574.65 1.2403e-16
5576.175 1.4847e-16
5577.7 1.4699e-16
5579.225 1.227e-16
5580.75 8.2972e-17
5582.275 9.316e-17
5583.8 1.1042e-16
5585.325 9.3331e-17
5586.85 9.1004e-17
5588.375 1.0263e-16
5589.9 1.0609e-16
5591.425 1.1308e-16
5592.95 1.0695e-16
5594.475 1.0379e-16
5596.0 1.0232e-16
5597.525 1.1378e-16
5599.05 1.195e-16
5600.575 1.1199e-16
5602.1 1.0538e-16
5603.625 1.0379e-16
5605.15 1.1089e-16
5606.675 1.0536e-16
5608.2 1.0338e-16
5609.725 1.1038e-16
5611.25 1.1943e-16
5612.775 1.117e-16
5614.3 1.0963e-16
5615.825 1.1906e-16
5617.35 1.1556e-16
5618.875 1.2443e-16
5620.4 1.1851e-16
5621.925 1.1014e-16
5623.45 1.113e-16
5624.975 1.2293e-16
5626.5 1.3117e-16
5628.025 1.2056e-16
5629.55 1.0715e-16
5631.075 1.1415e-16
5632.6 1.2041e-16
5634.125 1.2462e-16
5635.65 1.1983e-16
5637.175 1.219e-16
5638.7 1.1806e-16
5640.225 1.1525e-16
5641.75 1.1332e-16
5643.275 1.1339e-16
5644.8 1.0692e-16
5646.325 1.0187e-16
5647.85 1.1294e-16
5649.375 1.1263e-16
5650.9 1.1636e-16
5652.425 1.081e-16
5653.95 1.0743e-16
5655.475 1.0514e-16
5657.0 1.0945e-16
5658.525 1.119e-16
5660.05 1.0511e-16
5661.575 9.9274e-17
5663.1 1.0184e-16
5664.625 9.9204e-17
5666.15 1.0216e-16
5667.675 1.1352e-16
5669.2 1.1404e-16
5670.725 1.191e-16
5672.25 1.2433e-16
5673.775 1.2508e-16
5675.3 1.1658e-16
5676.825 1.141e-16
5678.35 1.1495e-16
5679.875 1.0984e-16
5681.4 9.5932e-17
5682.925 1.1345e-16
5684.45 1.1459e-16
5685.975 1.1759e-16
5687.5 1.2141e-16
5689.025 1.1242e-16
5690.55 1.077e-16
5692.075 1.1274e-16
5693.6 1.1426e-16
5695.125 1.1284e-16
5696.65 1.1175e-16
5698.175 1.0501e-16
5699.7 1.0509e-16
5701.225 1.0151e-16
5702.75 1.1796e-16
5704.275 1.1914e-16
5705.8 1.0908e-16
5707.325 9.9336e-17
5708.85 1.1256e-16
5710.375 1.1782e-16
5711.9 1.026e-16
5713.425 9.9188e-17
5714.95 9.8293e-17
5716.475 9.4892e-17
5718.0 1.0671e-16
5719.525 1.088e-16
5721.05 1.05e-16
5722.575 1.0355e-16
5724.1 9.1965e-17
5725.625 9.3011e-17
5727.15 9.5214e-17
5728.675 1.0545e-16
5730.2 1.1045e-16
5731.725 1.0333e-16
5733.25 1.0361e-16
5734.775 1.0904e-16
5736.3 1.0345e-16
5737.825 9.6933e-17
5739.35 1.065e-16
5740.875 1.0649e-16
5742.4 1.1049e-16
5743.925 1.1456e-16
5745.45 1.0715e-16
5746.975 1.0641e-16
5748.5 1.1072e-16
5750.025 1.0885e-16
5751.55 1.0752e-16
5753.075 1.0418e-16
5754.6 1.0834e-16
5756.125 1.111e-16
5757.65 1.1031e-16
5759.175 1.0816e-16
5760.7 9.9657e-17
5762.225 1.0075e-16
5763.75 1.0717e-16
5765.275 1.0754e-16
5766.8 1.033e-16
5768.325 9.7778e-17
5769.85 1.0283e-16
5771.375 1.0697e-16
5772.9 1.0368e-16
5774.425 1.0239e-16
5775.95 1.0423e-16
5777.475 1.058e-16
5779.0 1.0524e-16
5780.525 1.0833e-16
5782.05 1.0825e-16
5783.575 9.9314e-17
5785.1 1.0143e-16
5786.625 1.0327e-16
5788.15 1.0819e-16
5789.675 1.0956e-16
5791.2 1.1346e-16
5792.725 1.2012e-16
5794.25 1.0357e-16
5795.775 9.0645e-17
5797.3 9.805e-17
5798.825 9.8198e-17
5800.35 1.0242e-16
5801.875 9.9437e-17
5803.4 9.5696e-17
5804.925 9.2904e-17
5806.45 9.4071e-17
5807.975 1.0546e-16
5809.5 1.0707e-16
5811.025 9.9956e-17
5812.55 1.1128e-16
5814.075 1.0783e-16
5815.6 9.9152e-17
5817.125 1.0346e-16
5818.65 1.1231e-16
5820.175 1.0439e-16
5821.7 1.0167e-16
5823.225 1.061e-16
5824.75 1.094e-16
5826.275 1.163e-16
5827.8 1.1184e-16
5829.325 1.071e-16
5830.85 1.1014e-16
5832.375 1.1623e-16
5833.9 1.1668e-16
5835.425 1.0876e-16
5836.95 1.05e-16
5838.475 1.0538e-16
5840.0 1.1046e-16
5841.525 1.1404e-16
5843.05 1.0265e-16
5844.575 9.6085e-17
5846.1 1.0117e-16
5847.625 9.8861e-17
5849.15 9.9966e-17
5850.675 1.0695e-16
5852.2 1.1182e-16
5853.725 1.0538e-16
5855.25 1.0261e-16
5856.775 9.9246e-17
5858.3 1.013e-16
5859.825 1.0713e-16
5861.35 1.0917e-16
5862.875 1.0524e-16
5864.4 9.7518e-17
5865.925 9.5915e-17
5867.45 8.7005e-17
5868.975 9.6868e-17
5870.5 1.0382e-16
5872.025 9.0917e-17
5873.55 9.1598e-17
5875.075 1.0239e-16
5876.6 1.0904e-16
5878.125 1.1324e-16
5879.65 1.1071e-16
5881.175 1.0591e-16
5882.7 1.0385e-16
5884.225 1.0495e-16
5885.75 1.0689e-16
5887.275 9.6105e-17
5888.8 8.3665e-17
5890.325 8.9169e-17
5891.85 8.7265e-17
5893.375 9.7568e-17
5894.9 1.0251e-16
5896.425 9.6194e-17
5897.95 8.2757e-17
5899.475 7.4207e-17
5901.0 8.8211e-17
5902.525 9.5103e-17
5904.05 9.4693e-17
5905.575 9.1688e-17
5907.1 9.3891e-17
5908.625 9.5255e-17
5910.15 9.2707e-17
5911.675 9.1818e-17
5913.2 9.7342e-17
5914.725 9.5744e-17
5916.25 9.5238e-17
5917.775 9.7266e-17
5919.3 1.0041e-16
5920.825 1.066e-16
5922.35 1.0074e-16
5923.875 1.0043e-16
5925.4 9.7054e-17
5926.925 9.5304e-17
5928.45 9.4369e-17
5929.975 8.948e-17
5931.5 9.1693e-17
5933.025 9.6789e-17
5934.55 9.9812e-17
5936.075 1.0153e-16
5937.6 1.0101e-16
5939.125 9.6838e-17
5940.65 1.0195e-16
5942.175 9.5154e-17
5943.7 9.5393e-17
5945.225 1.1221e-16
5946.75 1.1713e-16
5948.275 1.1129e-16
5949.8 1.0224e-16
5951.325 1.0183e-16
5952.85 9.7978e-17
5954.375 8.8343e-17
5955.9 9.4042e-17
5957.425 1.0278e-16
5958.95 9.6032e-17
5960.475 9.8898e-17
5962.0 1.1124e-16
5963.525 1.0004e-16
5965.05 9.8981e-17
5966.575 1.1205e-16
5968.1 1.0842e-16
5969.625 1.0269e-16
5971.15 1.0641e-16
5972.675 1.0298e-16
5974.2 9.2004e-17
5975.725 9.7738e-17
5977.25 1.0774e-16
5978.775 1.0591e-16
5980.3 1.0369e-16
5981.825 1.0412e-16
5983.35 1.0458e-16
5984.875 9.8771e-17
5986.4 9.0538e-17
5987.925 9.3514e-17
5989.45 1.0104e-16
5990.975 9.707e-17
5992.5 9.1521e-17
5994.025 9.9441e-17
5995.55 1.0626e-16
5997.075 1.0653e-16
5998.6 1.0823e-16
6000.125 1.1009e-16
6001.65 1.0971e-16
6003.175 1.1025e-16
6004.7 1.0693e-16
6006.225 1.0302e-16
6007.75 1.0992e-16
6009.275 1.151e-16
6010.8 1.0688e-16
6012.325 1.0373e-16
6013.85 1.0127e-16
6015.375 9.7584e-17
6016.9 1.0243e-16
6018.425 1.0463e-16
6019.95 1.024e-16
6021.475 1.0104e-16
6023.0 1.0921e-16
6024.525 1.0583e-16
6026.05 9.3217e-17
6027.575 9.5827e-17
6029.1 1.0315e-16
6030.625 1.0667e-16
6032.15 1.0805e-16
6033.675 1.03e-16
6035.2 1.0192e-16
6036.725 1.0589e-16
6038.25 1.0969e-16
6039.775 1.0794e-16
6041.3 1.0655e-16
6042.825 1.069e-16
6044.35 1.0841e-16
6045.875 1.1161e-16
6047.4 1.0188e-16
6048.925 9.2482e-17
6050.45 9.0084e-17
6051.975 9.4691e-17
6053.5 1.042e-16
6055.025 1.0242e-16
6056.55 1.0368e-16
6058.075 1.0505e-16
6059.6 9.8634e-17
6061.125 9.9674e-17
6062.65 1.0222e-16
6064.175 9.9676e-17
6065.7 9.9627e-17
6067.225 1.0011e-16
6068.75 1.0316e-16
6070.275 1.0272e-16
6071.8 9.9453e-17
6073.325 9.8328e-17
6074.85 9.6367e-17
6076.375 9.7987e-17
6077.9 1.0167e-16
6079.425 1.022e-16
6080.95 1.0468e-16
6082.475 9.6081e-17
6084.0 8.54e-17
6085.525 9.0764e-17
6087.05 9.1595e-17
6088.575 9.0211e-17
6090.1 9.1107e-17
6091.625 8.6492e-17
6093.15 9.5912e-17
6094.675 1.0321e-16
6096.2 9.4921e-17
6097.725 9.3811e-17
6099.25 9.7067e-17
6100.775 9.7279e-17
6102.3 9.6899e-17
6103.825 9.0749e-17
6105.35 9.7522e-17
6106.875 1.1331e-16
6108.4 1.1412e-16
6109.925 1.0845e-16
6111.45 1.0092e-16
6112.975 9.7107e-17
6114.5 1.0204e-16
6116.025 1.0154e-16
6117.55 9.6588e-17
6119.075 9.5397e-17
6120.6 9.2717e-17
6122.125 9.5481e-17
6123.65 1.018e-16
6125.175 9.5818e-17
6126.7 8.8267e-17
6128.225 9.1427e-17
6129.75 1.0066e-16
6131.275 1.0567e-16
6132.8 1.0652e-16
6134.325 1.0785e-16
6135.85 1.0765e-16
6137.375 1.0107e-16
6138.9 9.5488e-17
6140.425 9.6013e-17
6141.95 9.4474e-17
6143.475 9.3723e-17
6145.0 1.0045e-16
6146.525 1.1083e-16
6148.05 1.0618e-16
6149.575 1.0398e-16
6151.1 1.0686e-16
6152.625 1.0141e-16
6154.15 1.0383e-16
6155.675 1.0331e-16
6157.2 9.7742e-17
6158.725 1.0437e-16
6160.25 1.0654e-16
6161.775 1.0475e-16
6163.3 1.0726e-16
6164.825 9.6919e-17
6166.35 8.6072e-17
6167.875 8.6549e-17
6169.4 9.2477e-17
6170.925 1.0185e-16
6172.45 1.0458e-16
6173.975 1.0564e-16
6175.5 1.0706e-16
6177.025 1.1089e-16
6178.55 1.1323e-16
6180.075 1.0656e-16
6181.6 1.0156e-16
6183.125 1.0041e-16
6184.65 1.0172e-16
6186.175 1.006e-16
6187.7 9.8691e-17
6189.225 1.0026e-16
6190.75 1.0088e-16
6192.275 1.0488e-16
6193.8 1.072e-16
6195.325 1.1295e-16
6196.85 1.0721e-16
6198.375 9.7009e-17
6199.9 9.5063e-17
6201.425 9.2369e-17
6202.95 9.9925e-17
6204.475 1.033e-16
6206.0 1.03e-16
6207.525 1.0204e-16
6209.05 9.8381e-17
6210.575 9.794e-17
6212.1 1.0279e-16
6213.625 1.0253e-16
6215.15 9.7148e-17
6216.675 1.0816e-16
6218.2 1.0659e-16
6219.725 9.373e-17
6221.25 1.0108e-16
6222.775 1.0781e-16
6224.3 1.0799e-16
6225.825 1.1215e-16
6227.35 1.1264e-16
6228.875 1.031e-16
6230.4 9.5551e-17
6231.925 1.0233e-16
6233.45 1.0648e-16
6234.975 1.0162e-16
6236.5 9.7048e-17
6238.025 9.4486e-17
6239.55 9.8485e-17
6241.075 1.0871e-16
6242.6 1.0937e-16
6244.125 1.0583e-16
6245.65 1.0476e-16
6247.175 1.0602e-16
6248.7 1.0517e-16
6250.225 1.0734e-16
6251.75 1.0884e-16
6253.275 1.1378e-16
6254.8 1.1198e-16
6256.325 1.0425e-16
6257.85 1.0393e-16
6259.375 9.788e-17
6260.9 9.8622e-17
6262.425 1.0016e-16
6263.95 1.0677e-16
6265.475 1.0825e-16
6267.0 1.0574e-16
6268.525 1.068e-16
6270.05 1.0579e-16
6271.575 1.0656e-16
6273.1 1.0924e-16
6274.625 1.1026e-16
6276.15 1.0653e-16
6277.675 9.9548e-17
6279.2 9.8113e-17
6280.725 1.0339e-16
6282.25 9.717e-17
6283.775 9.2172e-17
6285.3 1.0125e-16
6286.825 1.0691e-16
6288.35 1.1122e-16
6289.875 1.1227e-16
6291.4 1.1375e-16
6292.925 1.1501e-16
6294.45 1.0672e-16
6295.975 1.1092e-16
6297.5 1.0784e-16
6299.025 1.0388e-16
6300.55 1.0411e-16
6302.075 1.053e-16
6303.6 1.1333e-16
6305.125 1.1324e-16
6306.65 1.093e-16
6308.175 1.0797e-16
6309.7 1.0409e-16
6311.225 1.0766e-16
6312.75 1.0801e-16
6314.275 1.0649e-16
6315.8 1.1081e-16
6317.325 1.0668e-16
6318.85 1.0658e-16
6320.375 1.0909e-16
6321.9 1.1034e-16
6323.425 1.056e-16
6324.95 9.8717e-17
6326.475 9.8835e-17
6328.0 9.7197e-17
6329.525 1.0488e-16
6331.05 1.1114e-16
6332.575 1.0262e-16
6334.1 9.6793e-17
6335.625 9.9829e-17
6337.15 1.1301e-16
6338.675 1.183e-16
6340.2 1.1821e-16
6341.725 1.157e-16
6343.25 1.0684e-16
6344.775 1.1079e-16
6346.3 1.1047e-16
6347.825 1.0424e-16
6349.35 1.1008e-16
6350.875 1.1729e-16
6352.4 1.1664e-16
6353.925 1.1063e-16
6355.45 1.1098e-16
6356.975 1.1201e-16
6358.5 1.0253e-16
6360.025 1.0285e-16
6361.55 1.1052e-16
6363.075 1.0459e-16
6364.6 9.7815e-17
6366.125 1.0186e-16
6367.65 1.0675e-16
6369.175 1.0118e-16
6370.7 1.0366e-16
6372.225 1.1346e-16
6373.75 1.1411e-16
6375.275 1.1193e-16
6376.8 1.0664e-16
6378.325 1.1346e-16
6379.85 1.1877e-16
6381.375 1.1935e-16
6382.9 1.1321e-16
6384.425 1.0955e-16
6385.95 1.1377e-16
6387.475 1.0555e-16
6389.0 1.0304e-16
6390.525 1.1393e-16
6392.05 1.184e-16
6393.575 1.1336e-16
6395.1 1.1013e-16
6396.625 1.0593e-16
6398.15 1.1269e-16
6399.675 1.1169e-16
6401.2 1.092e-16
6402.725 1.0551e-16
6404.25 1.0182e-16
6405.775 1.0653e-16
6407.3 1.0633e-16
6408.825 1.0243e-16
6410.35 9.8226e-17
6411.875 1.0307e-16
6413.4 1.0602e-16
6414.925 9.511e-17
6416.45 9.7211e-17
6417.975 9.9227e-17
6419.5 9.6325e-17
6421.025 1.0092e-16
6422.55 1.0148e-16
6424.075 1.0229e-16
6425.6 1.0054e-16
6427.125 1.0292e-16
6428.65 1.0663e-16
6430.175 1.0375e-16
6431.7 1.0328e-16
6433.225 1.0155e-16
6434.75 1.0099e-16
6436.275 1.0362e-16
6437.8 1.0705e-16
6439.325 1.0241e-16
6440.85 9.9303e-17
6442.375 1.0057e-16
6443.9 9.8168e-17
6445.425 9.8245e-17
6446.95 1.0374e-16
6448.475 9.9724e-17
6450.0 9.623e-17
6451.525 9.9361e-17
6453.05 1.0345e-16
6454.575 9.7559e-17
6456.1 9.4401e-17
6457.625 9.678e-17
6459.15 9.9492e-17
6460.675 1.0194e-16
6462.2 1.0414e-16
6463.725 1.025e-16
6465.25 9.6377e-17
6466.775 9.7001e-17
6468.3 9.5187e-17
6469.825 9.7402e-17
6471.35 1.0139e-16
6472.875 1.0763e-16
6474.4 1.0845e-16
6475.925 1.0613e-16
6477.45 1.0873e-16
6478.975 1.0803e-16
6480.5 1.0371e-16
6482.025 9.9669e-17
6483.55 1.0515e-16
6485.075 1.0294e-16
6486.6 1.0761e-16
6488.125 1.122e-16
6489.65 1.1467e-16
6491.175 1.0508e-16
6492.7 1.0304e-16
6494.225 1.0286e-16
6495.75 9.9473e-17
6497.275 9.9295e-17
6498.8 1.0207e-16
6500.325 9.8609e-17
6501.85 9.8986e-17
6503.375 1.0006e-16
6504.9 9.9849e-17
6506.425 1.0195e-16
6507.95 1.0524e-16
6509.475 1.0136e-16
6511.0 9.2273e-17
6512.525 8.6725e-17
6514.05 9.4032e-17
6515.575 9.6385e-17
6517.1 1.0061e-16
6518.625 1.0144e-16
6520.15 9.725e-17
6521.675 9.4752e-17
6523.2 9.1543e-17
6524.725 9.3037e-17
6526.25 9.6018e-17
6527.775 9.6021e-17
6529.3 9.6616e-17
6530.825 9.7794e-17
6532.35 9.3867e-17
6533.875 1.0028e-16
6535.4 9.973e-17
6536.925 9.0222e-17
6538.45 8.9961e-17
6539.975 8.9026e-17
6541.5 9.4359e-17
6543.025 9.6988e-17
6544.55 8.8184e-17
6546.075 8.2809e-17
6547.6 8.6633e-17
6549.125 9.4862e-17
6550.65 9.6686e-17
6552.175 8.896e-17
6553.7 8.8142e-17
6555.225 9.4663e-17
6556.75 9.9403e-17
6558.275 1.0051e-16
6559.8 9.5165e-17
6561.325 9.3619e-17
6562.85 9.6052e-17
6564.375 9.8454e-17
6565.9 1.0075e-16
6567.425 9.2533e-17
6568.95 9.1611e-17
6570.475 9.5003e-17
6572.0 9.0256e-17
6573.525 9.2477e-17
6575.05 9.6803e-17
6576.575 9.5229e-17
6578.1 9.5183e-17
6579.625 9.8871e-17
6581.15 1.0169e-16
6582.675 9.2264e-17
6584.2 8.6631e-17
6585.725 8.8991e-17
6587.25 8.5492e-17
6588.775 8.3361e-17
6590.3 9.1773e-17
6591.825 9.2558e-17
6593.35 9.3231e-17
6594.875 9.8491e-17
6596.4 9.1734e-17
6597.925 8.8558e-17
6599.45 9.6007e-17
6600.975 9.259e-17
6602.5 8.8205e-17
6604.025 9.2427e-17
6605.55 9.1494e-17
6607.075 8.7513e-17
6608.6 8.4414e-17
6610.125 8.6235e-17
6611.65 9.3259e-17
6613.175 9.5917e-17
6614.7 8.9942e-17
6616.225 8.9438e-17
6617.75 9.0342e-17
6619.275 8.8375e-17
6620.8 8.2447e-17
6622.325 8.0397e-17
6623.85 8.3908e-17
6625.375 8.5285e-17
6626.9 8.6529e-17
6628.425 8.5651e-17
6629.95 9.1205e-17
6631.475 9.7475e-17
6633.0 9.8817e-17
6634.525 9.613e-17
6636.05 8.9438e-17
6637.575 9.0399e-17
6639.1 8.5384e-17
6640.625 8.6151e-17
6642.15 8.9433e-17
6643.675 9.6077e-17
6645.2 9.7452e-17
6646.725 9.2538e-17
6648.25 9.3607e-17
6649.775 9.2606e-17
6651.3 9.415e-17
6652.825 9.4069e-17
6654.35 8.4417e-17
6655.875 7.3901e-17
6657.4 7.2809e-17
6658.925 8.1083e-17
6660.45 8.7549e-17
6661.975 8.3911e-17
6663.5 8.1962e-17
6665.025 8.6143e-17
6666.55 8.6962e-17
6668.075 8.4042e-17
6669.6 8.4973e-17
6671.125 8.4242e-17
6672.65 8.7193e-17
6674.175 9.4732e-17
6675.7 9.2665e-17
6677.225 9.2959e-17
6678.75 9.5423e-17
6680.275 9.4948e-17
6681.8 9.7509e-17
6683.325 9.6289e-17
6684.85 9.2381e-17
6686.375 9.1068e-17
6687.9 8.5085e-17
6689.425 8.5933e-17
6690.95 9.6215e-17
6692.475 9.7256e-17
6694.0 9.1132e-17
6695.525 8.7213e-17
6697.05 8.8222e-17
6698.575 1.002e-16
6700.1 1.0072e-16
6701.625 9.2495e-17
6703.15 1.0108e-16
6704.675 1.0759e-16
6706.2 9.7014e-17
6707.725 8.787e-17
6709.25 9.1216e-17
6710.775 9.7428e-17
6712.3 9.7481e-17
6713.825 9.7765e-17
6715.35 9.7626e-17
6716.875 9.9351e-17
6718.4 1.0091e-16
6719.925 1.0032e-16
6721.45 1.0084e-16
6722.975 9.7184e-17
6724.5 1.0031e-16
6726.025 9.8359e-17
6727.55 9.6207e-17
6729.075 9.8399e-17
6730.6 9.9099e-17
6732.125 9.8265e-17
6733.65 9.1965e-17
6735.175 8.9852e-17
6736.7 9.8103e-17
6738.225 1.0154e-16
6739.75 9.849e-17
6741.275 9.8528e-17
6742.8 1.0526e-16
6744.325 1.0588e-16
6745.85 9.996e-17
6747.375 1.0174e-16
6748.9 1.0359e-16
6750.425 1.0563e-16
6751.95 1.0967e-16
6753.475 1.1062e-16
6755.0 1.0636e-16
6756.525 1.0881e-16
6758.05 1.1392e-16
6759.575 1.0365e-16
6761.1 9.7595e-17
6762.625 9.9412e-17
6764.15 1.0192e-16
6765.675 1.1144e-16
6767.2 1.0454e-16
6768.725 1.023e-16
6770.25 1.0544e-16
6771.775 1.0683e-16
6773.3 1.0375e-16
6774.825 1.06e-16
6776.35 1.1038e-16
6777.875 1.0858e-16
6779.4 1.0438e-16
6780.925 1.0745e-16
6782.45 1.1014e-16
6783.975 1.0967e-16
6785.5 1.1769e-16
6787.025 1.1483e-16
6788.55 1.0826e-16
6790.075 1.1303e-16
6791.6 1.1235e-16
6793.125 1.0883e-16
6794.65 1.0709e-16
6796.175 1.0589e-16
6797.7 1.0659e-16
6799.225 1.1294e-16
6800.75 1.1132e-16
6802.275 1.0696e-16
6803.8 1.0603e-16
6805.325 1.0701e-16
6806.85 1.0919e-16
6808.375 1.102e-16
6809.9 1.0836e-16
6811.425 1.1103e-16
6812.95 1.0649e-16
6814.475 1.077e-16
6816.0 1.1469e-16
6817.525 1.1811e-16
6819.05 1.0822e-16
6820.575 1.0118e-16
6822.1 1.0201e-16
6823.625 1.097e-16
6825.15 1.1213e-16
6826.675 1.1008e-16
6828.2 1.0794e-16
6829.725 1.0788e-16
6831.25 1.1137e-16
6832.775 1.0508e-16
6834.3 1.0441e-16
6835.825 1.0826e-16
6837.35 1.1084e-16
6838.875 1.0614e-16
6840.4 1.0384e-16
6841.925 1.0355e-16
6843.45 1.0687e-16
6844.975 1.0703e-16
6846.5 1.0672e-16
6848.025 1.1045e-16
6849.55 1.1206e-16
6851.075 1.0982e-16
6852.6 1.0794e-16
6854.125 1.085e-16
6855.65 1.0965e-16
6857.175 1.0434e-16
6858.7 1.0801e-16
6860.225 1.0122e-16
6861.75 9.5789e-17
6863.275 9.977e-17
6864.8 9.4827e-17
6866.325 7.7045e-17
6867.85 7.0115e-17
6869.375 7.5261e-17
6870.9 7.772e-17
6872.425 7.9749e-17
6873.95 7.8272e-17
6875.475 8.0291e-17
6877.0 8.9115e-17
6878.525 8.746e-17
6880.05 8.9822e-17
6881.575 9.2895e-17
6883.1 8.9545e-17
6884.625 9.1097e-17
6886.15 9.3399e-17
6887.675 8.7759e-17
6889.2 8.4141e-17
6890.725 8.8777e-17
6892.25 9.0246e-17
6893.775 8.5036e-17
6895.3 8.9346e-17
6896.825 9.1568e-17
6898.35 8.6592e-17
6899.875 9.0776e-17
6901.4 9.0685e-17
6902.925 8.34e-17
6904.45 8.3765e-17
6905.975 8.8183e-17
6907.5 8.6071e-17
6909.025 8.8409e-17
6910.55 9.864e-17
6912.075 9.9747e-17
6913.6 9.1056e-17
6915.125 8.9549e-17
6916.65 8.8939e-17
6918.175 8.7674e-17
6919.7 9.0292e-17
6921.225 9.1196e-17
6922.75 9.14e-17
6924.275 9.1436e-17
6925.8 9.0924e-17
6927.325 9.376e-17
6928.85 9.628e-17
6930.375 9.2879e-17
6931.9 9.5821e-17
6933.425 9.607e-17
6934.95 9.0615e-17
6936.475 9.1484e-17
6938.0 9.8658e-17
6939.525 1.0127e-16
6941.05 9.4152e-17
6942.575 9.3566e-17
6944.1 9.8751e-17
6945.625 9.8081e-17
6947.15 9.8803e-17
6948.675 1.001e-16
6950.2 9.4564e-17
6951.725 8.8414e-17
6953.25 9.0671e-17
6954.775 9.0445e-17
6956.3 8.6807e-17
6957.825 9.2398e-17
6959.35 9.7871e-17
6960.875 9.5293e-17
6962.4 9.5983e-17
6963.925 9.8685e-17
6965.45 9.6095e-17
6966.975 9.4829e-17
6968.5 9.5605e-17
6970.025 9.6668e-17
6971.55 9.7969e-17
6973.075 1.0181e-16
6974.6 1.015e-16
6976.125 9.969e-17
6977.65 9.8823e-17
6979.175 9.5854e-17
6980.7 9.3272e-17
6982.225 9.4636e-17
6983.75 9.7426e-17
6985.275 9.8827e-17
6986.8 9.5066e-17
6988.325 9.6992e-17
6989.85 9.5023e-17
6991.375 9.6614e-17
6992.9 1.0053e-16
6994.425 1.0367e-16
6995.95 9.8777e-17
6997.475 1.0284e-16
6999.0 1.0441e-16
7000.525 9.9382e-17
7002.05 9.127e-17
7003.575 8.9243e-17
7005.1 9.4002e-17
7006.625 9.8225e-17
7008.15 1.0478e-16
7009.675 1.0394e-16
7011.2 1.0806e-16
7012.725 1.0735e-16
7014.25 9.982e-17
7015.775 9.9823e-17
7017.3 1.0514e-16
7018.825 1.0446e-16
7020.35 1.0061e-16
7021.875 1.0398e-16
7023.4 1.0039e-16
7024.925 9.5369e-17
7026.45 9.8172e-17
7027.975 1.0888e-16
7029.5 1.0867e-16
7031.025 1.0597e-16
7032.55 1.0818e-16
7034.075 1.0645e-16
7035.6 1.0457e-16
7037.125 1.0826e-16
7038.65 1.2039e-16
7040.175 1.3485e-16
7041.7 1.4043e-16
7043.225 1.4697e-16
7044.75 1.3592e-16
7046.275 1.1624e-16
7047.8 1.0825e-16
7049.325 1.018e-16
7050.85 1.0185e-16
7052.375 9.9814e-17
7053.9 9.7399e-17
7055.425 9.6892e-17
7056.95 1.0338e-16
7058.475 1.0505e-16
7060.0 1.0594e-16
7061.525 1.1085e-16
7063.05 1.2133e-16
7064.575 1.2346e-16
7066.1 1.2363e-16
7067.625 1.166e-16
7069.15 1.0764e-16
7070.675 1.0454e-16
7072.2 1.0283e-16
7073.725 1.0412e-16
7075.25 1.1041e-16
7076.775 1.0666e-16
7078.3 9.9718e-17
7079.825 1.0059e-16
7081.35 1.0594e-16
7082.875 1.1114e-16
7084.4 1.0952e-16
7085.925 1.0887e-16
7087.45 1.0329e-16
7088.975 9.9461e-17
7090.5 1.0183e-16
7092.025 1.0843e-16
7093.55 1.1428e-16
7095.075 1.1434e-16
7096.6 1.0562e-16
7098.125 1.0433e-16
7099.65 1.0629e-16
7101.175 1.0702e-16
7102.7 1.1134e-16
7104.225 1.1455e-16
7105.75 1.1322e-16
7107.275 1.0369e-16
7108.8 9.8938e-17
7110.325 1.0547e-16
7111.85 1.0509e-16
7113.375 1.014e-16
7114.9 1.0199e-16
7116.425 1.0626e-16
7117.95 1.0829e-16
7119.475 1.0489e-16
7121.0 1.0622e-16
7122.525 1.0618e-16
7124.05 1.0429e-16
7125.575 1.0928e-16
7127.1 1.095e-16
7128.625 9.8207e-17
7130.15 9.3659e-17
7131.675 1.0424e-16
7133.2 1.0968e-16
7134.725 1.0391e-16
7136.25 1.0326e-16
7137.775 1.075e-16
7139.3 1.0974e-16
7140.825 1.0771e-16
7142.35 1.081e-16
7143.875 1.1143e-16
7145.4 1.0745e-16
7146.925 1.0611e-16
7148.45 1.0758e-16
7149.975 1.0367e-16
7151.5 1.002e-16
7153.025 9.5289e-17
7154.55 9.3179e-17
7156.075 9.89e-17
7157.6 9.6136e-17
7159.125 9.5456e-17
7160.65 1.0383e-16
7162.175 9.8402e-17
7163.7 9.7213e-17
7165.225 9.7381e-17
7166.75 9.4961e-17
7168.275 9.6619e-17
7169.8 9.8293e-17
7171.325 9.8623e-17
7172.85 9.4022e-17
7174.375 9.2899e-17
7175.9 9.9201e-17
7177.425 1.0322e-16
7178.95 9.686e-17
7180.475 9.3167e-17
7182.0 8.9874e-17
7183.525 8.3059e-17
7185.05 8.3623e-17
7186.575 8.6736e-17
7188.1 8.5815e-17
7189.625 8.7053e-17
7191.15 9.6322e-17
7192.675 9.6567e-17
7194.2 8.5302e-17
7195.725 8.6819e-17
7197.25 9.1855e-17
7198.775 9.128e-17
7200.3 8.8504e-17
7201.825 8.98e-17
7203.35 9.2681e-17
7204.875 9.8258e-17
7206.4 1.0147e-16
7207.925 1.0034e-16
7209.45 1.049e-16
7210.975 9.4286e-17
7212.5 9.0324e-17
7214.025 8.6473e-17
7215.55 8.9535e-17
7217.075 9.2737e-17
7218.6 9.4213e-17
7220.125 1.0045e-16
7221.65 1.0097e-16
7223.175 9.5154e-17
7224.7 1.0003e-16
7226.225 1.0361e-16
7227.75 1.0238e-16
7229.275 9.2371e-17
7230.8 8.6655e-17
7232.325 8.558e-17
7233.85 9.3971e-17
7235.375 9.542e-17
7236.9 9.2167e-17
7238.425 8.5181e-17
7239.95 8.916e-17
7241.475 8.5791e-17
7243.0 8.3156e-17
7244.525 9.0302e-17
7246.05 8.9545e-17
7247.575 8.5765e-17
7249.1 8.551e-17
7250.625 8.6208e-17
7252.15 8.673e-17
7253.675 9.0827e-17
7255.2 9.4079e-17
7256.725 9.0331e-17
7258.25 9.25e-17
7259.775 9.5922e-17
7261.3 9.3902e-17
7262.825 9.7596e-17
7264.35 9.2234e-17
7265.875 8.8189e-17
7267.4 9.1384e-17
7268.925 8.6463e-17
7270.45 8.4209e-17
7271.975 9.6497e-17
7273.5 9.2223e-17
7275.025 8.7435e-17
7276.55 9.6422e-17
7278.075 9.9766e-17
7279.6 1.0176e-16
7281.125 9.9945e-17
7282.65 9.7213e-17
7284.175 9.5128e-17
7285.7 9.3829e-17
7287.225 9.036e-17
7288.75 8.5609e-17
7290.275 9.0231e-17
7291.8 9.4154e-17
7293.325 9.2146e-17
7294.85 9.271e-17
7296.375 9.404e-17
7297.9 8.9675e-17
7299.425 8.6946e-17
7300.95 9.3179e-17
7302.475 9.3095e-17
7304.0 8.5787e-17
7305.525 9.1021e-17
7307.05 9.7958e-17
7308.575 9.3048e-17
7310.1 9.2977e-17
7311.625 1.0424e-16
7313.15 1.005e-16
7314.675 8.8457e-17
7316.2 9.2471e-17
7317.725 8.7646e-17
7319.25 8.5489e-17
7320.775 9.1131e-17
7322.3 9.7206e-17
7323.825 1.0073e-16
7325.35 1.0158e-16
7326.875 9.785e-17
7328.4 9.4589e-17
7329.925 9.0027e-17
7331.45 9.5292e-17
7332.975 9.5412e-17
7334.5 9.7172e-17
7336.025 9.821e-17
7337.55 9.9018e-17
7339.075 9.5706e-17
7340.6 9.5086e-17
7342.125 9.7107e-17
7343.65 9.943e-17
7345.175 9.3846e-17
7346.7 8.9595e-17
7348.225 8.9666e-17
7349.75 9.3819e-17
7351.275 9.8113e-17
7352.8 1.0209e-16
7354.325 1.006e-16
7355.85 9.8649e-17
7357.375 9.504e-17
7358.9 9.3082e-17
7360.425 9.571e-17
7361.95 9.1317e-17
7363.475 9.2375e-17
7365.0 9.5413e-17
7366.525 9.8153e-17
7368.05 1.0354e-16
7369.575 1.0357e-16
7371.1 9.606e-17
7372.625 9.4637e-17
7374.15 9.5475e-17
7375.675 8.756e-17
7377.2 9.5896e-17
7378.725 1.0161e-16
7380.25 9.6174e-17
7381.775 9.9414e-17
7383.3 1.0654e-16
7384.825 9.802e-17
7386.35 9.1217e-17
7387.875 9.6593e-17
7389.4 1.0387e-16
7390.925 1.0255e-16
7392.45 9.7486e-17
7393.975 9.6767e-17
7395.5 1.0173e-16
7397.025 1.0242e-16
7398.55 9.7698e-17
7400.075 9.843e-17
7401.6 1.0197e-16
7403.125 9.8245e-17
7404.65 9.8039e-17
7406.175 9.9207e-17
7407.7 1.0488e-16
7409.225 1.0339e-16
7410.75 1.0113e-16
7412.275 1.0037e-16
7413.8 9.1563e-17
7415.325 9.5456e-17
7416.85 1.064e-16
7418.375 1.0484e-16
7419.9 9.8307e-17
7421.425 9.7625e-17
7422.95 9.7706e-17
7424.475 9.4675e-17
7426.0 9.3689e-17
7427.525 9.9194e-17
7429.05 1.0381e-16
7430.575 1.0459e-16
7432.1 1.0153e-16
7433.625 9.7565e-17
7435.15 1.0126e-16
7436.675 1.0158e-16
7438.2 9.3021e-17
7439.725 9.6574e-17
7441.25 1.0305e-16
7442.775 9.9064e-17
7444.3 9.6399e-17
7445.825 9.92e-17
7447.35 9.8644e-17
7448.875 9.6291e-17
7450.4 9.9736e-17
7451.925 9.8823e-17
7453.45 9.356e-17
7454.975 9.3222e-17
7456.5 9.612e-17
7458.025 9.6661e-17
7459.55 9.3833e-17
7461.075 9.3511e-17
7462.6 9.221e-17
7464.125 9.3297e-17
7465.65 1.0091e-16
7467.175 1.0028e-16
7468.7 9.2884e-17
7470.225 8.7704e-17
7471.75 9.3534e-17
7473.275 1.0325e-16
7474.8 1.0395e-16
7476.325 9.589e-17
7477.85 9.7652e-17
7479.375 9.9207e-17
7480.9 9.4817e-17
7482.425 9.3959e-17
7483.95 9.66e-17
7485.475 9.5271e-17
7487.0 8.9741e-17
7488.525 9.2034e-17
7490.05 9.4838e-17
7491.575 9.3859e-17
7493.1 9.0319e-17
7494.625 8.9185e-17
7496.15 9.2769e-17
7497.675 9.5062e-17
7499.2 9.8149e-17
7500.725 9.6846e-17
7502.25 9.2173e-17
7503.775 9.0142e-17
7505.3 8.9271e-17
7506.825 9.5386e-17
7508.35 1.0446e-16
7509.875 9.8198e-17
7511.4 9.6534e-17
7512.925 9.7218e-17
7514.45 9.9237e-17
7515.975 9.7465e-17
7517.5 8.9984e-17
7519.025 9.1142e-17
7520.55 9.1785e-17
7522.075 9.8807e-17
7523.6 9.8168e-17
7525.125 1.0064e-16
7526.65 9.4475e-17
7528.175 8.8101e-17
7529.7 8.8049e-17
7531.225 9.2587e-17
7532.75 9.9859e-17
7534.275 9.9031e-17
7535.8 9.6923e-17
7537.325 9.7223e-17
7538.85 9.3944e-17
7540.375 9.3887e-17
7541.9 9.0725e-17
7543.425 9.1546e-17
7544.95 9.6536e-17
7546.475 9.6604e-17
7548.0 9.7517e-17
7549.525 9.3268e-17
7551.05 8.9647e-17
7552.575 8.9739e-17
7554.1 9.3172e-17
7555.625 9.8333e-17
7557.15 9.6699e-17
7558.675 9.1813e-17
7560.2 9.2469e-17
7561.725 9.5087e-17
7563.25 9.265e-17
7564.775 9.3026e-17
7566.3 9.7163e-17
7567.825 9.762e-17
7569.35 9.5197e-17
7570.875 1.0562e-16
7572.4 1.0833e-16
7573.925 9.6655e-17
7575.45 9.1528e-17
7576.975 9.2591e-17
7578.5 9.4714e-17
7580.025 9.554e-17
7581.55 9.2122e-17
7583.075 9.2159e-17
7584.6 9.5607e-17
7586.125 9.2972e-17
7587.65 9.3598e-17
7589.175 9.4443e-17
7590.7 8.3139e-17
7592.225 6.7756e-17
7593.75 5.8938e-17
7595.275 5.1523e-17
7596.8 3.5484e-17
7598.325 2.3385e-17
7599.85 2.4494e-17
7601.375 2.9208e-17
7602.9 3.1078e-17
7604.425 3.3072e-17
7605.95 3.5206e-17
7607.475 3.389e-17
7609.0 3.7703e-17
7610.525 4.4423e-17
7612.05 4.79e-17
7613.575 5.6315e-17
7615.1 6.4776e-17
7616.625 7.2778e-17
7618.15 7.2349e-17
7619.675 5.984e-17
7621.2 5.9791e-17
7622.725 6.1243e-17
7624.25 5.4687e-17
7625.775 4.8922e-17
7627.3 5.0367e-17
7628.825 4.6009e-17
7630.35 5.1304e-17
7631.875 5.7965e-17
7633.4 5.7557e-17
7634.925 6.18e-17
7636.45 6.3478e-17
7637.975 6.635e-17
7639.5 6.4156e-17
7641.025 6.577e-17
7642.55 7.1762e-17
7644.075 7.0808e-17
7645.6 7.4595e-17
7647.125 7.3864e-17
7648.65 7.507e-17
7650.175 7.5475e-17
7651.7 8.0617e-17
7653.225 7.4456e-17
7654.75 7.4327e-17
7656.275 7.8927e-17
7657.8 8.362e-17
7659.325 8.8221e-17
7660.85 9.0575e-17
7662.375 8.6065e-17
7663.9 8.1073e-17
7665.425 7.9547e-17
7666.95 8.8288e-17
7668.475 9.0876e-17
7670.0 8.8335e-17
7671.525 8.9451e-17
7673.05 8.4953e-17
7674.575 8.6784e-17
7676.1 8.7677e-17
7677.625 9.3834e-17
7679.15 1.0373e-16
7680.675 1.0358e-16
7682.2 9.4489e-17
7683.725 9.2429e-17
7685.25 9.3733e-17
7686.775 9.4947e-17
7688.3 1.0321e-16
7689.825 9.7358e-17
7691.35 8.8411e-17
7692.875 9.4467e-17
7694.4 1.0481e-16
7695.925 1.0207e-16
7697.45 1.001e-16
7698.975 1.0122e-16
7700.5 9.9636e-17
7702.025 9.8386e-17
7703.55 1.0075e-16
7705.075 1.0054e-16
7706.6 1.03e-16
7708.125 1.0945e-16
7709.65 1.0647e-16
7711.175 9.9168e-17
7712.7 9.8864e-17
7714.225 1.0237e-16
7715.75 1.0238e-16
7717.275 9.597e-17
7718.8 9.5915e-17
7720.325 9.9459e-17
7721.85 1.0417e-16
7723.375 1.0815e-16
7724.9 1.0688e-16
7726.425 1.0111e-16
7727.95 9.5439e-17
7729.475 9.6372e-17
7731.0 9.7276e-17
7732.525 1.0209e-16
7734.05 1.0603e-16
7735.575 1.0391e-16
7737.1 1.0255e-16
7738.625 1.0053e-16
7740.15 1.0143e-16
7741.675 1.0857e-16
7743.2 1.1182e-16
7744.725 1.0801e-16
7746.25 1.1381e-16
7747.775 1.1603e-16
7749.3 1.0403e-16
7750.825 9.9215e-17
7752.35 1.0129e-16
7753.875 9.944e-17
7755.4 9.589e-17
7756.925 9.9656e-17
7758.45 9.9122e-17
7759.975 1.0228e-16
7761.5 1.0274e-16
7763.025 1.0196e-16
7764.55 1.0162e-16
7766.075 9.8795e-17
7767.6 9.5412e-17
7769.125 9.9993e-17
7770.65 1.0724e-16
7772.175 1.0152e-16
7773.7 9.4215e-17
7775.225 9.3733e-17
7776.75 9.1914e-17
7778.275 9.8128e-17
7779.8 1.0214e-16
7781.325 1.0028e-16
7782.85 1.007e-16
7784.375 9.4369e-17
7785.9 9.4726e-17
7787.425 9.383e-17
7788.95 9.4666e-17
7790.475 9.7059e-17
7792.0 9.8797e-17
7793.525 1.0111e-16
7795.05 9.9646e-17
7796.575 9.7116e-17
7798.1 9.4754e-17
7799.625 9.8125e-17
7801.15 9.9703e-17
7802.675 9.8922e-17
7804.2 9.6432e-17
7805.725 9.8068e-17
7807.25 9.9615e-17
7808.775 9.9193e-17
7810.3 1.0057e-16
7811.825 1.0151e-16
7813.35 9.6844e-17
7814.875 9.3257e-17
7816.4 9.596e-17
7817.925 1.0266e-16
7819.45 1.0804e-16
7820.975 1.124e-16
7822.5 1.0624e-16
7824.025 9.4962e-17
7825.55 9.8688e-17
7827.075 9.9206e-17
7828.6 9.2472e-17
7830.125 1.0045e-16
7831.65 1.0498e-16
7833.175 1.0318e-16
7834.7 1.0354e-16
7836.225 9.9473e-17
7837.75 9.6603e-17
7839.275 9.9368e-17
7840.8 1.0056e-16
7842.325 1.0281e-16
7843.85 1.0047e-16
7845.375 9.3988e-17
7846.9 8.5818e-17
7848.425 8.9301e-17
7849.95 9.9304e-17
7851.475 9.9867e-17
7853.0 9.5522e-17
7854.525 9.4488e-17
7856.05 9.0064e-17
7857.575 8.8619e-17
7859.1 9.3101e-17
7860.625 9.5499e-17
7862.15 1.0282e-16
7863.675 9.8834e-17
7865.2 9.8827e-17
7866.725 1.0887e-16
7868.25 1.0382e-16
7869.775 9.3431e-17
7871.3 9.3583e-17
7872.825 8.7277e-17
7874.35 8.3974e-17
7875.875 9.5693e-17
7877.4 1.0545e-16
7878.925 9.6912e-17
7880.45 9.0377e-17
7881.975 9.2068e-17
7883.5 9.3305e-17
7885.025 9.6099e-17
7886.55 1.0575e-16
7888.075 1.051e-16
7889.6 1.0145e-16
7891.125 9.7567e-17
7892.65 9.5904e-17
7894.175 9.4098e-17
7895.7 9.1108e-17
7897.225 9.1743e-17
7898.75 9.0408e-17
7900.275 9.3278e-17
7901.8 8.9686e-17
7903.325 9.4572e-17
7904.85 9.9253e-17
7906.375 8.7655e-17
7907.9 8.2404e-17
7909.425 9.7843e-17
7910.95 1.0594e-16
7912.475 9.8048e-17
7914.0 9.4025e-17
7915.525 8.5737e-17
7917.05 8.9928e-17
7918.575 1.0433e-16
7920.1 1.0894e-16
7921.625 9.8006e-17
7923.15 8.7578e-17
7924.675 8.2572e-17
7926.2 9.1373e-17
7927.725 9.927e-17
7929.25 9.4166e-17
7930.775 9.7475e-17
7932.3 9.8942e-17
7933.825 9.6258e-17
7935.35 9.727e-17
7936.875 9.8496e-17
7938.4 9.7179e-17
7939.925 9.7186e-17
7941.45 9.8559e-17
7942.975 9.7143e-17
7944.5 9.6442e-17
7946.025 9.9993e-17
7947.55 9.9018e-17
7949.075 9.1364e-17
7950.6 8.9828e-17
7952.125 9.3345e-17
7953.65 8.6295e-17
7955.175 8.2011e-17
7956.7 9.0442e-17
7958.225 9.485e-17
7959.75 9.3833e-17
7961.275 1.0111e-16
7962.8 1.0619e-16
7964.325 9.9623e-17
7965.85 9.1147e-17
7967.375 8.9549e-17
7968.9 9.5412e-17
7970.425 1.0109e-16
7971.95 9.171e-17
7973.475 8.9309e-17
7975.0 1.052e-16
7976.525 1.0691e-16
7978.05 9.5293e-17
7979.575 8.998e-17
7981.1 8.7676e-17
7982.625 8.6513e-17
7984.15 9.1877e-17
7985.675 9.6178e-17
7987.2 9.3107e-17
7988.725 9.4895e-17
7990.25 1.0613e-16
7991.775 1.1276e-16
7993.3 1.1173e-16
7994.825 1.0641e-16
7996.35 9.8436e-17
7997.875 8.9733e-17
7999.4 8.8532e-17
8000.925 9.032e-17
8002.45 9.5224e-17
8003.975 8.9471e-17
8005.5 9.2031e-17
8007.025 1.0329e-16
8008.55 9.9183e-17
8010.075 8.9815e-17
8011.6 9.6657e-17
8013.125 1.0191e-16
8014.65 9.7118e-17
8016.175 9.3813e-17
8017.7 9.0589e-17
8019.225 9.5847e-17
8020.75 1.0158e-16
8022.275 1.0061e-16
8023.8 9.3536e-17
8025.325 9.4657e-17
8026.85 9.9851e-17
8028.375 1.0195e-16
8029.9 9.2827e-17
8031.425 8.9113e-17
8032.95 9.4019e-17
8034.475 9.3932e-17
8036.0 9.154e-17
8037.525 9.1894e-17
8039.05 9.3971e-17
8040.575 8.9894e-17
8042.1 9.1841e-17
8043.625 9.3347e-17
8045.15 9.1406e-17
8046.675 9.2233e-17
8048.2 9.2135e-17
8049.725 9.3147e-17
8051.25 9.8224e-17
8052.775 1.0515e-16
8054.3 1.0178e-16
8055.825 9.5842e-17
8057.35 9.222e-17
8058.875 9.7951e-17
8060.4 9.7585e-17
8061.925 8.8716e-17
8063.45 8.174e-17
8064.975 8.5412e-17
8066.5 8.5851e-17
8068.025 8.5343e-17
8069.55 8.7137e-17
8071.075 9.1199e-17
8072.6 9.6446e-17
8074.125 8.8127e-17
8075.65 8.3216e-17
8077.175 8.8517e-17
8078.7 9.1795e-17
8080.225 9.1991e-17
8081.75 9.5481e-17
8083.275 9.8768e-17
8084.8 9.4662e-17
8086.325 9.5351e-17
8087.85 9.6611e-17
8089.375 9.6647e-17
8090.9 9.8793e-17
8092.425 9.8733e-17
8093.95 9.5118e-17
8095.475 9.3746e-17
8097.0 9.4911e-17
8098.525 8.9765e-17
8100.05 9.1699e-17
8101.575 9.7315e-17
8103.1 9.7336e-17
8104.625 9.539e-17
8106.15 8.8731e-17
8107.675 8.9444e-17
8109.2 9.3308e-17
8110.725 9.5154e-17
8112.25 9.5926e-17
8113.775 8.8799e-17
8115.3 8.6793e-17
8116.825 9.2661e-17
8118.35 8.818e-17
8119.875 8.5504e-17
8121.4 8.657e-17
8122.925 8.4987e-17
8124.45 8.5317e-17
8125.975 8.7418e-17
8127.5 8.4233e-17
8129.025 8.3971e-17
8130.55 8.2959e-17
8132.075 8.6534e-17
8133.6 8.5784e-17
8135.125 8.3429e-17
8136.65 8.5688e-17
8138.175 8.6852e-17
8139.7 9.0129e-17
8141.225 8.6461e-17
8142.75 8.2435e-17
8144.275 8.6945e-17
8145.8 8.7753e-17
8147.325 8.3874e-17
8148.85 8.1116e-17
8150.375 7.7453e-17
8151.9 7.9486e-17
8153.425 7.5928e-17
8154.95 7.816e-17
8156.475 7.7422e-17
8158.0 8.49e-17
8159.525 8.1365e-17
8161.05 7.4631e-17
8162.575 7.8953e-17
8164.1 8.3332e-17
8165.625 8.0994e-17
8167.15 8.1739e-17
8168.675 8.1158e-17
8170.2 8.1163e-17
8171.725 8.5031e-17
8173.25 7.9261e-17
8174.775 7.559e-17
8176.3 7.5969e-17
8177.825 8.2442e-17
8179.35 8.797e-17
8180.875 8.6306e-17
8182.4 8.2363e-17
8183.925 8.1251e-17
8185.45 8.2658e-17
8186.975 7.8734e-17
8188.5 7.0299e-17
8190.025 7.3979e-17
8191.55 8.3014e-17
8193.075 7.9453e-17
8194.6 7.9718e-17
8196.125 7.9765e-17
8197.65 7.7863e-17
8199.175 8.0196e-17
8200.7 8.7877e-17
8202.225 8.9855e-17
8203.75 8.6774e-17
8205.275 8.4192e-17
8206.8 8.4254e-17
8208.325 8.5734e-17
8209.85 8.3798e-17
8211.375 8.2815e-17
8212.9 8.2902e-17
8214.425 8.3067e-17
8215.95 8.5478e-17
8217.475 8.7543e-17
8219.0 8.6538e-17
8220.525 8.4204e-17
8222.05 7.6812e-17
8223.575 7.206e-17
8225.1 7.2669e-17
8226.625 7.1436e-17
8228.15 7.1587e-17
8229.675 7.6246e-17
8231.2 7.9166e-17
8232.725 8.0758e-17
8234.25 7.8614e-17
8235.775 8.0338e-17
8237.3 8.6648e-17
8238.825 8.5688e-17
8240.35 8.42e-17
8241.875 8.3622e-17
8243.4 8.094e-17
8244.925 8.7547e-17
8246.45 9.3671e-17
8247.975 8.6416e-17
8249.5 9.2206e-17
8251.025 9.2401e-17
8252.55 8.8951e-17
8254.075 8.452e-17
8255.6 8.1738e-17
8257.125 8.0193e-17
8258.65 8.5836e-17
8260.175 9.5228e-17
8261.7 9.3699e-17
8263.225 8.8828e-17
8264.75 9.0661e-17
8266.275 9.1604e-17
8267.8 8.8251e-17
8269.325 8.5451e-17
8270.85 9.0125e-17
8272.375 8.691e-17
8273.9 7.8708e-17
8275.425 8.448e-17
8276.95 9.2503e-17
8278.475 9.5967e-17
8280.0 9.927e-17
8281.525 9.288e-17
8283.05 9.4164e-17
8284.575 9.6499e-17
8286.1 9.1594e-17
8287.625 8.7783e-17
8289.15 8.8157e-17
8290.675 8.4805e-17
8292.2 8.3046e-17
8293.725 8.5024e-17
8295.25 9.6993e-17
8296.775 1.004e-16
8298.3 8.399e-17
8299.825 8.0443e-17
8301.35 8.5606e-17
8302.875 8.5558e-17
8304.4 8.6186e-17
8305.925 8.9759e-17
8307.45 9.2878e-17
8308.975 9.0335e-17
8310.5 8.6903e-17
8312.025 9.0299e-17
8313.55 8.9789e-17
8315.075 8.774e-17
8316.6 8.7015e-17
8318.125 8.5021e-17
8319.65 8.8169e-17
8321.175 9.4906e-17
8322.7 9.7385e-17
8324.225 9.6424e-17
8325.75 9.4013e-17
8327.275 9.4478e-17
8328.8 9.8287e-17
8330.325 9.699e-17
8331.85 9.5465e-17
8333.375 9.6264e-17
8334.9 9.1339e-17
8336.425 8.3465e-17
8337.95 9.1196e-17
8339.475 1.0079e-16
8341.0 1.0115e-16
8342.525 1.0232e-16
8344.05 1.04e-16
8345.575 9.8105e-17
8347.1 8.5807e-17
8348.625 8.2969e-17
8350.15 9.2152e-17
8351.675 9.2694e-17
8353.2 9.966e-17
8354.725 9.4297e-17
8356.25 8.565e-17
8357.775 8.5485e-17
8359.3 8.2813e-17
8360.825 9.224e-17
8362.35 1.039e-16
8363.875 1.048e-16
8365.4 9.8027e-17
8366.925 9.2827e-17
8368.45 9.597e-17
8369.975 9.8906e-17
8371.5 9.6798e-17
8373.025 9.3019e-17
8374.55 8.8886e-17
8376.075 9.4641e-17
8377.6 9.3152e-17
8379.125 9.5855e-17
8380.65 9.4137e-17
8382.175 9.5886e-17
8383.7 9.835e-17
8385.225 9.884e-17
8386.75 9.9792e-17
8388.275 9.8048e-17
8389.8 9.7557e-17
8391.325 9.9346e-17
8392.85 9.2836e-17
8394.375 9.5133e-17
8395.9 9.7773e-17
8397.425 8.7283e-17
8398.95 8.7283e-17
8400.475 9.812e-17
8402.0 9.4831e-17
8403.525 9.3308e-17
8405.05 9.2757e-17
8406.575 9.398e-17
8408.1 9.475e-17
8409.625 8.8369e-17
8411.15 8.9118e-17
8412.675 9.6221e-17
8414.2 9.9438e-17
8415.725 1.0258e-16
8417.25 9.7091e-17
8418.775 9.0387e-17
8420.3 9.0672e-17
8421.825 9.382e-17
8423.35 9.352e-17
8424.875 9.1762e-17
8426.4 1.0079e-16
8427.925 1.0586e-16
8429.45 1.0247e-16
8430.975 1.1114e-16
8432.5 1.0541e-16
8434.025 8.6589e-17
8435.55 8.8433e-17
8437.075 9.3122e-17
8438.6 9.2589e-17
8440.125 9.5632e-17
8441.65 1.0186e-16
8443.175 1.029e-16
8444.7 9.7011e-17
8446.225 9.6204e-17
8447.75 1.0372e-16
8449.275 1.0751e-16
8450.8 9.495e-17
8452.325 8.5781e-17
8453.85 9.2998e-17
8455.375 9.5843e-17
8456.9 9.4074e-17
8458.425 9.7691e-17
8459.95 9.9872e-17
8461.475 1.0331e-16
8463.0 9.6416e-17
8464.525 9.8187e-17
8466.05 1.0635e-16
8467.575 9.6803e-17
8469.1 8.7827e-17
8470.625 9.0634e-17
8472.15 9.4725e-17
8473.675 9.6825e-17
8475.2 9.3157e-17
8476.725 9.0959e-17
8478.25 9.1565e-17
8479.775 9.6773e-17
8481.3 9.5381e-17
8482.825 9.169e-17
8484.35 9.8464e-17
8485.875 1.0119e-16
8487.4 9.6791e-17
8488.925 9.3657e-17
8490.45 9.3019e-17
8491.975 9.5824e-17
8493.5 9.7284e-17
8495.025 9.1327e-17
8496.55 8.9097e-17
8498.075 8.6337e-17
8499.6 8.2777e-17
8501.125 8.6018e-17
8502.65 9.0169e-17
8504.175 9.6831e-17
8505.7 9.0792e-17
8507.225 8.937e-17
8508.75 8.7257e-17
8510.275 8.6831e-17
8511.8 9.2576e-17
8513.325 9.31e-17
8514.85 8.9364e-17
8516.375 8.6995e-17
8517.9 8.6856e-17
8519.425 8.9496e-17
8520.95 9.0697e-17
8522.475 9.0329e-17
8524.0 8.946e-17
8525.525 8.7884e-17
8527.05 8.72e-17
8528.575 8.8538e-17
8530.1 9.0147e-17
8531.625 8.9811e-17
8533.15 9.0326e-17
8534.675 9.2105e-17
8536.2 8.8946e-17
8537.725 8.8756e-17
8539.25 9.2826e-17
8540.775 9.071e-17
8542.3 9.0127e-17
8543.825 9.2293e-17
8545.35 8.8495e-17
8546.875 8.8068e-17
8548.4 9.2181e-17
8549.925 9.0436e-17
8551.45 8.4927e-17
8552.975 8.4268e-17
8554.5 9.5341e-17
8556.025 1.0105e-16
8557.55 9.3997e-17
8559.075 8.533e-17
8560.6 8.4195e-17
8562.125 8.669e-17
8563.65 8.4691e-17
8565.175 7.9993e-17
8566.7 8.0465e-17
8568.225 8.3639e-17
8569.75 8.7701e-17
8571.275 8.6795e-17
8572.8 8.5846e-17
8574.325 8.6991e-17
8575.85 8.6258e-17
8577.375 8.5223e-17
8578.9 8.2632e-17
8580.425 8.5309e-17
8581.95 8.5215e-17
8583.475 8.6057e-17
8585.0 8.2317e-17
8586.525 8.7108e-17
8588.05 9.2748e-17
8589.575 9.1469e-17
8591.1 8.2429e-17
8592.625 8.1735e-17
8594.15 8.711e-17
8595.675 8.6206e-17
8597.2 8.9131e-17
8598.725 8.6989e-17
8600.25 7.9841e-17
8601.775 7.8879e-17
8603.3 8.6414e-17
8604.825 8.6689e-17
8606.35 8.5644e-17
8607.875 8.9596e-17
8609.4 8.7122e-17
8610.925 8.6156e-17
8612.45 8.7722e-17
8613.975 8.3868e-17
8615.5 8.7608e-17
8617.025 8.6002e-17
8618.55 8.4692e-17
8620.075 8.6006e-17
8621.6 9.0042e-17
8623.125 9.0493e-17
8624.65 8.4986e-17
8626.175 7.4676e-17
8627.7 6.8784e-17
8629.225 6.8451e-17
8630.75 7.6699e-17
8632.275 8.5962e-17
8633.8 8.4489e-17
8635.325 7.0722e-17
8636.85 6.6728e-17
8638.375 8.4212e-17
8639.9 9.2829e-17
8641.425 8.8578e-17
8642.95 8.4923e-17
8644.475 7.7334e-17
8646.0 7.6771e-17
8647.525 8.9283e-17
8649.05 9.2897e-17
8650.575 8.6731e-17
8652.1 9.3204e-17
8653.625 9.4505e-17
8655.15 8.2378e-17
8656.675 7.8607e-17
8658.2 8.2228e-17
8659.725 9.2527e-17
8661.25 9.1443e-17
8662.775 8.0321e-17
8664.3 8.2918e-17
8665.825 8.9406e-17
8667.35 8.4074e-17
8668.875 7.7009e-17
8670.4 7.2754e-17
8671.925 7.2773e-17
8673.45 7.3641e-17
8674.975 8.0563e-17
8676.5 9.1343e-17
8678.025 9.4484e-17
8679.55 8.8962e-17
8681.075 8.4659e-17
8682.6 7.661e-17
8684.125 8.0857e-17
8685.65 8.7263e-17
8687.175 8.6056e-17
8688.7 8.5519e-17
8690.225 8.1481e-17
8691.75 8.1697e-17
8693.275 8.4142e-17
8694.8 8.3936e-17
8696.325 7.7594e-17
8697.85 7.8197e-17
8699.375 8.8616e-17
8700.9 8.4068e-17
8702.425 8.4124e-17
8703.95 8.9833e-17
8705.475 8.7387e-17
8707.0 8.2662e-17
8708.525 8.1399e-17
8710.05 8.5116e-17
8711.575 8.6885e-17
8713.1 8.0276e-17
8714.625 8.1032e-17
8716.15 8.0793e-17
8717.675 7.9793e-17
8719.2 8.3516e-17
8720.725 9.4706e-17
8722.25 9.4338e-17
8723.775 8.6757e-17
8725.3 8.7864e-17
8726.825 8.6482e-17
8728.35 8.8479e-17
8729.875 8.986e-17
8731.4 8.1866e-17
8732.925 8.1166e-17
8734.45 8.6418e-17
8735.975 8.3636e-17
8737.5 7.7308e-17
8739.025 7.8634e-17
8740.55 8.505e-17
8742.075 8.7714e-17
8743.6 9.0187e-17
8745.125 8.2193e-17
8746.65 7.5713e-17
8748.175 7.9195e-17
8749.7 8.174e-17
8751.225 8.3874e-17
8752.75 8.2446e-17
8754.275 8.3222e-17
8755.8 8.6537e-17
8757.325 8.4523e-17
8758.85 7.4823e-17
8760.375 7.2643e-17
8761.9 8.5498e-17
8763.425 8.9935e-17
8764.95 8.6648e-17
8766.475 9.2084e-17
8768.0 9.6177e-17
8769.525 8.4742e-17
8771.05 7.9936e-17
8772.575 8.9117e-17
8774.1 8.8258e-17
8775.625 9.0156e-17
8777.15 9.3372e-17
8778.675 8.1315e-17
8780.2 7.9293e-17
8781.725 7.8121e-17
8783.25 8.0717e-17
8784.775 8.2715e-17
8786.3 8.7441e-17
8787.825 8.8352e-17
8789.35 8.7431e-17
8790.875 8.9112e-17
8792.4 8.1409e-17
8793.925 7.0214e-17
8795.45 7.644e-17
8796.975 8.2501e-17
8798.5 8.7392e-17
8800.025 8.755e-17
8801.55 8.726e-17
8803.075 8.7021e-17
8804.6 8.4371e-17
8806.125 8.6033e-17
8807.65 8.8306e-17
8809.175 8.1356e-17
8810.7 8.1163e-17
8812.225 8.8102e-17
8813.75 8.8333e-17
8815.275 8.3424e-17
8816.8 7.9752e-17
8818.325 7.8155e-17
8819.85 7.4459e-17
8821.375 6.7957e-17
8822.9 8.3187e-17
8824.425 9.2762e-17
8825.95 7.6727e-17
8827.475 8.5803e-17
8829.0 7.0525e-17
8830.525 6.1249e-17
8832.05 7.3975e-17
8833.575 9.3146e-17
8835.1 1.0325e-16
8836.625 1.0678e-16
8838.15 9.1884e-17
8839.675 7.9642e-17
8841.2 8.2566e-17
8842.725 8.5197e-17
8844.25 8.566e-17
8845.775 8.1287e-17
8847.3 7.9109e-17
8848.825 8.4478e-17
8850.35 8.474e-17
8851.875 8.2006e-17
8853.4 8.4994e-17
8854.925 8.9087e-17
8856.45 8.9091e-17
8857.975 8.3976e-17
8859.5 8.4331e-17
8861.025 8.9886e-17
8862.55 8.5613e-17
8864.075 8.2453e-17
8865.6 8.4964e-17
8867.125 9.3046e-17
8868.65 1.0306e-16
8870.175 9.2507e-17
8871.7 8.3883e-17
8873.225 8.5521e-17
8874.75 8.6734e-17
8876.275 8.1163e-17
8877.8 7.5227e-17
8879.325 7.7169e-17
8880.85 9.3369e-17
8882.375 1.0167e-16
8883.9 9.4909e-17
8885.425 1.0553e-16
8886.95 9.5116e-17
8888.475 7.399e-17
8890.0 7.154e-17
8891.525 7.7195e-17
8893.05 7.5097e-17
8894.575 7.8663e-17
8896.1 8.3156e-17
8897.625 8.3285e-17
8899.15 8.807e-17
8900.675 8.3457e-17
8902.2 8.8926e-17
8903.725 8.9725e-17
8905.25 7.9772e-17
8906.775 7.8073e-17
8908.3 8.6438e-17
8909.825 8.5576e-17
8911.35 8.5154e-17
8912.875 8.2589e-17
8914.4 6.9958e-17
8915.925 8.7466e-17
8917.45 8.4942e-17
8918.975 9.2474e-17
8920.5 1.0531e-16
8922.025 6.973e-17
8923.55 6.6192e-17
8925.075 8.5157e-17
8926.6 8.7481e-17
8928.125 8.212e-17
8929.65 8.1328e-17
8931.175 8.1133e-17
8932.7 8.5624e-17
8934.225 8.6403e-17
8935.75 7.8921e-17
8937.275 7.8461e-17
8938.8 8.1551e-17
8940.325 8.1019e-17
8941.85 8.4378e-17
8943.375 8.6606e-17
8944.9 8.1196e-17
8946.425 7.6603e-17
8947.95 7.4183e-17
8949.475 7.4087e-17
8951.0 7.3588e-17
8952.525 6.7177e-17
8954.05 7.7412e-17
8955.575 8.6936e-17
8957.1 8.4671e-17
8958.625 8.8895e-17
8960.15 7.9411e-17
8961.675 6.5813e-17
8963.2 6.9101e-17
8964.725 7.5393e-17
8966.25 7.7221e-17
8967.775 7.7061e-17
8969.3 7.7677e-17
8970.825 7.3208e-17
8972.35 6.9104e-17
8973.875 7.9882e-17
8975.4 8.7473e-17
8976.925 8.3625e-17
8978.45 7.7942e-17
8979.975 7.5991e-17
8981.5 7.2982e-17
8983.025 7.0824e-17
8984.55 6.916e-17
8986.075 6.9946e-17
8987.6 7.0997e-17
8989.125 7.4267e-17
8990.65 7.0701e-17
8992.175 7.0182e-17
8993.7 7.3671e-17
8995.225 7.3586e-17
8996.75 7.5811e-17
8998.275 8.2527e-17
8999.8 7.7407e-17
9001.325 7.6189e-17
9002.85 7.4367e-17
9004.375 6.9674e-17
9005.9 7.6229e-17
9007.425 8.3295e-17
9008.95 7.7774e-17
9010.475 7.8212e-17
9012.0 8.1069e-17
9013.525 7.9565e-17
9015.05 7.4944e-17
9016.575 7.7967e-17
9018.1 8.6779e-17
9019.625 8.3684e-17
9021.15 8.0873e-17
9022.675 8.2639e-17
9024.2 8.0271e-17
9025.725 7.705e-17
9027.25 8.1664e-17
9028.775 8.4581e-17
9030.3 8.0375e-17
9031.825 7.7617e-17
9033.35 8.381e-17
9034.875 8.833e-17
9036.4 8.8736e-17
9037.925 8.4491e-17
9039.45 8.5618e-17
9040.975 9.3425e-17
9042.5 9.1887e-17
9044.025 8.2028e-17
9045.55 7.9067e-17
9047.075 8.5429e-17
9048.6 8.6019e-17
9050.125 8.4073e-17
9051.65 8.2244e-17
9053.175 7.9993e-17
9054.7 7.8016e-17
9056.225 7.94e-17
9057.75 7.9046e-17
9059.275 7.821e-17
9060.8 7.7059e-17
9062.325 7.2807e-17
9063.85 7.5062e-17
9065.375 7.1687e-17
9066.9 6.9122e-17
9068.425 7.6405e-17
9069.95 7.4415e-17
9071.475 7.0887e-17
9073.0 7.6117e-17
9074.525 8.2604e-17
9076.05 8.0963e-17
9077.575 7.7192e-17
9079.1 7.6143e-17
9080.625 7.828e-17
9082.15 8.2437e-17
9083.675 7.8666e-17
9085.2 7.1566e-17
9086.725 7.1325e-17
9088.25 7.6313e-17
9089.775 7.8964e-17
9091.3 7.6334e-17
9092.825 7.7074e-17
9094.35 7.5748e-17
9095.875 6.875e-17
9097.4 7.223e-17
9098.925 8.3962e-17
9100.45 8.827e-17
9101.975 8.3601e-17
9103.5 7.5831e-17
9105.025 7.1326e-17
9106.55 7.3337e-17
9108.075 7.1689e-17
9109.6 7.7047e-17
9111.125 7.9083e-17
9112.65 7.3059e-17
9114.175 8.1281e-17
9115.7 7.9946e-17
9117.225 7.7208e-17
9118.75 8.1239e-17
9120.275 7.4956e-17
9121.8 7.7275e-17
9123.325 8.5443e-17
9124.85 8.4749e-17
9126.375 7.7878e-17
9127.9 7.5857e-17
9129.425 7.4721e-17
9130.95 6.9387e-17
9132.475 6.9417e-17
9134.0 6.7991e-17
9135.525 7.1032e-17
9137.05 7.7892e-17
9138.575 7.7564e-17
9140.1 7.6866e-17
9141.625 7.8008e-17
9143.15 7.6697e-17
9144.675 7.864e-17
9146.2 8.1645e-17
9147.725 8.4284e-17
9149.25 7.8378e-17
9150.775 7.533e-17
9152.3 7.6513e-17
9153.825 7.2983e-17
9155.35 7.2679e-17
9156.875 7.1503e-17
9158.4 7.5023e-17
9159.925 8.3009e-17
9161.45 8.0757e-17
9162.975 7.4841e-17
9164.5 7.4216e-17
9166.025 7.5323e-17
9167.55 7.4735e-17
9169.075 6.9368e-17
9170.6 5.9428e-17
9172.125 5.9649e-17
9173.65 7.2318e-17
9175.175 7.7469e-17
9176.7 7.7182e-17
9178.225 8.3395e-17
9179.75 8.6044e-17
9181.275 8.2424e-17
9182.8 8.7282e-17
9184.325 9.165e-17
9185.85 8.746e-17
9187.375 8.8409e-17
9188.9 8.798e-17
9190.425 8.6995e-17
9191.95 8.1087e-17
9193.475 7.6287e-17
9195.0 8.2335e-17
9196.525 8.5915e-17
9198.05 8.4022e-17
9199.575 8.9173e-17
9201.1 8.5314e-17
9202.625 8.5966e-17
9204.15 8.2794e-17
9205.675 8.1586e-17
9207.2 8.2833e-17
9208.725 8.7762e-17
9210.25 8.8965e-17
9211.775 8.4308e-17
9213.3 7.8067e-17
9214.825 7.8481e-17
9216.35 8.4667e-17
9217.875 8.8351e-17
9219.4 8.5018e-17
9220.925 8.1053e-17
9222.45 7.8264e-17
9223.975 8.5786e-17
9225.5 9.407e-17
9227.025 9.2125e-17
9228.55 8.7471e-17
9230.075 9.1175e-17
9231.6 8.2494e-17
9233.125 7.513e-17
9234.65 8.284e-17
9236.175 8.8664e-17
9237.7 8.8259e-17
9239.225 9.0041e-17
9240.75 8.7556e-17
9242.275 8.1538e-17
9243.8 8.8212e-17
9245.325 9.1725e-17
9246.85 8.8879e-17
9248.375 9.0129e-17
9249.9 9.0404e-17
9251.425 9.4642e-17
9252.95 9.4643e-17
9254.475 8.455e-17
9256.0 8.0947e-17
9257.525 8.0615e-17
9259.05 8.3877e-17
9260.575 8.9302e-17
9262.1 9.1436e-17
9263.625 9.3676e-17
9265.15 9.3583e-17
9266.675 9.2901e-17
9268.2 9.4388e-17
9269.725 9.3588e-17
9271.25 8.9986e-17
9272.775 8.7523e-17
9274.3 8.1119e-17
9275.825 7.7693e-17
9277.35 7.4384e-17
9278.875 7.2214e-17
9280.4 8.2728e-17
9281.925 8.0374e-17
9283.45 8.2258e-17
9284.975 8.6627e-17
9286.5 8.3946e-17
9288.025 8.6868e-17
9289.55 8.8951e-17
9291.075 8.6796e-17
9292.6 7.2797e-17
9294.125 6.3407e-17
9295.65 6.2394e-17
9297.175 6.2311e-17
9298.7 7.2699e-17
9300.225 7.5669e-17
9301.75 7.5748e-17
9303.275 7.9582e-17
9304.8 7.4312e-17
9306.325 6.7202e-17
9307.85 7.5917e-17
9309.375 9.222e-17
9310.9 9.5394e-17
9312.425 8.752e-17
9313.95 8.3213e-17
9315.475 6.3327e-17
9317.0 4.6738e-17
9318.525 5.01e-17
9320.05 7.3665e-17
9321.575 7.1152e-17
9323.1 5.2438e-17
9324.625 7.4276e-17
9326.15 7.022e-17
9327.675 5.5259e-17
9329.2 5.7215e-17
9330.725 5.2249e-17
9332.25 3.965e-17
9333.775 4.7915e-17
9335.3 5.7857e-17
9336.825 5.407e-17
9338.35 4.4443e-17
9339.875 3.8018e-17
9341.4 4.1873e-17
9342.925 5.6126e-17
9344.45 7.2195e-17
9345.975 8.2931e-17
9347.5 7.3818e-17
9349.025 5.8253e-17
9350.55 4.9358e-17
9352.075 4.4559e-17
9353.6 4.2493e-17
9355.125 4.7412e-17
9356.65 6.5093e-17
9358.175 7.1799e-17
9359.7 6.7375e-17
9361.225 6.3715e-17
9362.75 5.3928e-17
9364.275 5.654e-17
9365.8 5.8034e-17
9367.325 4.7317e-17
9368.85 3.3008e-17
9370.375 4.1099e-17
9371.9 7.3331e-17
9373.425 9.0874e-17
9374.95 9.3304e-17
9376.475 8.0905e-17
9378.0 4.9406e-17
9379.525 3.616e-17
9381.05 5.4872e-17
9382.575 6.3757e-17
9384.1 6.6318e-17
9385.625 7.2162e-17
9387.15 7.6194e-17
9388.675 7.3646e-17
9390.2 8.1973e-17
9391.725 8.2726e-17
9393.25 7.1086e-17
9394.775 6.5715e-17
9396.3 7.115e-17
9397.825 6.8272e-17
9399.35 6.4904e-17
9400.875 6.5424e-17
9402.4 7.7921e-17
9403.925 7.8481e-17
9405.45 6.4502e-17
9406.975 5.6906e-17
9408.5 6.2219e-17
9410.025 7.4315e-17
9411.55 8.0161e-17
9413.075 7.9918e-17
9414.6 7.8181e-17
9416.125 7.7777e-17
9417.65 6.159e-17
9419.175 7.6016e-17
9420.7 8.4562e-17
9422.225 7.1928e-17
9423.75 5.442e-17
9425.275 4.9469e-17
9426.8 6.1228e-17
9428.325 7.5684e-17
9429.85 8.032e-17
9431.375 7.8162e-17
9432.9 6.5545e-17
9434.425 5.6115e-17
9435.95 6.5802e-17
9437.475 7.6956e-17
9439.0 9.1925e-17
9440.525 7.5555e-17
9442.05 5.0113e-17
9443.575 6.0502e-17
9445.1 7.2536e-17
9446.625 6.7528e-17
9448.15 6.9214e-17
9449.675 6.8201e-17
9451.2 6.1834e-17
9452.725 5.4954e-17
9454.25 6.5373e-17
9455.775 6.8652e-17
9457.3 5.6541e-17
9458.825 5.2658e-17
9460.35 6.1795e-17
9461.875 6.9276e-17
9463.4 6.839e-17
9464.925 5.9816e-17
9466.45 6.0205e-17
9467.975 7.2049e-17
9469.5 6.7844e-17
9471.025 6.2229e-17
9472.55 7.481e-17
9474.075 7.4888e-17
9475.6 5.3304e-17
9477.125 5.1688e-17
9478.65 5.7126e-17
9480.175 5.2118e-17
9481.7 6.4759e-17
9483.225 7.3174e-17
9484.75 7.1441e-17
9486.275 6.7155e-17
9487.8 6.9133e-17
9489.325 7.2694e-17
9490.85 6.1619e-17
9492.375 5.5961e-17
9493.9 6.0804e-17
9495.425 5.9472e-17
9496.95 4.2409e-17
9498.475 4.4113e-17
9500.0 6.3506e-17
9501.525 7.8417e-17
9503.05 9.1017e-17
9504.575 8.0652e-17
9506.1 7.2218e-17
9507.625 7.3556e-17
9509.15 7.3258e-17
9510.675 6.7099e-17
9512.2 5.7441e-17
9513.725 5.3371e-17
9515.25 5.6344e-17
9516.775 6.4727e-17
9518.3 6.731e-17
9519.825 6.6422e-17
9521.35 5.8522e-17
9522.875 5.8143e-17
9524.4 6.1302e-17
9525.925 5.7491e-17
9527.45 6.0024e-17
9528.975 6.3328e-17
9530.5 5.4645e-17
9532.025 5.7297e-17
9533.55 7.0414e-17
9535.075 7.2193e-17
9536.6 7.0892e-17
9538.125 6.533e-17
9539.65 5.7777e-17
9541.175 5.9576e-17
9542.7 6.3708e-17
9544.225 6.628e-17
9545.75 7.0926e-17
9547.275 7.635e-17
9548.8 7.3124e-17
9550.325 6.1591e-17
9551.85 6.411e-17
9553.375 7.3641e-17
9554.9 6.5262e-17
9556.425 6.4716e-17
9557.95 6.6947e-17
9559.475 6.641e-17
9561.0 5.9471e-17
9562.525 6.1542e-17
9564.05 7.8952e-17
9565.575 9.3762e-17
9567.1 1.0341e-16
9568.625 7.8742e-17
9570.15 5.5587e-17
9571.675 6.6329e-17
9573.2 8.0908e-17
9574.725 7.5617e-17
9576.25 6.4198e-17
9577.775 6.1045e-17
9579.3 6.3126e-17
9580.825 6.905e-17
9582.35 7.3286e-17
9583.875 7.1159e-17
9585.4 6.1708e-17
9586.925 5.5224e-17
9588.45 5.3184e-17
9589.975 6.0031e-17
9591.5 7.1601e-17
9593.025 7.5271e-17
9594.55 7.2785e-17
9596.075 6.5119e-17
9597.6 6.7649e-17
9599.125 7.3618e-17
9600.65 6.5923e-17
9602.175 6.6536e-17
9603.7 7.1706e-17
9605.225 7.5345e-17
9606.75 7.0403e-17
9608.275 6.5523e-17
9609.8 6.8845e-17
9611.325 7.0294e-17
9612.85 6.9326e-17
9614.375 7.5295e-17
9615.9 8.0023e-17
9617.425 7.0524e-17
9618.95 6.6909e-17
9620.475 7.1498e-17
9622.0 6.6399e-17
9623.525 6.3177e-17
9625.05 6.7275e-17
9626.575 7.3937e-17
9628.1 7.8955e-17
9629.625 8.3552e-17
9631.15 8.1041e-17
9632.675 6.688e-17
9634.2 6.1648e-17
9635.725 7.0782e-17
9637.25 7.4935e-17
9638.775 7.5739e-17
9640.3 8.1287e-17
9641.825 7.6154e-17
9643.35 6.7524e-17
9644.875 6.7297e-17
9646.4 7.3745e-17
9647.925 7.4802e-17
9649.45 6.2718e-17
9650.975 6.8291e-17
9652.5 7.8816e-17
9654.025 7.1012e-17
9655.55 6.8258e-17
9657.075 7.4053e-17
9658.6 7.4435e-17
9660.125 7.2324e-17
9661.65 7.614e-17
9663.175 8.264e-17
9664.7 9.5204e-17
9666.225 8.9408e-17
9667.75 8.0977e-17
9669.275 8.1144e-17
9670.8 8.2988e-17
9672.325 7.2581e-17
9673.85 7.2385e-17
9675.375 7.7008e-17
9676.9 7.6028e-17
9678.425 8.705e-17
9679.95 1.0159e-16
9681.475 9.8446e-17
9683.0 8.8323e-17
9684.525 8.1367e-17
9686.05 7.7043e-17
9687.575 8.7037e-17
9689.1 8.8568e-17
9690.625 8.2013e-17
9692.15 8.0909e-17
9693.675 7.5297e-17
9695.2 7.6628e-17
9696.725 8.2081e-17
9698.25 8.9228e-17
9699.775 9.1286e-17
9701.3 8.2729e-17
9702.825 7.8271e-17
9704.35 8.8972e-17
9705.875 9.1096e-17
9707.4 9.7082e-17
9708.925 1.0248e-16
9710.45 8.8409e-17
9711.975 8.2941e-17
9713.5 7.3319e-17
9715.025 7.4913e-17
9716.55 9.4071e-17
9718.075 9.4111e-17
9719.6 9.2414e-17
9721.125 9.2067e-17
9722.65 7.3124e-17
9724.175 7.9204e-17
9725.7 8.5831e-17
9727.225 8.1926e-17
9728.75 7.8301e-17
9730.275 7.8108e-17
9731.8 7.1342e-17
9733.325 7.5059e-17
9734.85 7.2805e-17
9736.375 6.4433e-17
9737.9 6.8504e-17
9739.425 7.4912e-17
9740.95 7.76e-17
9742.475 8.0385e-17
9744.0 8.0315e-17
9745.525 8.6444e-17
9747.05 7.6801e-17
9748.575 7.6256e-17
9750.1 7.9645e-17
9751.625 8.5648e-17
9753.15 8.5422e-17
9754.675 8.1813e-17
9756.2 7.9904e-17
9757.725 7.6659e-17
9759.25 7.3672e-17
9760.775 8.3533e-17
9762.3 8.6332e-17
9763.825 8.918e-17
9765.35 9.4321e-17
9766.875 9.3689e-17
9768.4 8.6507e-17
9769.925 8.2747e-17
9771.45 8.6225e-17
9772.975 8.8064e-17
9774.5 9.1121e-17
9776.025 8.9847e-17
9777.55 8.9317e-17
9779.075 8.6157e-17
9780.6 8.0609e-17
9782.125 7.8538e-17
9783.65 8.2515e-17
9785.175 9.0529e-17
9786.7 1.0066e-16
9788.225 1.0315e-16
9789.75 1.0781e-16
9791.275 1.0941e-16
9792.8 8.122e-17
9794.325 6.3573e-17
9795.85 8.2961e-17
9797.375 9.0182e-17
9798.9 7.3734e-17
9800.425 7.273e-17
9801.95 8.6742e-17
9803.475 9.0274e-17
9805.0 8.5157e-17
9806.525 9.2774e-17
9808.05 1.0723e-16
9809.575 1.0296e-16
9811.1 8.3116e-17
9812.625 8.9433e-17
9814.15 1.0319e-16
9815.675 8.9098e-17
9817.2 8.9587e-17
9818.725 9.6126e-17
9820.25 9.7134e-17
9821.775 9.5324e-17
9823.3 8.4116e-17
9824.825 7.8435e-17
9826.35 6.7508e-17
9827.875 7.6817e-17
9829.4 9.5666e-17
9830.925 9.9406e-17
9832.45 9.9775e-17
9833.975 9.378e-17
9835.5 9.2678e-17
9837.025 9.5436e-17
9838.55 8.8861e-17
9840.075 8.2594e-17
9841.6 8.7051e-17
9843.125 8.6182e-17
9844.65 7.0006e-17
9846.175 6.6999e-17
9847.7 8.1037e-17
9849.225 9.5598e-17
9850.75 8.9264e-17
9852.275 8.5556e-17
9853.8 8.8976e-17
9855.325 1.0194e-16
9856.85 1.0445e-16
9858.375 9.9215e-17
9859.9 9.9625e-17
9861.425 9.9412e-17
9862.95 8.8853e-17
9864.475 1.0297e-16
9866.0 9.6675e-17
9867.525 5.9608e-17
9869.05 6.2248e-17
9870.575 7.6211e-17
9872.1 9.6938e-17
9873.625 8.4025e-17
9875.15 6.5624e-17
9876.675 7.09e-17
9878.2 8.3095e-17
9879.725 9.8178e-17
9881.25 1.0208e-16
9882.775 9.965e-17
9884.3 1.0133e-16
9885.825 9.8771e-17
9887.35 8.629e-17
9888.875 7.8597e-17
9890.4 8.4071e-17
9891.925 9.6572e-17
9893.45 1.0255e-16
9894.975 1.0143e-16
9896.5 9.599e-17
9898.025 7.9431e-17
9899.55 6.8983e-17
9901.075 7.716e-17
9902.6 8.3156e-17
9904.125 8.3479e-17
9905.65 9.0098e-17
9907.175 8.9009e-17
9908.7 8.5411e-17
9910.225 9.0883e-17
9911.75 8.8127e-17
9913.275 9.0651e-17
9914.8 9.8633e-17
9916.325 9.7486e-17
9917.85 9.6749e-17
9919.375 9.1729e-17
9920.9 8.7071e-17
9922.425 8.6206e-17
9923.95 9.0051e-17
9925.475 9.0103e-17
9927.0 9.5467e-17
9928.525 9.8622e-17
9930.05 9.2734e-17
9931.575 9.3073e-17
9933.1 9.6511e-17
9934.625 9.4523e-17
9936.15 9.2103e-17
9937.675 9.0087e-17
9939.2 8.1036e-17
9940.725 8.881e-17
9942.25 1.1893e-16
9943.775 1.3574e-16
9945.3 1.0722e-16
9946.825 1.0381e-16
9948.35 7.7023e-17
9949.875 6.0111e-17
9951.4 7.5141e-17
9952.925 1.1993e-16
9954.45 1.2441e-16
9955.975 9.703e-17
9957.5 9.7874e-17
9959.025 1.0911e-16
9960.55 1.0873e-16
9962.075 9.4107e-17
9963.6 7.6938e-17
9965.125 6.6494e-17
9966.65 6.3218e-17
9968.175 7.1891e-17
9969.7 9.5842e-17
9971.225 9.121e-17
9972.75 9.7827e-17
9974.275 9.0701e-17
9975.8 6.7443e-17
9977.325 7.8374e-17
9978.85 9.7971e-17
9980.375 8.9424e-17
9981.9 9.2336e-17
9983.425 7.7572e-17
9984.95 6.0664e-17
9986.475 7.93e-17
9988.0 9.8257e-17
9989.525 9.8475e-17
9991.05 8.8123e-17
9992.575 8.9848e-17
9994.1 8.9157e-17
9995.625 9.1066e-17
9997.15 8.753e-17
9998.675 9.3886e-17
10000.2 9.7884e-17
10001.725 8.2667e-17
10003.25 7.9684e-17
10004.775 8.8132e-17
10006.3 9.161e-17
10007.825 9.3116e-17
10009.35 1.0459e-16
10010.875 8.6998e-17
10012.4 6.5782e-17
10013.925 9.2512e-17
10015.45 7.8529e-17
10016.975 5.1295e-17
10018.5 7.2072e-17
10020.025 7.8383e-17
10021.55 9.4745e-17
10023.075 1.013e-16
10024.6 8.5483e-17
10026.125 1.0028e-16
10027.65 9.8214e-17
10029.175 9.107e-17
10030.7 9.1138e-17
10032.225 8.7366e-17
10033.75 1.0412e-16
10035.275 9.8622e-17
10036.8 7.807e-17
10038.325 7.6512e-17
10039.85 1.0129e-16
10041.375 1.0308e-16
10042.9 1.0439e-16
10044.425 1.0088e-16
10045.95 7.8246e-17
10047.475 8.298e-17
10049.0 8.2154e-17
10050.525 8.6941e-17
10052.05 8.6204e-17
10053.575 8.1014e-17
10055.1 8.2497e-17
10056.625 7.1153e-17
10058.15 8.3213e-17
10059.675 9.1606e-17
10061.2 9.5686e-17
10062.725 1.0334e-16
10064.25 8.5446e-17
10065.775 7.1267e-17
10067.3 8.9936e-17
10068.825 1.0164e-16
10070.35 1.0581e-16
10071.875 1.0731e-16
10073.4 9.3331e-17
10074.925 8.0554e-17
10076.45 6.938e-17
10077.975 5.5578e-17
10079.5 9.6316e-17
10081.025 1.311e-16
10082.55 1.3087e-16
10084.075 1.1076e-16
10085.6 5.5347e-17
10087.125 4.144e-17
10088.65 7.2538e-17
10090.175 8.2114e-17
10091.7 8.7328e-17
10093.225 8.7475e-17
10094.75 8.9321e-17
10096.275 9.9268e-17
10097.8 8.5277e-17
10099.325 7.8171e-17
10100.85 9.629e-17
10102.375 8.4137e-17
10103.9 6.7916e-17
10105.425 6.7205e-17
10106.95 8.607e-17
10108.475 9.4254e-17
10110.0 7.7331e-17
10111.525 8.0836e-17
10113.05 9.8058e-17
10114.575 7.906e-17
10116.1 5.5119e-17
10117.625 6.1193e-17
10119.15 8.1072e-17
10120.675 1.0548e-16
10122.2 1.189e-16
10123.725 1.0159e-16
10125.25 9.0626e-17
10126.775 8.5584e-17
10128.3 6.9524e-17
10129.825 6.0224e-17
10131.35 5.4516e-17
10132.875 6.6904e-17
10134.4 8.0469e-17
10135.925 7.333e-17
10137.45 6.5379e-17
10138.975 8.1425e-17
10140.5 7.8042e-17
10142.025 8.3276e-17
10143.55 7.6917e-17
10145.075 5.7522e-17
10146.6 5.3444e-17
10148.125 6.6719e-17
10149.65 6.6077e-17
10151.175 4.144e-17
10152.7 5.1934e-17
10154.225 8.2586e-17
10155.75 7.768e-17
10157.275 8.1981e-17
10158.8 7.0346e-17
10160.325 5.5507e-17
10161.85 5.7918e-17
10163.375 7.2739e-17
10164.9 8.3138e-17
10166.425 7.7082e-17
10167.95 7.6184e-17
10169.475 8.1737e-17
10171.0 6.4158e-17
10172.525 3.0763e-17
10174.05 3.3087e-17
10175.575 2.4413e-17
10177.1 4.7115e-17
10178.625 7.4545e-17
10180.15 9.8606e-17
10181.675 1.1716e-16
10183.2 9.2155e-17
10184.725 6.3229e-17
10186.25 8.4231e-17
10187.775 9.2967e-17
10189.3 9.0302e-17
10190.825 6.2804e-17
10192.35 4.017e-17
10193.875 5.2491e-17
10195.4 7.3614e-17
10196.925 7.4259e-17
10198.45 8.6098e-17
10199.975 6.9081e-17
10201.5 4.343e-17
10203.025 6.5291e-17
10204.55 7.3367e-17
10206.075 4.1591e-17
10207.6 3.8371e-17
10209.125 1.0639e-16
10210.65 1.0632e-16
10212.175 7.011e-17
10213.7 7.2458e-17
10215.225 9.9506e-17
10216.75 9.1801e-17
10218.275 7.8731e-17
10219.8 6.4461e-17
10221.325 9.586e-17
10222.85 1.1812e-16
10224.375 8.5395e-17
10225.9 6.393e-17
10227.425 6.5094e-17
10228.95 8.9466e-17
10230.475 1.0709e-16
10232.0 9.6151e-17
10233.525 7.4124e-17
10235.05 5.3286e-17
10236.575 3.877e-17
10238.1 3.1811e-17
10239.625 2.7602e-17
10241.15 2.8498e-17
10242.675 6.0211e-17
10244.2 8.1034e-17
10245.725 6.083e-17
10247.25 7.1201e-17
10248.775 6.9966e-17
10250.3 5.9557e-17
10251.825 7.1719e-17
10253.35 4.8382e-17
10254.875 4.4685e-17
10256.4 5.5644e-17
10257.925 9.2922e-17
10259.45 9.3006e-17
10260.975 9.2429e-17
10262.5 5.2846e-17
10264.025 1.4854e-17
10265.55 1.9438e-17
10267.075 2.4838e-17
10268.6 5.2721e-17
10270.125 7.5765e-17
10271.65 4.9834e-17
10273.175 3.4084e-17
10274.7 3.3072e-17
10276.225 9.4935e-17
10277.75 1.1229e-16
10279.275 1.0434e-16
10280.8 7.7708e-17
10282.325 1.0859e-16
10283.85 1.3605e-16
10285.375 3.5868e-17
10286.9 6.797e-17
10288.425 1.6403e-16
10289.95 8.9812e-17
10291.475 2.1459e-17
10293.0 1.2041e-16
10294.525 9.6703e-17
10296.05 -1.1327e-17
10297.575 4.5452e-17
10299.1 1.1401e-16
10300.625 1.0611e-16
10302.15 7.7323e-17
10303.675 1.1509e-16
10305.2 1.7361e-16
10306.725 7.3037e-17
10308.25 2.7906e-17
10309.775 3.954e-17
10311.3 5.3978e-17
10312.825 9.2563e-17
10314.35 8.1722e-17
10315.875 1.0159e-16
10317.4 9.0372e-17
10318.925 5.1867e-17
10320.45 8.1831e-17
10321.975 7.8959e-17
10323.5 3.1054e-17
10325.025 6.5106e-17
10326.55 9.5246e-17
10328.075 7.9982e-17
10329.6 9.1675e-17
10331.125 1.0433e-16
10332.65 8.806e-17
10334.175 6.3633e-17
10335.7 4.5282e-17
10337.225 7.4509e-17
10338.75 1.2965e-16
10340.275 1.5806e-16
10341.8 1.7614e-16
10343.325 1.7074e-16
10344.85 1.2661e-16
10346.375 3.616e-17
10347.9 2.6167e-17
10349.425 8.9118e-17
10350.95 1.0893e-16
10352.475 9.8726e-17
10354.0 4.7222e-17
10355.525 5.5019e-17
10357.05 1.1669e-16
10358.575 8.0243e-17
10360.1 5.0518e-17
10361.625 1.0509e-16
10363.15 8.2432e-17
10364.675 1.4411e-17
10366.2 2.5582e-17
10367.725 4.1809e-17
10369.25 2.281e-17
10370.775 -5.749e-18
10372.3 1.3248e-17
10373.825 9.8713e-17
10375.35 1.2197e-16
10376.875 4.8824e-17
10378.4 5.1254e-17
10379.925 9.3214e-17
10381.45 1.2857e-16
10382.975 7.5391e-17
10384.5 1.8147e-17
10386.025 4.7136e-17
10387.55 8.518e-17
10389.075 6.9718e-17
10390.6 5.7367e-17
10392.125 1.2169e-17
10393.65 5.6913e-17
10395.175 6.6758e-17
10396.7 3.0317e-17
10398.225 6.7766e-17
10399.75 1.0045e-16
10401.275 1.2057e-16
10402.8 7.0077e-17
10404.325 3.3212e-17
10405.85 9.8475e-17
10407.375 9.6359e-17
10408.9 8.8011e-17
10410.425 5.958e-17
10411.95 -1.797e-17
10413.475 1.1135e-17
10415.0 1.2078e-16
10416.525 1.3062e-16
10418.05 3.849e-18
10419.575 3.9793e-17
10421.1 4.2261e-17
10422.625 1.1178e-17
10424.15 1.1216e-16
10425.675 9.9002e-17
10427.2 4.375e-17
10428.725 4.4797e-17
10430.25 1.189e-17
10431.775 5.1262e-17
10433.3 1.0648e-16
10434.825 5.4249e-17
10436.35 3.0597e-17
10437.875 8.1039e-17
10439.4 2.8497e-17
10440.925 1.3654e-17
10442.45 9.343e-17
10443.975 5.7275e-17
10445.5 2.7977e-17
10447.025 2.1233e-17
10448.55 1.01e-17
10450.075 3.6149e-18
10451.6 4.1927e-17
10453.125 6.328e-17
10454.65 6.7726e-17
10456.175 4.8574e-17
10457.7 8.5992e-17
10459.225 6.2316e-17
10460.75 4.6625e-17
10462.275 5.8428e-17
10463.8 4.7418e-17
10465.325 6.66e-17
10466.85 7.8277e-17
10468.375 4.6116e-17
10469.9 2.2805e-17
10471.425 -1.6978e-17
10472.95 -1.3545e-17
10474.475 -2.1224e-17
10476.0 -2.3725e-17
10477.525 5.5801e-17
10479.05 6.8038e-17
10480.575 1.8348e-17
10482.1 2.4192e-17
10483.625 6.0669e-17
10485.15 7.9364e-17
10486.675 6.1975e-17
10488.2 4.5115e-17
10489.725 2.8843e-17
10491.25 3.1214e-17
10492.775 5.2468e-17
10494.3 4.1133e-17
10495.825 6.4632e-17
10497.35 6.8186e-17
10498.875 4.0726e-17
10500.4 3.3723e-17
