 texplosion  fnickel    Pspin  log(Bfield)      Mns  thetaPB   mejecta    kappa  kappagamma      vejecta  temperature    alpha  cutoff_wavelength  log(nhhost)      A_V         MJD0   kenergy  mnickel           TSD   log(L0)  Peak_mag     Peak_MJD  log(E_rad)  log(Peak_lum)  Rise_Time    E_fold  tau_1  delta_m15     r_peak     frac 
    -2.2189  0.01043  2.41242     14.53823  1.86329  1.22352   8.06769  0.05049       0.044   8577.89109   3995.34663  1.14096         3966.43397     19.45691  0.01591  58257.24594   3.54109  0.08411   84439.44595  46.84767  18.35667  58283.48047    50.89968       44.45065   12.22929  23.54582   27.0    0.48893  -21.15463  0.99789 
   -2.11692  0.00506  1.65567      14.8106  1.79741  0.50948  21.74346  0.01686     0.02245   7668.31124   4210.03513  0.87895         4585.90185     16.45702    2e-05  58257.34793   7.62703  0.10997   10944.62229  48.04635  18.29831  58283.48047    50.91667       44.45769    10.8098  24.24255   26.5    0.50221  -21.18031  0.99888 
   -1.47438  0.01418  2.11897     14.62458  1.71594  0.86006   9.29449  0.05827     0.03516   9082.75644   4267.33935  1.43671          3968.4197     18.04354  0.00061  58257.99046   4.57392  0.13179   40308.56399   47.2457  18.33003  58284.31361    50.98543       44.53657   10.59457  23.55331   27.5    0.45133  -21.19042  0.99732 
   -1.32251  0.01808  0.93734     14.68722  1.82617  0.86844   7.02848  0.04432     0.19987   5669.84174   3532.30293  1.31891         4332.47446     19.66446  0.02566  58258.14233   1.34782  0.12705    6290.93085  48.78788  18.32235  58285.44141    50.85123        44.3749   10.59457  27.78948   27.5    0.40113  -21.06544  0.99985 
   -1.99443   0.0155  0.78154     14.61768  1.75308  0.98205  23.43684   0.0173     0.03742   7971.69178   4172.32004  0.83808         4373.96146     19.97408  0.05234  58257.47041   8.88438  0.36335    5783.03133  48.96458  18.29527  58284.31361    50.91042       44.45071   10.54861   25.2265   24.0    0.48682  -21.57929  0.99976 
   -1.48109  0.08286   0.9211     14.59512  1.77706  1.49334   4.56309  0.09986     0.08083   7894.08719   3974.93142  1.08445          4367.7789     18.10155   0.0007  58257.98375   1.69625  0.37812      9034.057  48.63405  18.34556  58284.31361    50.90752       44.47047   12.12128  22.22234   26.5    0.50495   -21.6116  0.99963 
   -2.34125  0.13136   3.5873      14.4541  1.71548  1.34676   6.27162  0.08089      0.0114   9220.67626   4911.53023  1.99227         3728.87961     16.90444    4e-05   58257.1236   3.18077  0.82384  253246.50308  45.99015  18.37146  58284.31361    50.96216       44.51911   10.59457  22.79389   28.5    0.44331   -21.1694    0.947 
   -3.13736  0.01561  2.35379      14.4599   2.0548  1.39318    5.8458  0.06535      0.0218  10983.21223   3603.22464  0.72795         2349.58708     20.23806  0.09611  58256.32748   4.20659  0.09125  127150.98868  46.73376  18.30362  58283.48047    50.94336       44.50281   10.54861  23.59926   27.5    0.51405  -21.24331  0.99803 
   -2.55436  0.05369  0.72482     14.57952  1.90455  1.51093   3.50786  0.09106       0.076   6431.37732   4634.28874  0.82814         4530.04071     18.21101   0.0009  58256.91048   0.86552  0.18833    6442.06634  49.01916  18.32725  58284.31361    51.04435       44.63848    9.71812  21.85859   27.0    0.47648  -20.89512  0.99992 
   -2.49975  0.01163   3.1509     14.63978  2.09909   1.0076   3.96409  0.14724     0.06391   10995.7082   4183.80943  1.13599         3733.10408     18.62911  0.00237   58256.9651   2.85902  0.04611  101659.00493  46.58686  18.35346  58285.40234    50.88174       44.41795   10.10106  25.71015   26.5    0.47707  -21.21746  0.99826 
   -1.68105   0.0282  1.59801       14.493  1.65423  1.36136   3.97448  0.09558     0.46606   6749.70083    3632.5086  1.41601         4201.16557     19.27076  0.01036   58257.7838   1.08013  0.11208   40510.31587  47.47272  18.32311  58284.31361     50.8831       44.40932   12.12128  24.51058   27.0    0.43197  -21.14383  0.99887 
   -1.23341  0.00514  0.74085      14.7317  1.62687  0.68271   6.84047  0.04716     0.34089    5380.0556   3831.89636  1.40544         4457.72904     16.40528    1e-05  58258.23143    1.1811  0.03516    2852.59064  49.28549  18.40069  58284.31361    50.77096        44.2515   13.43881  27.67418   27.0    0.42426  -21.04241  0.99998 
   -2.05166   0.0015  1.32145     14.40988  1.51044  1.55466    4.8509  0.07103     0.12699   6545.29326    3295.7321   1.2237         4196.48837     19.12575  0.00742  58257.41318   1.23967   0.0073    37091.3651  47.63657  18.34744  58283.48047    50.99673       44.57942    8.40664  23.67034   27.0    0.45217   -21.1495  0.99995 
   -1.91992  0.01163  2.02921     14.68645  1.68426  0.67603  16.19293  0.02466     0.01124   7757.57727   4086.76243  1.30077         4123.64189     16.18964    1e-05  58257.54493   5.81306  0.18827   27289.08546  47.44461  18.32179  58283.48047    51.03712       44.61498    8.40664  23.67034   27.5    0.49587   -21.1101   0.9964 
   -1.85038  0.00922   2.8414     14.73026  1.91302  0.68288   5.09284  0.06571     0.01031    6176.8972   4961.94207  1.72698         4075.06843     17.40277  0.00014  58257.61446   1.15912  0.04697   49669.06129  46.94741   18.3099  58284.31361      51.059       44.64709    9.71812  21.85859   28.5    0.42122  -21.07478  0.99837 
   -1.72429  0.01022   0.9335     14.50798  1.67238  1.17177   4.57903  0.05607     0.07922   5413.39336   4670.76096  1.10393         4434.54123     19.14632  0.00778  58257.74056   0.80046  0.04679    13044.2368  48.43653  18.36718  58285.40234    51.07039       44.64186    9.71812  22.62342   27.0    0.47674  -21.09186  0.99992 
   -1.24687  0.00548  2.08357     14.84954  1.46487  0.34713   5.69967  0.07596     0.12621   7607.62711   4763.55126  1.58143         4215.98087     19.22981  0.00943  58258.21797   1.96777  0.03124   11807.29207  47.72488  18.30966  58283.48047    51.10201       44.72804    8.40664  20.17463   27.0    0.44671  -21.17702  0.99917 
   -2.04345  0.08672  0.95693     14.60499  1.84377  1.02539   3.80676  0.07621     0.01873   6348.52771   4386.72309  0.86425         4723.33627     19.53852   0.0192  58257.42139   0.91523  0.33011    9667.13713  48.58749  18.34659  58284.31361    50.92712       44.47466   12.12128  23.65383   25.5    0.49416  -21.26549  0.99953 
   -2.23787  0.00608  1.35173     14.44527  1.62176  1.35435    7.8953  0.04167     0.04724   6606.95548   4289.44264  1.03001         4430.83604     18.94452  0.00489  58257.22698   2.05588  0.04803   35403.58555  47.66801  18.34237  58283.48047    50.89529       44.43976    9.28309    25.322   27.0    0.48324  -21.11284  0.99967 
   -1.51026  0.00607  1.19728     14.59201  1.64404  0.81645   6.27783   0.0509      0.0143   6358.32949   4047.67216  1.21629         4337.33277     20.11086  0.07171  58257.95458   1.51399  0.03812   14325.10946  48.17227  18.30063  58283.48047    50.85676       44.39361   13.11886    23.513   26.0    0.40431  -21.30733  0.99983 
   -2.24739  0.00144  2.01489     14.59354  1.75455  0.86072   4.86591  0.07664     0.31373   7774.96105   3743.05748  1.07711          4265.2546     19.53353  0.01898  58257.21746   1.75464  0.00701   42993.05113  47.27111  18.36122  58285.40234    50.95817        44.5114    8.40664  24.62549   26.5    0.50338  -21.15652  0.99987 
   -1.98732  0.00851   1.5449     14.58206  1.75081  0.98285  10.33347  0.03473     0.05707   7270.07702   4125.40672  1.03788         4399.33975     18.12697  0.00074  58257.47752     3.258  0.08792   26590.94229  47.70955  18.33144  58284.31361    51.14347       44.75073    7.31677  22.57599   26.5    0.50064  -21.20149  0.99926 
   -1.90866  0.00296  2.52021     14.48116  1.78067  1.38963    7.2919  0.05136     0.01047   7196.87582   4007.33977  1.37323         4156.78646     18.29751   0.0011  58257.55619   2.25297  0.02161  114538.51556   46.6576  18.34261  58284.31361    50.84274       44.37117   12.22929  24.40257   27.5     0.4415  -21.11846  0.99935 
   -2.01795  0.00916  1.34142     14.58415  1.69873  0.92655  13.61517  0.02484      0.0419   6722.85955   4722.44393  1.06023         4401.34467     19.19209  0.00865  58257.44689   3.67078   0.1247   19265.45288  47.95906  18.36969  58284.31361    50.93123       44.47198   12.12128  23.65383   27.0    0.48237  -21.18949  0.99929 
   -1.88806  0.01809  1.19425     14.63884  1.88975  1.18571  32.21513  0.01229     0.06734   7887.49919   4090.28178  0.93257         4606.48682     18.33873  0.00121  58257.57678  11.95544   0.5829   13204.63359  48.27033  18.36532  58283.48047     50.9602       44.52511    9.28309  23.56359   27.0    0.47814  -21.10901  0.99857 
   -1.51947  0.00249  1.11818     14.64268  1.92194  1.45254  22.81999  0.03009     0.03106  10754.06889   5817.77202  0.95826         3963.49827      18.2573    0.001  58257.94537  15.74303  0.05682   11566.64024  48.39236  18.30006  58284.31361    50.95166       44.49785   12.12128  23.65383   27.0     0.5181   -21.4232   0.9999 
   -1.40304  0.00364  0.74902     14.77815  2.01749  0.79188   7.77357  0.03368       0.278   5163.59121   3578.62837  1.15502         4674.90951      18.4997  0.00176  58258.06181   1.23638  0.02831     2919.5204  49.35936  18.33487  58283.48047     50.8496       44.38846   12.22929  24.40257   26.5    0.46618  -20.99462  0.99999 
   -2.05231  0.00456  1.79366      14.6135  1.78345  0.87627  20.20494  0.01836     0.02939   7739.94183   5443.25492  0.96938         4379.73779      16.4854    2e-05  58257.41253   7.22038   0.0922   31590.92553  47.51306  18.36867  58283.48047    50.92277       44.45333    9.28309    25.322   26.0    0.49192  -21.16834  0.99882 
   -2.46271  0.00285  1.10244     14.65496  1.82968  0.70707  19.62082  0.02059     0.07916   8818.72559   4362.40816  0.80431         3725.91864     20.50926  0.17947  58257.00213    9.1024  0.05584   10115.44171  48.44152  18.32353  58283.48047    50.82634       44.35851   14.14149  22.49037   26.5     0.5077  -21.25132  0.99983 
    -2.4897  0.00525  1.53149     14.44447  1.60325  1.30432   8.39797  0.05031     0.03649   7834.29438   3790.38417  0.98677         4315.28043     17.58439  0.00021  58256.97514   3.07469  0.04405   45091.75485  47.44952  18.34914  58284.31361    50.94873       44.51587   10.59457  23.55331   27.0      0.455  -21.10046  0.99955 
   -2.57962  0.02141  0.80977     14.61122  1.63856  0.71932   7.66261  0.03825     0.01688   7034.02396   4138.79049  0.60122         5187.30398     16.55448    2e-05  58256.88523   2.26158  0.16406    5978.14461  48.89001  18.34986  58284.31361    50.99717       44.58044   10.59457  22.79389   26.5     0.5328   -21.0405   0.9998 
    -1.7216  0.01902  1.68257      14.7688  1.52561  0.44545   5.90403  0.06042     0.10812   7710.63113   4339.66856  1.09901         4113.45726     18.73975  0.00305  58257.74324    2.0939   0.1123    11630.7826  47.93473  18.37156  58284.31361    50.84751       44.36381   10.91781  26.15476   26.0    0.51953  -21.13628  0.99836 
   -1.61481  0.18568  0.92948     14.62766  1.73957   1.2734   5.90408   0.1068     0.01188  10537.41665   6985.75541  0.92675         4118.13259     18.34117  0.00122  58257.85003   3.91064  1.09627     7752.0323  48.68339  18.35343  58284.31361    51.02858       44.59257    9.71812  23.67034   24.0    0.48855  -21.28494  0.99895 
    -1.7659  0.00653   1.5523     14.52809  1.76138  1.40275  20.77736    0.021     0.04236   8490.21277   4858.30089  0.96677         4368.87881      16.4045    1e-05  58257.69894   8.93418  0.13559   34628.79656  47.59331   18.3448  58284.31361    50.91375       44.47074   12.12128  23.65383   25.5    0.51393  -21.17875   0.9989 
   -1.90268  0.04028  2.01958     14.54343  1.50514  0.82189   7.23026  0.07454     0.02404   9043.96369   3101.39169  1.58491         3852.54206     19.70414  0.02811  58257.56216   3.52776  0.29125   46671.05588  47.16685  18.31184  58285.40234    50.84805       44.38504   13.11886    23.513   28.5      0.429  -21.17891  0.99323 
   -2.18244  0.07053   1.6163     14.67525  1.64031  0.64445   6.86517  0.06403     0.01188   8475.07443   4335.16761  0.90741         4334.13203     18.49458  0.00174  58257.28241   2.94148  0.48419    17753.9939  47.81743  18.34929  58283.48047    51.05348       44.65488    8.40664  21.85859   26.5    0.46238  -21.17711  0.99461 
    -2.5786  0.00506  2.89362     14.77241  2.12743  0.73575   9.23858  0.05551     0.29035   8975.73381   4780.06985  1.36168         3786.34328     17.60245  0.00022  58256.88624   4.43989   0.0467   47176.96312  47.00009  18.34909  58285.40234    51.05051       44.64252    9.71812  21.85859   28.0    0.44118  -21.10523  0.99858 
   -2.11202  0.00529  0.93509     14.57632  1.78918  1.24875  10.65086  0.03489     0.07103   6909.15333   3354.96723  1.00067         4346.08753     17.09944    7e-05  58257.35282   3.03292  0.05635   10221.98162  48.57026  18.35287  58284.31361    51.01625       44.60606   10.59457  21.74698   26.0    0.46269  -21.16101  0.99993 
   -1.72248  0.00404  1.13653     14.52534  1.59605  0.83457  10.08663  0.04389     0.10646   8367.62264   4073.70895  1.12887         3789.91744     20.56138  0.20235  58257.74236   4.21286   0.0408   17035.53882  48.12937  18.34231  58284.31361    51.04147       44.63591    9.71812  22.60528   27.0    0.43593  -21.35063  0.99982 
   -2.03896   0.0177   1.6467     14.46372  1.62681   1.3138   4.48981  0.08326     0.08391   7092.50853   3629.53523  1.16842         4320.26363      16.5707    2e-05  58257.42588   1.34727  0.07948   48410.39748  47.36201  18.36535  58284.31361    50.88246       44.41141   13.11886    23.513   27.0    0.46375  -21.15949  0.99905 
    -2.0811  0.02042  2.06001     14.59888  2.00551  1.37436   6.63356  0.06722     0.02028   8268.43261   4536.24956  1.14152          4129.5006     18.31799  0.00116  58257.38374   2.70533  0.13544    50121.1574  47.24331  18.32888  58284.31361    51.03503       44.61241    9.71812  22.60528   27.0    0.46929  -21.17159  0.99807 
   -2.10845  0.00799  2.25688     14.42779  1.54096  1.20336    7.1418  0.07565     0.05527   9607.55297   3469.06348  1.35734         3764.29495     17.10602    7e-05  58257.35639   3.93242  0.05704  101634.36779  46.74258  18.35934  58284.31361    50.98693       44.51837   12.12128  23.68994   27.5    0.46494   -21.1721  0.99831 
   -2.12068   0.0568  1.87641     14.36756  1.37987  1.42132   4.70461  0.11585     0.15228   9551.71866   4717.57061  1.35535         3934.38652      18.2727  0.00104  58257.34416   2.56043  0.26724   83020.46547  46.94284   18.3658  58285.40234    51.00995       44.56925   10.59457  22.79389   27.0    0.46711  -21.17621  0.99398 
   -1.38836  0.00105  1.81238      14.5742  1.76363  1.13567  12.05743  0.03625     0.02218   7494.08487   4185.19511  1.43429         4078.21657     16.56456    2e-05  58258.07648   4.03942  0.01272   38221.92047  47.41644  18.35461  58285.44141    51.12392        44.7083   10.12014  21.82904   27.5    0.43717  -21.09232  0.99984 
   -2.19729  0.00799  1.13809     14.48654  1.53207  1.19817   24.7334  0.02413     0.06681    9426.4655   3682.47631  1.02422          3835.1169     19.06283  0.00642  58257.26756  13.11018  0.19756   19604.51664  48.04941  18.36858  58284.31361     50.9261       44.47681   10.59457  25.18054   27.0    0.45984  -21.14132  0.99925 
   -3.18158  0.00174  0.99014     14.55933  1.88479  1.06902  29.48347  0.01053     0.41328    7410.9111   3324.45184  0.50134         5735.77967     18.44581  0.00155  58256.28326   9.65937  0.05131   13055.89364  48.43691  18.34763  58284.31361    50.96012       44.53078   12.12128  21.26719   27.0    0.51428   -21.0086  0.99991 
   -2.59592  0.00469   1.2634     14.36025  1.38165  1.49183  10.52457  0.04742      0.0263    8674.2376   4443.86798  0.95416         4210.62407     18.40046   0.0014  58256.86893   4.72383  0.04939   38975.96531  47.61536  18.34364  58283.48047    50.90294       44.45666    10.8098  23.65383   27.0    0.45889  -21.06174  0.99962 
   -1.69933  0.03128  1.99274     14.63995  1.30346  0.49013    7.6455  0.06851     0.10813   8746.19541   4677.84818  1.57613         3996.98239     18.67296  0.00262  58257.76551   3.48876  0.23912   25229.54771  47.38313  18.33832  58284.31361    51.02157       44.59109   10.10106  22.24048   28.0    0.41357  -21.16515  0.99304 
    -1.2085  0.01889  0.72175     14.44456  1.40447  1.46486  12.84723   0.0321     0.07434   6573.03487   3989.74755  1.33811         4434.62953     18.85873  0.00401  58258.25634   3.31107  0.24275    8769.48006  48.75661  18.33714  58284.31361     50.9408       44.48669   12.12128  24.24255   27.5    0.40607  -21.12665  0.99982 
   -2.11895  0.04399  3.29303     14.45029  1.74701   1.3431   6.54403   0.0626     0.01673   8480.48198   3897.33631  1.50164         4006.21571     18.70569  0.00282   58257.3459   2.80746   0.2879  221162.74752  46.13124  18.34085  58284.31361    50.84966        44.3702   13.11886  25.26519   28.0    0.47898  -21.17378  0.98428 
   -1.66841  0.00445    1.262     14.58222  1.77928  1.02255   7.09144  0.03923     0.03477   5704.89598   8350.22087  1.14395         4605.83596     17.77778  0.00033  58257.79643   1.37676  0.03152   18018.92214  48.06125  18.38511  58284.31361    50.92091       44.45751   12.12128  23.65383   26.0    0.44795  -21.14901  0.99987 
   -1.33174  0.01369  0.77418     14.70049  1.74524  0.81264  16.42187  0.01969     0.11305   6328.70255   4558.09275  1.10784         4433.50133     19.27639   0.0105   58258.1331   3.92355  0.22482     3858.1151  49.14664   18.3846  58284.31361    50.85267         44.369   10.91781  26.15476   27.0    0.45618  -21.02624  0.99987 
   -1.33637  0.00323  0.74402     14.39549  1.27695  1.07224  11.81642  0.03059     0.08815   6353.88186   4661.97861  1.27478         4424.15573     19.92453  0.04669  58258.12848   2.84571  0.03822   10621.42338  48.60567  18.30675  58284.31361    50.98681         44.559    8.78958  24.04681   27.5    0.40065  -21.11607  0.99995 
   -1.51911  0.01108  1.45084     14.44386  1.48688  1.24146  12.65239  0.02785     0.10293   6483.94766   3687.39411  1.42877         4259.52027     18.30929  0.00113  58257.94574   3.17306  0.14024   37637.05562  47.54226  18.34512  58285.40234     51.1568       44.77666    8.06371  21.82904   27.0    0.40129  -21.18339  0.99867 
   -2.04435  0.06934  1.02055     14.61247  2.05252  1.30068   4.13241  0.08288     0.12769   7737.85453   4899.79352  0.80652         4293.07386     20.28361  0.10674   58257.4205   1.47595  0.28654   11825.83384  48.49063  18.37292  58284.31361    50.89103       44.42489   12.12128  24.24255   25.5     0.5419  -21.35894   0.9996 
   -1.47466  0.00147  1.90325     14.49914  1.74051  1.41983  10.41526  0.02744     0.02465   5651.30355   3380.42344  1.49533         4351.71347     19.26484  0.01022  58257.99018   1.98424  0.01526   58777.64585  47.18132  18.36735  58284.31361    50.82919       44.34612   14.14149  24.99496   27.0    0.43982  -21.14744  0.99976 
   -2.01402  0.02094  1.46074     14.47631  1.62151  1.17672   3.64691  0.10504     0.04078   7468.30651   5242.02013  1.02539         4222.58567     17.40403  0.00014  58257.45083   1.21338  0.07638   35831.15321  47.59536  18.36238  58284.31361    50.97421       44.54045   12.12128   22.0266   26.5    0.45813  -21.18476  0.99934 
   -1.21964  0.00324  0.98733     14.70113  1.48298  0.49642  10.27987  0.04902     0.02127   9590.70349   6501.27395  1.42397         2823.86817     20.37546  0.13188  58258.24521   5.64047  0.03334    5316.38019  48.72544  18.36231  58284.31361    50.94738       44.47492    10.8098  24.51058   26.5    0.46749  -21.25362   0.9999 
   -3.40971  0.00128   0.9519     14.61236  1.63006  0.79018   9.12458  0.11176     0.07998   15298.6929   6179.55601  0.25765         2171.70954     19.85151  0.03947  58256.05513   12.7394  0.01164    8175.00601  48.61138  18.33982  58284.31361    50.92548       44.47305   10.59457  23.74905   24.0    0.52705  -21.12033  0.99998 
   -1.22794  0.00351  1.07466     14.64497  1.95801  1.18823   5.29579  0.05842     0.02292   5570.68437    3889.8956  1.29314         4515.32763     18.66678  0.00258   58258.2369   0.98034   0.0186   10770.54707  48.46588  18.33866  58284.31361    51.17039       44.78834    8.08085  21.81191   26.5    0.45495  -21.11544  0.99997 
   -2.26073  0.01532  1.01308     14.57985  1.90883  1.50965  16.94211  0.02011     0.04386   7013.19581   4592.56659   0.8641         4463.60702     18.87303  0.00415  58257.20411    4.9708  0.25956   12594.32371  48.43815  18.35288  58285.40234    50.95149       44.48831   12.12128  23.65383   26.5    0.49772  -21.06651  0.99962 
   -1.74349  0.02079  1.54064     14.59048  1.91639  1.22352   8.07801  0.06118     0.11099   8960.97912   3500.13665  1.07625         4123.93532     20.16023  0.08035  58257.72135   3.86939   0.1679    27844.2868  47.73119  18.32968  58283.48047     50.9482       44.50371   12.12128  22.03688   26.5    0.45713  -21.27062  0.99887 
   -1.95335  0.00652  1.67339     14.41119  1.65234  1.42467  13.88375  0.03037     0.39368   8435.80235    4347.8214  1.19184         3826.08258     20.47673  0.16652   58257.5115   5.89368  0.09054   64673.65329  47.22902  18.34917  58285.40234    51.00516       44.57542    9.71812  22.60528   27.0    0.47783  -21.32386  0.99881 
   -2.05604  0.01315  0.80527       14.661  1.79607  0.82897    6.9667  0.04337      0.1061   6105.49422   3296.59023  0.92895         4480.69536     17.16948    8e-05   58257.4088   1.54916   0.0916    5152.52258  48.99926  18.32585  58285.44141    50.98615       44.51998   10.59457  23.74905   25.5    0.46117  -21.24484  0.99993 
   -1.84888  0.00477  1.99717     14.69463  1.71426  0.65153   5.79402  0.07723     0.11315   8448.51128   5379.60957   1.1947         4095.74241     16.26259    1e-05  58257.61597   2.46699  0.02766   25909.83353  47.48863  18.30225  58284.31361    51.00768       44.58182   10.10106  22.24048   27.0    0.47126  -21.16863   0.9995 
   -1.70284  0.00654  0.99026     14.47335  1.30028  0.97602   4.65337  0.16206     0.08502  11543.89923   6511.25452  1.21327         3744.52168     17.71476  0.00029    58257.762   3.69913  0.03045   13386.17451  48.26473  18.35979  58283.48047    50.84907       44.36591   14.78969  25.61457   25.5    0.45432  -21.22851  0.99991 
   -1.92703  0.00103  1.88424     14.61442  1.96178  1.10517  17.59048  0.02057     0.04337    7306.9649    4629.5661  1.08737         4414.78649     19.44073  0.01533  58257.53781   5.60246  0.01815   38185.88563  47.42932  18.31001  58284.31361    50.98321       44.54426   10.59457  22.79389   26.5    0.47975  -21.13539  0.99978 
   -2.34748  0.01907  0.91344     14.71395  2.06161  1.04126   22.5589  0.01717     0.03754   7516.51141   4026.85335   0.8059         4533.13593     16.93359    5e-05  58257.11736   7.60287  0.43011    5963.13865  48.88622  18.31651  58285.40234    51.05917       44.61223    8.78958  24.24255   27.0    0.46187  -21.02681  0.99968 
   -1.13851  0.00736  1.28776     14.47564  1.58413  1.35733  10.07507  0.02926     0.21465   5661.23962   4378.01307  1.41593         4308.73136     17.26448   0.0001  58258.32633   1.92619  0.07416   27288.94159  47.81298  18.34791  58284.31361    50.98108       44.53629   10.10106  24.04681   27.0    0.42477  -21.12955  0.99959 
   -1.63612  0.00799  1.68911     14.44327  1.46586  1.10773   4.89743  0.08575     0.04775   7632.84835   4144.61113  1.35886         4153.27139     18.73895  0.00305  58257.82873   1.70204  0.03914   50430.40923  47.27693  18.32865  58283.48047    51.00505       44.58405    8.78958  22.24048   27.0     0.4442  -21.16422  0.99939 
   -2.14953  0.00531  1.32747     14.71025  1.49387  0.49171   7.37213  0.04619     0.07796   6997.17809   3192.74474  0.96694         4491.89254     16.82855    4e-05  58257.31532   2.15311  0.03911     9282.7765  48.22943  18.29757  58283.48047    50.89831       44.44358   12.12128  23.65383   26.5    0.50112  -21.14155  0.99969 
   -1.69709   0.0127  1.80834      14.6482  1.96873  1.10582   5.90519  0.07237     0.44257   7181.85174   3197.69361  1.33906         4331.13537     16.57481    2e-05  58257.76776   1.81691  0.07498   30211.41257   47.5683  18.33507  58284.31361    50.93678       44.47754   12.12128  23.65383   27.0    0.40229  -21.16073  0.99926 
   -2.58468  0.00191  1.46218     14.59626  1.77433  0.91873  21.15389  0.02044     0.39864   8799.48208   3967.07334  0.78491         3990.77377     18.36692  0.00129  58256.88016   9.77084   0.0403   22611.84298  47.83354  18.33823  58284.31361    50.93369       44.48448   12.22929  23.68728   26.0    0.50046  -21.07397  0.99971 
   -1.84423   0.0031  1.69496      14.5023  1.81833  1.11054   3.78444  0.11317     0.02448   8637.20906   5864.39777  1.24006         3679.02087     20.61515  0.22902  58257.62061   1.68413  0.01172   47996.09713  47.38899  18.38194  58283.48047    50.90468       44.44288   12.12128  23.65383   27.0    0.47331  -21.34667  0.99986 
   -2.25606  0.01312  1.54357      14.4007  1.48992  1.54881  12.79443  0.03488     0.01207   7889.98251   5577.15252  1.12586         4050.26175     18.32163  0.00117  58257.20878   4.75117  0.16783   52075.95744  47.34832  18.39617  58285.40234    50.90199       44.43833   12.12128  24.24255   27.5    0.44762   -21.0864  0.99802 
   -2.02297  0.00779  2.20004     14.69933  1.96093  0.82575    9.3867  0.04264     0.32625     7783.501   3282.07344  1.29571         3852.65786     18.15261  0.00079  58257.44188   3.39227  0.07314   35195.23578  47.32996  18.38087  58284.31361    51.02613       44.59828   12.12128  22.22234   28.0    0.46171  -21.12589  0.99869 
   -1.89103  0.01327   1.8016     14.46162  1.61644  1.39569   9.75003  0.04844     0.09603   8752.88902   3881.04478  1.20325         3820.35127     17.81421  0.00036  58257.57381   4.45591  0.12942   58136.52616  47.20164   18.3415  58283.48047    50.93786       44.49213   12.12128  22.22234   27.0    0.46339  -21.11704  0.99803 
   -1.87747  0.00309  2.39969     14.75164  1.99769  0.73725  13.35046  0.03009     0.01002   7328.21947   4263.97984  1.42647         4387.74704     19.36098  0.01276  58257.58738   4.27681  0.04125   33525.46044  47.28369  18.33669  58284.31361    50.96179       44.52602   10.59457  23.55331   27.0    0.44719  -21.18927  0.99911 
   -1.48035   0.0328  0.75618     14.85347  2.04738  0.79841  18.73754  0.02527     0.01319   8357.27251    3713.4674  0.96983         4194.00827     18.53025  0.00188  58257.98449   7.80672  0.61451    2134.62443  49.49348  18.36166  58284.31361    50.85569        44.3983   13.11886    23.513   23.5    0.47477  -21.86997  0.99983 
   -3.52968  0.00109  0.88523     14.54598  1.93955  1.51224   9.76023  0.03465     0.19563   7457.34944    5581.7017  0.55192         4801.58393     17.25454   0.0001  58255.93517   3.23785  0.01061   11420.01724  48.60477   18.3625  58284.31361    50.98257       44.54631   10.59457  22.79389   27.5    0.49821  -20.86136  0.99999 
   -1.93755  0.02054  2.01928     14.68701  1.87951  0.87182   4.07921   0.1295     0.06608   9006.98115    6304.1883  1.27937         4081.46104      16.8756    4e-05  58257.52729   1.97407  0.08378   30076.55371  47.45427  18.31843  58284.31361    50.98141       44.52988   10.10106   23.2874   27.0     0.4711  -21.14339  0.99876 
   -2.03258  0.00358  1.52569      14.5114   1.7014  1.26332  24.18924  0.01893     0.02988   8268.01775   3826.28845  1.17895         3907.94788     19.75997  0.03197  58257.43226   9.86398  0.08658   34894.42326  47.58997  18.32802  58285.40234    50.88069       44.41797    9.28309  26.03729   27.0    0.47046  -21.20692  0.99926 
   -1.55381  0.01153  1.52526      14.6096  1.78211  0.94058   6.19128  0.04482      0.0654   5570.29589   3340.81732  1.32518         4394.63619     19.29078  0.01085  58257.91103   1.14595  0.07137   23239.63803  47.78686  18.30788  58283.48047    51.06474       44.65731    8.40664  22.60528   26.0    0.43559  -21.15048  0.99945 
   -2.71295  0.00716  2.11232     14.49392  1.67475  0.96555   8.19719   0.0562     0.04397   9430.74732   3585.35497  0.86507         4319.65063     20.00334  0.05598   58256.7519   4.34895  0.05869   71357.10336  46.98984   18.3383  58284.31361    50.95421       44.51589   10.59457  23.55331   27.0    0.49776  -21.22604  0.99866 
   -1.73851  0.02816  1.64169     14.36733   1.3575  1.38832   9.24957  0.05127      0.0174   8741.50178   3052.23602  1.28562         4111.38776     17.51149  0.00018  58257.72634    4.2162  0.26048   62585.62111  47.17453  18.34527  58284.31361    51.15234       44.74088    9.71812  21.85859   26.5    0.47062  -21.17452  0.99574 
   -1.16469  0.01393  0.92139     14.63485  1.58387  0.86904  24.57512  0.01475     0.20135   6123.61193   3499.10536  1.42666         4324.26865     16.47479    2e-05  58258.30016   5.49716  0.34223    6710.02257  48.71295  18.33312  58284.31361    50.95132        44.4977   10.59457  25.18054   27.0    0.38493  -21.12719  0.99953 
   -1.65058  0.00128  2.77272     14.67933  1.89519  0.80193   8.89115  0.04894     0.04019   8442.48033   4424.02548  1.49134          4052.6438     18.88613  0.00427  58257.81426   3.78029  0.01139   59241.45834  46.88806  18.30293  58284.31361    51.16063       44.78254    8.08085  21.81191   27.0    0.45661  -21.18693  0.99962 
   -1.77847  0.10663  1.45443     14.58536  1.81114  1.17457   4.19603  0.08706     0.02367   7372.14856    3215.5414  1.05492         4369.06514     18.91001  0.00452  58257.68638   1.36036  0.44744   24012.74878  47.82097  18.35536  58283.48047    50.93804       44.50432   12.12128   22.0266   27.5    0.50704  -21.12768  0.99732 
   -2.39629    0.041  1.65578     14.51974  1.67472  0.95934    3.6161  0.08969      0.0226   7181.19859   4912.34778  0.95841         4348.30459     19.68337   0.0268  58257.06855    1.1124  0.14826   38929.38981   47.4645  18.32055  58285.40234    50.87794        44.4245   10.59457    25.322   27.0    0.48666  -21.12011   0.9982 
   -1.43788  0.00219  1.83634     14.63673  1.91249   1.1379  22.69444  0.02105     0.04974   7676.12098   4363.56838  1.50373         4053.14213     17.14899    8e-05  58258.02696   7.97683  0.04979   31904.93712  47.51868  18.31614  58284.31361    50.93475       44.48976   10.59457  23.74905   28.0    0.44899   -21.0857  0.99947 
   -1.94946  0.01332  0.76219     14.55632   1.6926  1.14748  11.27142  0.03311     0.02924   6696.94351    4582.7256   1.0204         4409.62898     19.73011  0.02984  58257.51538    3.0155  0.15013    7044.50763  48.88542  18.35313  58284.31361    50.82825        44.3384   13.11886  26.01759   26.5    0.45816  -21.01946   0.9999 
   -2.34572   0.0036   2.3846     14.69147  2.12336  0.92627   8.56546  0.04285     0.01032   7280.05983    4224.9218  1.13802         4293.70595     17.39862  0.00014  58257.11912   2.70799  0.03087   46423.39467   47.1743  18.33578  58283.48047    51.00447        44.5848    9.28309  22.79389   27.0    0.46017   -21.1186   0.9994 
    -1.3141  0.04657  1.11332     14.70724  1.81343   0.8994   4.79021   0.0843     0.03529   6805.18272   4929.35304  1.37297         4352.00627      17.5261  0.00019  58258.15074   1.32331   0.2231    8036.75417  48.52903  18.32486  58285.40234    50.93863       44.49246   12.12128  23.65383   27.5    0.41426  -21.08114  0.99956 
   -2.76877  0.00808  1.90335        14.57  1.71718  0.90108   10.0797  0.04577     0.02572   8951.00287   3461.34709  0.89469         4109.91899     16.65069    2e-05  58256.69607   4.81746   0.0814   41847.27121  47.32295  18.34479  58284.31361      51.001       44.56747   10.54861  22.83985   27.0    0.48474  -21.08803  0.99867 
   -1.55262  0.00454   0.7636      14.5894  1.57085  0.77794   5.90629    0.039     0.01688   5383.38939   4550.88454  0.99473         4807.44943     16.24581    1e-05  58257.91223   1.02107  0.02682    5634.93949  48.94836  18.32725  58284.31361    50.82917       44.34382   12.83001  24.99496   25.5    0.52716  -21.28564  0.99997 
   -1.74686  0.06671  1.12968     14.55875  1.66491  1.14961   3.83701  0.10598     0.09385   7666.69924   3059.18847    1.075         4503.11696     16.82117    4e-05  58257.71798   1.34535  0.25596   15052.62544  48.20671  18.31647  58284.31361    50.98433       44.55058   10.59457  22.79389   26.0    0.49465  -21.17054  0.99926 
   -1.44419  0.00247  1.53456     14.54893   1.6263  0.96124   5.14696  0.07925      0.4415   7358.24836   4011.33238   1.3218         4396.71439     19.86903  0.04109  58258.02066   1.66237  0.01273   28387.08868  47.65496  18.34785  58284.31361    50.82423       44.33885   11.80738  26.01759   28.0    0.48474  -21.19115  0.99988 
   -2.55918  0.00536  1.48914     14.49855  1.58437  0.96459   14.9907  0.02413     0.11516   7132.40062   3466.16996  0.98933         4459.10551     17.27016   0.0001  58256.90567   4.54905  0.08038   32843.80174  47.60638  18.35021  58283.48047    50.99787       44.55998    8.78958  24.05709   28.0    0.46783  -21.07956  0.99921 
   -1.72304  0.00515  1.09056     14.66347  1.83596  1.08291   7.32084  0.12507     0.03638  12895.87068   6910.03468  0.89595         3632.50325     18.77626  0.00332   58257.7418   7.26256  0.03767    9550.94762  48.47736  18.32819  58284.31361    51.05944       44.63081    9.71812  22.60528   25.5    0.42958  -21.24106  0.99993 
   -2.23777  0.00155  1.11578     14.88337   1.6254  0.43123  16.73765  0.03501     0.06488   9734.97463   7516.32342  0.89212         4429.06936     17.48233  0.00017  58257.22707   9.46218  0.02596    3215.11226  48.87745  18.33907  58284.31361    50.93305       44.47958    8.78958  24.24255   25.0     0.4736  -21.18863  0.99992 
   -2.72173  0.00608  2.56743     14.53276  1.97107  1.41178   5.65936  0.06618      0.0162   7987.64615   3328.00375  1.00388         4301.92275      17.0401    6e-05  58256.74311   2.15393  0.03443  103750.29093  46.72856  18.35121  58284.31361    50.75388        44.2469    16.1617  26.26277   27.0    0.48343  -21.10451  0.99908 
   -2.56338  0.00269  1.71948      14.4328  1.63021  1.51507  17.77037  0.02246     0.36319   8344.66701   5181.16175  0.90302         4038.14674     18.21061   0.0009  58256.90147   7.38145  0.04781   60989.35167  47.22504  18.32468  58284.31361    51.11207       44.72712   10.59457  19.70862   27.0    0.48469   -21.0695  0.99934 
   -1.60602  0.00826   0.7552     14.62074  1.72091  0.94511  17.02575  0.01762     0.01634   6069.90393   3559.23989  1.00968          4649.2033     17.70787  0.00028  58257.85882   3.74194  0.14069    5226.55417  49.03026  18.36451  58284.31361    51.09699       44.68637    8.08085  22.79245   26.0    0.48231  -21.21565  0.99992 
   -2.78244  0.00291  0.78897     14.40201  1.46723  1.28305  17.78627  0.02095     0.02816   7069.01278   3963.72886  0.82967         4311.11091     19.61378  0.02283   58256.6824   5.30188  0.05182    13317.3075  48.51681  18.30601  58284.31361     50.8444       44.36831   14.14149  24.24255   27.5     0.4476  -20.93387  0.99993 
   -1.66416  0.04036   0.7182     14.61436  1.41805  0.82089   8.93312   0.0859     0.07134  12356.43568   6665.82054  0.84518         3561.37925     18.62117  0.00232  58257.80069    8.1361  0.36054    4011.24893  49.10477  18.35996  58283.48047    50.90044       44.43233   12.12128  24.24255   25.5    0.52086  -21.21819  0.99977 
   -1.63872  0.03417  1.81434     14.62234  1.98812  1.33249   4.34019  0.11309     0.12192   8309.29505   3007.24332  1.26164         4174.40868     16.86468    4e-05  58257.82612   1.78758  0.14832   34595.48596  47.51083  18.36447  58283.48047    50.94504       44.49955    8.78958  25.67405   27.5    0.44186  -21.20392  0.99857 
   -1.30458  0.00257  2.59829     14.64235  2.09359  1.54759   6.93167    0.091     0.13973   8996.14621   4210.17285  1.97269         3720.00801     16.36295    1e-05  58258.16027    3.3464  0.01783   68136.71565  46.92698  18.37376  58283.48047    50.95297       44.50955   10.59457  23.74905   28.5    0.37814  -21.11795  0.99959 
   -1.35635   0.0017  0.86503     14.69822  2.04348  1.14917    13.684  0.02128     0.01259   5431.99686    3598.5057  1.26833         4457.31901     18.82351   0.0037  58258.10849   2.40857  0.02327    5699.01681  48.94935  18.36371  58283.48047    50.86861       44.41291   12.22929  23.68728   26.5    0.44562  -20.99598  0.99999 
   -1.30656    0.004  0.73536     14.55428  1.71284  1.21486  15.59005   0.0169     0.08817   4948.46878   4008.21528  1.27566         4602.12251     19.34153   0.0122  58258.15828   2.27728  0.06234    6698.51865  48.94358  18.39489  58283.48047    50.81631       44.34908   14.14149  24.24255   27.5    0.48346  -21.05006  0.99997 
   -1.86726   0.0054  0.90422     14.57718  1.87207   1.3178   5.06122  0.06229     0.46047   6401.24151   4271.09421  0.95988         4594.92459     17.44328  0.00015  58257.59758   1.23712  0.02733    9961.48383  48.63029  18.35761  58283.48047    51.06665       44.66088    9.71812  21.85859   26.0    0.45652  -21.07417  0.99997 
   -2.71331  0.00104   2.3566     14.56522  1.71172  0.88029   5.41575  0.12241     0.02994  11925.07824   6466.62469  0.82723         3811.97591     17.97266  0.00052  58256.75153   4.59419  0.00563   65369.27247  46.94233  18.33882  58284.31361     51.0858       44.68648    9.71812  21.15518   25.0    0.50485  -21.19796  0.99984 
   -1.56501  0.00505  0.94282     14.66462  1.99658  1.07174   6.51474  0.04147     0.02873   5642.71325   3808.23453  1.08078         4455.75667     16.92515    5e-05  58257.89983   1.23737  0.03287    7721.81131  48.73255  18.32737  58284.31361    50.86861       44.41788   12.22929  23.68728   24.5    0.47537   -21.2355  0.99997 
   -3.28608  0.00147  1.25617     14.57957  1.43485   0.5851  10.08567  0.03685     0.01349   8250.95808   4854.68795  0.58998         4481.16746     19.06904  0.00651  58256.17877   4.09582  0.01481   14574.27067  48.06397  18.37667  58284.31361    50.85228        44.3545   13.11886  25.26519   27.0    0.50816  -21.00243  0.99988 
   -2.55741  0.00359  1.59499     14.39807  1.44142   0.9367    5.0119  0.06414     0.01432   7402.28704   4344.58266  0.82571         4237.28448     17.45381  0.00016  58256.90744   1.63818  0.01801    54447.5946  47.28614  18.36141  58284.31361    51.07038       44.62893   10.59457  23.74905   27.5    0.48654  -21.08541  0.99972 
   -1.40277  0.02193  1.27304     14.54767  1.75658  1.30596  11.42095  0.04151     0.16818   8035.93735   3349.36276  1.23916         4094.67862     20.12536  0.07415  58258.06207   4.39949  0.25048   21224.11368    47.977  18.24344  58287.42188     50.9822       44.51164    9.74439  26.17218   27.5    0.43348  -21.15983  0.99897 
   -2.12561  0.01809  1.48023     14.39294  1.42061  1.30329  14.73019  0.03122     0.04369   9145.48639   3176.23609  0.95694         4110.67987     19.08891  0.00682  58257.33923   7.34935  0.26652   47322.73972  47.40559  18.33033  58284.31361    50.97317       44.54117    9.23713  23.79501   26.0     0.5115  -21.18513  0.99695 
   -2.52874  0.01532   0.9303     14.74028  1.82231  0.57781   6.02528  0.05172     0.01312   7263.42165   4989.49266   0.7247         4309.61244     20.20449  0.08896   58256.9361   1.89621  0.09232    4843.05051   48.9071   18.3547  58284.31361    51.04935       44.62726    9.71812  21.85859   26.5    0.50236  -21.10414  0.99985 
   -3.44561  0.00798  2.22907     14.39203  1.63553  1.34007   6.61224  0.07118     0.11691   9714.42584   5177.69453  0.79886         3862.04819     19.72224  0.02931  58256.01923   3.72229  0.05274  124069.39415  46.69259  18.32138  58284.31361    50.95991       44.50157   12.12128  23.65383   28.0    0.47817  -21.11219  0.99858 
     -2.181  0.01301  1.82332     14.59219   1.6962  0.83337   5.62135  0.06519     0.26665   7623.74062   3815.86471   1.0748         4321.91279     19.39529   0.0138  58257.28384   1.94896  0.07314   34248.31532  47.44196  18.37141  58284.31361    51.01383       44.55948   12.12128  23.65383   27.0    0.50814  -21.16778  0.99891 
     -2.547  0.03757   1.3177     14.62769  2.02407  1.37124  11.22275  0.04102     0.03132   9494.81406   5432.89396  0.62298         4130.87658     17.46317  0.00016  58256.91784   6.03531  0.42161   18125.95933  48.07713  18.34989  58284.31361    51.08881       44.67486    9.71812  21.85859   26.5    0.50679  -21.05068  0.99862 
   -2.68382  0.04392  1.46628     14.61369   1.7898  0.90502   7.72564  0.07503     0.13497  10597.66048   3823.54119  0.67837         4113.69343     20.06927  0.06516  58256.78103   5.17585  0.33931   21167.12304  47.86356  18.32311  58284.31361    50.89156         44.431   12.22929  24.13455   26.5    0.49169  -21.17088  0.99765 
    -2.1297  0.00943  1.20877     14.44048  1.57652  1.42386  15.02369  0.02249      0.0561   7072.57019   4565.85616  0.94729         4653.77136     17.13053    8e-05  58257.33514   4.48289  0.14172   28134.76177  47.85261  18.32715  58284.31361    50.82867       44.36045   10.59457  26.03729   26.5    0.50443  -21.18966   0.9993 
   -1.73846   0.0069  2.34072     14.40514  1.41849  0.87172    3.8167  0.12629     0.02201   8373.93825   5832.13223  2.02888         3770.64158     20.48174  0.16845  58257.72638   1.59652  0.02633  111700.54681  46.63392  18.33726  58284.31361    50.94493       44.50465   12.12128  22.22234   27.5     0.4209  -21.32366  0.99901 
   -2.57166  0.00861  1.56888      14.5684  1.51025  0.70509  14.72873   0.0273     0.28029   8657.15173   5038.43359  0.80161         4488.79254     19.44546  0.01549  58256.89318    6.5848   0.1268   25190.99107  47.65547  18.33849  58285.40234    51.04546       44.60888    9.71812  22.62342   26.5    0.50317  -21.14546   0.9984 
   -1.25767  0.01532  0.80089     14.52129  1.73305  1.38877  29.94445  0.02032     0.02181  10857.12713   6128.94222  0.93675         3749.51008     20.58363  0.21299  58258.20718  21.05588  0.45863    9358.41997   48.7293  18.36173  58283.48047    50.93829       44.49574    10.8098  22.22234   25.5    0.49579  -21.39321  0.99963 
   -1.81267   0.0081  0.85633     14.47417  1.43277  1.06441  28.10774  0.01381     0.03576   7096.95707   3214.64729  1.02771         4432.82743     16.45625    2e-05  58257.65217   8.44496  0.22781   10988.50228   48.5188  18.34605  58283.48047    50.86805        44.4088   12.22929  24.40257   27.0     0.4872  -21.08253  0.99963 
   -1.45046  0.00932  1.12794      14.6136  1.78141  0.99296  11.96245   0.0241     0.48725   5911.91702   3110.40195  1.17345         4488.25393     18.06857  0.00065  58258.01439   2.49404  0.11152    12472.5079  48.31909  18.34043  58284.31361     50.9906       44.55967   10.59457  22.79389   27.0    0.50168  -21.05021  0.99971 
   -2.01565  0.05301  1.98581      14.6377   2.0508   1.3244   6.91151  0.05982     0.01988   7882.42801   6216.67827  1.16738         4467.97853     16.62072    2e-05   58257.4492   2.56165  0.36638   39831.12059  47.38467  18.33922  58284.31361    50.88706       44.41003   12.12128  24.51058   27.0    0.47441  -21.23102  0.99566 
   -1.78755  0.00306  1.64528     14.56496  1.71257  0.97577  19.46332  0.01886     0.18094   6823.22753   5147.29405  1.19825         4396.58663     17.79898  0.00035  58257.67729   5.40535  0.05964   31916.65733    47.566  18.34289  58284.31361     51.0008       44.56499   10.10106   23.2874   27.5     0.4618  -21.13772  0.99936 
   -3.08496  0.00935  2.08496     14.48695  1.75908  1.08045   4.71107  0.07914     0.02088   7990.94562   4204.18889  0.85941          4051.6546     16.98167    5e-05  58256.37988    1.7945  0.04407   75403.34423  46.99854  18.39306  58284.31361    51.03571       44.60926    9.28309  23.74905   27.5    0.46184  -21.05361   0.9991 
   -2.12328  0.00806  2.23247     14.54294  1.82302  1.01637   4.30137  0.08863     0.03078   7655.50992    5234.1369  1.15879         4207.40979     19.94247  0.04866  58257.34156   1.50377  0.03467   69230.89308  46.99177  18.36158  58284.31361    51.00159        44.5698    9.71812  23.67034   27.5    0.48206  -21.20402  0.99923 
   -2.31713  0.02504  2.62194     14.57216  1.77638  0.96155  10.12999  0.04715     0.01138   8518.68592   4849.28488  1.33122         4050.61449     16.73351    3e-05  58257.14772   4.38512  0.25361   81335.08885  46.77086  18.34384  58284.31361    50.96227       44.52545   10.59457  23.74905   28.0    0.43019  -21.13229  0.99174 
   -2.30461   0.0084  0.70729     14.65806  2.15998  1.34975  14.60351  0.02087     0.01575   6927.20413   3431.45687   0.6219         4810.78981     16.38324    1e-05  58257.16023   4.18023  0.12272    4845.42475  49.21877  18.34891  58284.31361    51.11784       44.71686    9.71812  21.15518   25.5    0.52933  -21.00456  0.99997 
   -1.73859     0.03  0.92538     14.66986  1.99323  1.06809   5.06241   0.0639     0.01497   6499.90669   4385.91804  0.92273         4574.36893     16.73807    3e-05  58257.72626   1.27585  0.15188    7249.07105  48.77548  18.34854  58284.31361     50.9276       44.47428   12.12128  23.65383   26.0    0.47332  -21.09909  0.99986 
   -2.00215  0.00111  2.27934     14.52799   1.8486  1.34304  10.38102  0.03849     0.07932   7411.33331   5533.27245  1.35169         4145.32279     19.52943   0.0188  58257.46269   3.40142  0.01153   78396.84057  46.92577  18.34407  58284.31361    50.89341       44.44018   12.12128  23.79529   28.0    0.46249    -21.156  0.99975 
   -1.80573  0.01533  0.85056     14.74426  1.98915   0.8882   15.8228  0.02187     0.14659   6841.76936   3576.92597  0.95499         4515.73408     16.12267    1e-05  58257.65912   4.41822  0.24263     4338.8365  49.07073  18.35268  58284.31361    50.83612       44.35272   13.11886  25.26519   26.5    0.52266  -21.06661  0.99985 
   -1.60822  0.01282  1.36249     14.52821  1.80646   1.5555   29.5496   0.0153     0.06218   8153.40413   3767.48521  1.21994         4150.95753     20.42033  0.14624  58257.85662  11.71809  0.37871   27345.30188  47.82013   18.3509  58283.48047    50.83481       44.34269   13.11886  25.26519   26.5    0.42853  -21.33405  0.99804 
   -2.81605  0.00104  1.65397     14.69341  1.69477  0.58305  15.80982  0.02376     0.30193   7836.74236   4252.31992  0.78848         4261.96887     18.26974  0.00103  58256.64879   5.79196  0.01651   17666.63594  47.81375  18.37614  58284.31361    50.85297       44.38694   10.91781  24.40257   27.5    0.48628  -21.04028   0.9998 
   -4.30008   0.0075  1.16197     14.79588  1.99174  0.60263  38.08226  0.01119     0.08643   9314.15978    3476.9007  0.27694         4699.23435     17.91124  0.00045  58255.16476  19.70776  0.28547    6392.51188  48.63201  18.37533  58285.44141    50.91698       44.43287   10.59457  26.03729   28.0    0.50898  -20.88481  0.99923 
   -1.64232  0.03798  1.09421      14.6929   1.7588  0.85036  12.16076  0.03824     0.01067   8220.76703   3737.48203   1.1111         3995.27441     16.99848    6e-05  58257.82253   4.90244  0.46187    8043.32401  48.53042  18.32028  58284.31361    51.17213       44.78465    8.06371  20.21927   27.5    0.44701  -21.17255  0.99903 
   -2.98283  0.00208  2.55345     14.57491  1.95911  1.00832   7.36131  0.05467      0.0504   9597.61741    3350.1354  0.63095         4164.59975     16.60413    2e-05  58256.48201   4.04491  0.01531   84005.49167  46.82234  18.35121  58285.40234    50.92052        44.4614   10.59457  25.18054   27.0    0.53856  -21.11308  0.99959 
   -1.46619  0.03844  1.39794     14.49657  1.60809  1.28376   3.14227  0.10935     0.03956   6303.12479   5548.41256  1.38276         4367.68992      16.1116    1e-05  58257.99865    0.7447  0.12078   29645.84655  47.71221  18.35699  58284.31361    50.81525       44.30563   14.14149  25.86813   27.0    0.46442  -21.23538  0.99916 
   -2.62571  0.02435  1.23952     14.36475  1.41282  1.21419   3.89648  0.08959     0.22252   7333.22458     3061.889   0.8547          4452.3715     16.29039    1e-05  58256.83914   1.24994  0.09488   37575.81085  47.65752  18.33522  58284.31361    50.92559       44.45753    9.28309  25.76926   27.0    0.48284  -21.05294  0.99929 
    -1.6583  0.01905  1.24236     14.65096  1.54593  0.65095   7.30814  0.06406      0.0235     8130.459    5183.0839    1.184         4097.30464     19.99412  0.05481  58257.80654    2.8818  0.13922   11055.58815  48.22596   18.3356  58284.31361    50.81174       44.33423   14.75029  24.38616   27.5     0.4314  -21.24366  0.99924 
    -1.9626  0.00132  2.64721     14.69752   1.9151  0.77028   7.90721   0.0571     0.38903   8460.21275    4576.1613  1.31707         4133.05373     16.75882    3e-05  58257.50224   3.37608   0.0104   50181.74258  47.00491  18.32952  58283.48047    51.00551       44.58708   10.54861  22.83985   27.0    0.48165  -21.17243  0.99969 
   -2.18339  0.01957  1.80684     14.40949  1.50015  1.25734   9.26454   0.0462     0.49676   8576.93212   5122.83107  1.12888          3754.4967     18.41198  0.00143  58257.28146   4.06551  0.18132   68994.60036  47.09233  18.35356  58283.48047    51.01012       44.58873    8.40664  22.62342   27.5    0.48595  -21.11524  0.99671 
   -1.50077  0.25829  1.76011     14.65171  1.95919  1.45685   5.14548  0.11472      0.0164  10125.87055   3234.16536  1.52783         3330.86165     17.66878  0.00026  58257.96407   3.14715  1.32902   28025.04524   47.6223  18.33114  58284.31361    50.97558       44.53456    9.23713  23.79501   28.5    0.48435    -21.226  0.98944 
   -1.48794  0.02571  1.03147      14.6485  2.04336  1.53026     8.479  0.04233     0.01526   6675.83325   4408.33955  1.08269         4570.54378     18.10379  0.00071   58257.9769   2.25415  0.21799   10187.69063   48.5442   18.3471  58283.48047    50.90339       44.44249    10.8098  23.79529   26.0    0.51002   -21.5124  0.99974 
   -1.99337  0.08147  1.66703     14.32038  1.29896  1.54161    7.9584  0.06868     0.01384  10804.20754   5568.11198  0.97433         3788.78299     17.86933  0.00041  58257.47147   5.54165   0.6484   76654.69133  47.05402   18.3534  58283.48047    50.90383       44.45791    10.8098  23.65383   25.5    0.51404  -21.22467  0.98788 
   -2.17838  0.00895  1.76093     14.47592  1.64367  1.24065  15.73553  0.02833     0.04187   8799.70462   3593.55478  1.00865         4125.88242     19.51241  0.01808  58257.28646    7.2685  0.14081   52879.15384  47.26989  18.33655  58284.31361    50.92893       44.47608   12.12128  22.22234   26.5    0.49352  -21.18441    0.998 
