 log(Bfield)      Mns    Pspin  cutoff_power  cutoff_wavelength  fnickel    kappa  kappagamma   mejecta  log(nhhost)  temperature  texplosion  thetaPB      vejecta      A_V        MJD_0   log(KE)      M_Ni  Peak_mag     Peak_MJD 
    14.23879  1.41199  4.66121        1.7793          2865.9423  0.05318  0.05901     0.05802   6.79124     19.16691   5536.15016    -4.87931  1.48363  10265.52231  0.00816  56664.27069  52.58446   3.24942  19.23629   56692.0369 
    14.72393  2.09108  4.78895       1.55062         3012.56658  0.27809  0.17277     0.16372   2.75791     18.75934   5721.63237    -4.85017  0.89603   9627.53116  0.00319  56664.29983  52.42454  13.36803  19.25556   56693.0521 
    14.55331  1.71808  4.47212       1.26847         3280.39121  0.05938  0.05612     0.04467   8.11955     17.77399    4474.1417    -5.91459  0.84411   8700.69266  0.00033  56663.23541  52.45879   3.78198  19.27664   56693.0478 
    14.38342  1.76457     5.39       1.85685         2668.22735  0.01203  0.31742     0.24065   1.12975     16.97004   5691.95765    -6.00019  1.08939    9263.3209    5e-05  56663.14981  52.25526   0.42316  19.24923   56693.0521 
    14.52551  1.63688   3.8526       1.47659         3051.15988  0.30422  0.16917     0.45527   2.79093     19.32675   4845.01083    -2.40377  1.15978   9892.29683  0.01179  56666.74623  52.44966  14.67684  19.25326   56693.0521 
    14.27711  1.51063  4.44469       1.64997         2697.95447  0.06379  0.12733     0.39895   3.35321     17.01216   4272.12154     -5.9865  1.56484   9502.44553    6e-05   56663.1635    52.438   3.24688  19.23956   56692.0369 
    14.33108  1.64266  4.77863       2.30765         2592.06914  0.00801  0.07985     0.11987   5.31898     18.42972   5002.57222    -5.99363  1.45026   9177.01883  0.00149  56663.15637  52.46123   0.46114  19.23969   56692.0369 
    14.37648  1.81886  5.91437       1.18182         2920.74762  0.00281  0.21634     0.24563   1.64761     16.50195   5940.78171    -5.31044   1.0998  10729.75856    2e-05  56663.83956  52.44556   0.11433  19.26107  56692.83594 
    14.27336  1.45602  4.37314       2.20592         2609.10266  0.01096  0.26412     0.31256   1.56719     18.26625   4577.52683    -5.94734  1.12084   8984.70165  0.00103  56663.20266  52.28358   0.43714  19.26399   56693.0452 
    14.47694  1.90663   5.6451       1.68911          2810.2403  0.07647  0.06597     0.07962   5.85662     18.69794    5173.9518    -3.52127  1.34555   9860.24782  0.00277  56665.62873  52.53398   4.50896  19.23963  56692.82422 
     14.4618  2.03966   5.9811       2.81186         2421.52259  0.01791  0.10567     0.48539   3.50143     19.13433   4458.47706    -4.03569  1.51032  10137.23873  0.00757  56665.11431  52.49947   0.92267  19.25826  56692.82422 
     14.3807  1.81614  5.49372       2.18025         2636.56167  0.01068  0.17972     0.32837   2.31323     17.82598   4846.48455    -5.59696  1.36995    9802.6271  0.00037  56663.55304   52.4166   0.48612  19.23591  56692.82422 
    14.39781  1.60348  5.22235       1.90329         2829.45643  0.03304  0.08604     0.08412   4.25227     17.12305    6350.6778    -3.81139  0.95591   9737.66081    7e-05  56665.33861   52.4876   1.79493  19.24647  56692.82422 
     14.5984  1.68144  2.78487       2.20961         2816.65424  0.24631  0.15544     0.16616   3.45593     19.68193   5112.71241    -3.30625  1.06791   8635.13497  0.02671  56665.84375  52.35857  12.64392  19.25184   56692.0297 
    14.31408  1.67721  5.14053       4.09557         2165.85523   0.0036  0.26499     0.39977   1.45932     17.28666   5426.93814    -4.43125  1.54631  10269.48361  0.00011  56664.71875   52.3883    0.1399  19.27288   56693.0452 
    14.40518  1.68704  5.13642       1.46024         2833.86877  0.02574  0.11481     0.12356   3.17633     18.68893   5251.82162    -4.47886  1.05166   9406.56735  0.00271  56664.67114  52.42245   1.29001  19.25527  56692.83594 
    14.48307  1.77969  5.34816       1.49887         2807.22961  0.01362  0.13824     0.47603   2.57104     17.92826   5685.53786    -5.63995  0.84634   9747.41405  0.00047  56663.51005  52.42603   0.64083  19.25046  56692.82422 
    14.37536  1.58253  4.77016       1.71791         2802.04683  0.00988  0.07332     0.10557   5.27398     18.02226   4638.45811    -6.14173  0.96405   9383.78805  0.00058  56663.00827  52.47965   0.56754  19.24424  56692.82422 
    14.45962  1.91483  5.77121       2.43188         2703.70597  0.05354  0.15931     0.14988   2.18946     18.91835   5068.87085    -3.96139  1.18082   9279.60579   0.0046  56665.18861  52.36132    2.3952   19.2494   56692.0369 
    14.36474  1.55812  4.07937       1.59828         3025.76259  0.06091  0.07203     0.05802   6.25568     18.28024   5809.77734     -5.0752  1.56185   8609.62499  0.00106   56664.0748  52.42314    3.6497  19.23276  56692.83594 
    14.74274  1.99859  3.41093        2.0041         2661.61216  0.20895  0.08993     0.05713   5.82328     16.79594   4897.17982    -1.75235  1.10327  10280.97775    3e-05  56667.39765  52.56966  12.30306  19.26255  56692.82422 
    14.52644  2.02988  5.78901       2.01555         2891.44564  0.15428  0.15779     0.11303   2.48189     19.07955   5978.84898    -4.12104  1.28179    9125.4918  0.00667  56665.02896  52.36402   7.18117  19.27251  56692.82422 
     14.3708  1.70602  4.90021       2.40668         2655.23883  0.03421  0.16368     0.26242   2.47664     16.45922   4140.39618    -6.00204  1.29595   8796.93425    2e-05  56663.14796  52.33189   1.59149   19.2666  56692.82422 
    14.41092  1.81477  4.95163       1.41862         2750.98352  0.03345  0.12226     0.25426   3.73417     17.20047   4759.24671    -5.68577  1.43216   9514.06763    9e-05  56663.46423  52.45214   1.75444  19.25735   56692.0369 
    14.65388  1.92916  3.64462       2.30901         2772.38857  0.20955  0.12256     0.14686   4.55913     17.37623   4748.68132    -2.39313  1.34745  10135.49394  0.00013  56666.75687  52.53036  11.59654  19.23828   56692.0369 
    14.27039  1.38083  4.48319       3.55639          2244.6068  0.00462  0.19632     0.41437   1.88408     18.25893   4608.61409    -5.09057   0.9737   9862.25642  0.00101  56664.05943  52.39259   0.19678  19.25666  56692.82422 
    14.04403  1.42317  5.58884        1.4096          3145.3337  0.15277  0.03706     0.01048    5.6675     17.52461   5083.48167    -6.24814  1.54643   9835.49329  0.00019  56662.90186  52.52829   8.93529  19.26322  56692.82422 
    14.56244  1.99086  4.97598       2.99701         2418.58416  0.26326  0.15528     0.16437    2.9927     19.41474   4924.20157    -3.27512  1.56404  10250.52102  0.01444  56665.87488  52.48955  12.96652  19.25915  56692.82422 
    14.39343  2.01675   6.4235       2.54428         2398.30396  0.01496  0.20536     0.10804   1.16611      20.2824   4720.38892    -4.73269  0.82624  12723.07682  0.10645  56664.41731  52.53653   0.53278  19.23757   56693.0521 
    14.41136  1.80019  5.14954       2.25605         2639.62649  0.00766  0.13351     0.16312   2.96103     17.13197   4603.57434    -5.34717  1.23801    8915.0953    8e-05  56663.80283  52.36695   0.37603   19.2459   56693.0521 
    14.46303  1.80516  5.67542       1.83688         2732.68259    0.011  0.09989     0.10894    3.8481     17.55533   4983.07407    -5.39965  0.89793  10117.02252   0.0002  56663.75035   52.5091   0.58159  19.25442  56692.83594 
    14.34875  1.73789  5.52678       1.97986         2599.22953  0.03672  0.31925     0.36344   1.12628     17.90312   5192.79393    -4.33845  1.37507  10234.02197  0.00044  56664.81155  52.34127   1.28953  19.26533  56692.82422 
     14.3621  1.38038  4.59591       2.24236         2613.34811  0.03109  0.24189     0.34492   1.59433     17.18504   3966.80396     -5.3594  0.72306  10139.07728    9e-05   56663.7906  52.39126   1.24824  19.23359  56692.82422 
    14.53988  2.10433  5.86945       2.31148         2480.49422  0.15973  0.18104     0.27521   2.29714     16.23673    5198.8537    -4.00039   1.2976   9968.87149    1e-05  56665.14961  52.43024   7.25626  19.25706  56692.82422 
    14.29768  1.54979  4.80328       2.27908         2704.76506  0.02812  0.08621      0.0931   4.51862       17.919   3974.43343    -4.91554  1.40076   9315.00696  0.00046  56664.23446  52.45602   1.55253  19.25595   56692.0369 
    14.35764  1.68627  5.27184       1.25006         2913.78411  0.00128  0.15771     0.20544   2.42978     17.00634   4561.68952    -5.99996  1.06635   9843.97119    6e-05  56663.15004  52.42698   0.05935  19.25353  56692.82422 
    14.53754  1.95653  5.56372       1.73113         2943.56466  0.05588  0.05103     0.07417   7.59967     17.41704   4711.89811     -3.8776  1.13268   9372.65391  0.00015   56665.2724  52.51683   3.50545  19.24704   56693.0452 
     14.3176  1.50907  4.72496       3.19944         2342.60364  0.04429  0.18304     0.24063   2.19108     17.27803   5525.91981    -4.62795  1.07919   9941.47944  0.00011  56664.52205  52.42126   1.98169  19.25337   56693.0452 
    14.65849  1.97876  4.33172       3.97361          2215.5973  0.41684  0.22232     0.33297   2.35465     16.84168   4928.66304    -2.76727  1.14365  10765.86675    4e-05  56666.38273  52.50045  19.08497  19.26044  56692.82422 
    14.42864  1.96682  5.86088       3.01997         2411.58786  0.02096  0.11497     0.16065   3.32311     17.38598   4336.76861    -5.44581  1.40854   9718.22691  0.00014  56663.70419  52.45639   1.06397  19.24872   56693.0521 
    14.29017  1.58358  4.92513       1.64218         2636.67286  0.08191  0.14895     0.14505   2.76518     19.39343   4214.77387    -5.79814  1.40761  10253.22877  0.01375  56663.35186  52.47958   3.94077  19.26005  56692.82422 
     14.3891  1.69342  5.22509       1.90063         2712.02127  0.03533  0.07276     0.31838   5.13196     16.48146   4354.37953    -3.39835  1.24266   9919.62983    2e-05  56665.75165  52.52489   2.01577  19.26493  56692.82422 
    14.48522  1.80308  5.40243       3.83307         2367.45927   0.0033  0.20926     0.32969    1.8418     16.61793     4593.742    -4.92662  0.88707   9873.79483    2e-05  56664.22338  52.39024   0.13949  19.26346  56692.82422 
    14.39181  1.70095  4.71329       2.27985         2604.13255  0.05589  0.16734     0.34184   2.38881     16.85369   3888.17306    -4.29969  1.34099   8784.47801    4e-05  56664.85031  52.32575   2.57048  19.25289  56692.82422 
    14.38361  1.86292  5.87655       2.27949         2713.61627   0.0029  0.22262     0.31404   1.61342     18.57552   5366.13986    -4.70312  1.40219   9666.22822  0.00209  56664.44688  52.35164   0.11673  19.22474   56693.0452 
    14.47746  1.65828  3.91468       1.20209         3031.32545  0.21603  0.14188     0.14083   3.51704     19.49159   4784.71771    -3.83839  1.25541   9892.15653  0.01723  56665.31161  52.47876  11.14432  19.28627   56693.0521 
    14.41296  1.68229  4.86414       2.71661         2522.19188  0.00398  0.09611     0.13613   4.15457     17.66723   4911.21434    -6.58883  1.00054   8913.64567  0.00026  56662.56117  52.40811   0.21488  19.22091   56691.2419 
     14.4292  2.00948  5.47953       3.15597         2421.25648  0.02841  0.20466     0.25124   1.81313     20.33133   4808.17601     -4.1679  1.46491   10162.1181  0.11914   56664.9821   52.4129   1.19332  19.24105  56692.82812 
     14.6124  1.90535  4.05852       4.26108         2303.38222  0.20075  0.12526     0.15908   4.32301     17.20346    4496.1097    -2.56135  1.29559  10174.38378    9e-05  56666.58865  52.52761  10.95514  19.25948  56692.83594 
    14.55146  2.06775  5.24305       3.35599         2278.85784  0.14499  0.11585     0.19198   3.94234     19.55009   4989.00972     -4.2577  1.44197    9981.2402  0.01972   56664.8923  52.50022   7.71921  19.26935   56693.0452 
    14.68602   1.9836  3.50188       3.34323         2396.61139  0.34788  0.17033     0.23172   3.47782      17.6659   4807.49187     -2.4028  1.43877  10792.66459  0.00026   56666.7472  52.55306  17.88988  19.27203   56692.0369 
    14.57819  1.76011  2.88811        4.4549         2164.80702  0.29841  0.16977     0.14413   3.61752     19.85021   4631.14528    -2.53548  1.53563  10585.75737  0.03935  56666.61452  52.54103  15.51607  19.27306  56692.82422 
    14.66203  1.84423  3.61999       0.99055         3326.79211  0.22629    0.125     0.07518   4.07704     16.97589   5227.90664     -3.6613  0.96717   9158.65844    5e-05   56665.4887  52.42946  12.15742  19.24819  56692.82422 
    14.49573  2.04164  6.06022       2.06813         2594.58389  0.01038    0.174     0.43644    1.9448     18.58526   5882.86411    -5.03069   1.0695   9885.53468  0.00214  56664.11931  52.39929   0.44645  19.25032  56692.83594 
     14.4216  1.76968   5.6093       1.70836         2747.81709  0.00478  0.09594     0.17827   3.97473     17.74454    5328.3452    -4.41404  0.97604  10279.24365  0.00031  56664.73596  52.52674   0.25529  19.26369  56692.82422 
     14.3147  1.64636  5.20896       3.05982         2293.47899   0.0246  0.07021     0.10685   5.76586     19.03509    4782.4778    -4.82711  1.43978  10625.99706  0.00602  56664.32289  52.59728   1.44504  19.26058   56693.0521 
    14.39484   1.8951  5.76277       3.57951         2232.88771  0.00263  0.24733     0.49225   1.56196     18.13522   3848.84882    -4.58437  1.41564  10338.25059  0.00076  56664.56563  52.40494   0.10475  19.23792   56692.0369 
    14.46289  1.93871  5.74923       1.62849         2673.13516  0.02804  0.06766     0.09038   5.57383     16.40098   4250.14893    -4.63377  1.17514   9911.47586    1e-05  56664.51623  52.53318   1.63342  19.27598  56692.82422 
    14.66236  1.91689  3.33636       2.89401         2535.25703  0.34395  0.19832     0.18846   2.83297     19.32809   4841.35756    -2.44314  1.21798   9671.93818  0.01183  56666.70686  52.43203  16.66766  19.27016   56692.0369 
    14.70001  2.15106   4.3069        1.1934         2965.64201  0.14936  0.08578     0.09457   6.27479     18.11123   5062.42295    -3.09325  1.22572  10533.32851  0.00072  56666.05675  52.59862   8.95534  19.25464  56692.82422 
    14.44459   1.9395  5.55329       2.22108          2688.2585  0.07461  0.15358     0.49425   2.76371     18.33116   5207.60882    -5.45511  1.43894   9764.13764  0.00119  56663.69489  52.43706   3.58872  19.26118   56693.0452 
      14.403  1.60897  4.86954        1.3541         2982.46472  0.06759  0.09102     0.08762   3.95326     17.19447   4793.78098    -5.35887   0.9655   9355.16682    9e-05  56663.79113  52.44428     3.601  19.27058   56693.0452 
    14.26693  1.48009  4.82514        1.8148         2732.27934  0.00241  0.17585     0.21339   2.09202      18.6711   4480.29453    -3.83417  1.26194   9879.38662  0.00261  56665.31583  52.40928   0.10626  19.24232  56692.82422 
    14.40164  1.75296   4.9312       1.73296         2809.11079  0.01529  0.12644     0.14153   3.38295     19.40999   4551.17569    -5.37153  1.21629   9262.57825  0.01428  56663.77847  52.41688   0.78006    19.257   56692.0297 
    14.42125  1.59117   4.4324       1.94095         2783.27509  0.12894  0.10249     0.13108   4.30501     18.31102   4543.24535    -4.45289  1.20075   9514.91391  0.00114  56664.69711  52.46892   7.02868  19.28496  56692.83594 
    14.41327  1.81007  5.11363       1.60176         2853.18257  0.18825  0.21068     0.25788   1.90249     19.61297   4840.79891    -5.05365  1.44803    9397.1123  0.02279  56664.09635  52.35206   8.03864  19.25761   56693.0521 
    14.44551  1.82273  5.48886       1.16815         3128.21964  0.02373  0.07306     0.14025    5.4644     16.11814   4889.28537     -4.8408   1.0657   9785.64718    1e-05   56664.3092  52.51994   1.37535   19.2527  56692.82422 
    14.41422  1.85739  5.29421       3.19685         2380.66176  0.01594  0.08053     0.15274   5.05062      16.3943   4629.90802    -4.94262  1.40729   9511.31928    1e-05  56664.20738  52.48662   0.90577  19.24605   56692.0369 
    14.77579  2.15903   3.1033       1.52655         3148.92764    0.294  0.14952     0.17179   3.50803     17.49709   5066.11671    -2.35293  1.35348    9359.0524  0.00017  56666.79707  52.43032  15.15607  19.27286   56693.0521 
    14.66064  1.93019  3.23189       2.67908         2445.35018  0.34779  0.17483     0.27662   3.22922     18.92917   4636.62812    -2.16084   1.5234  10401.88706  0.00472  56666.98916  52.51188  17.51219  19.25943  56692.83594 
    14.28248  1.58041  4.93067       2.39876         2566.20938  0.00182  0.15748      0.1909   2.39083     16.23508   5349.48198     -5.4947  1.42671   9834.19573    1e-05   56663.6553  52.42392   0.08389  19.25639  56692.82422 
    14.41939  1.84632   5.3478       1.93984         2763.63437  0.02825  0.29986      0.2692   1.26954      18.7386   4861.76065      -4.708  1.30744   8958.17136  0.00304    56664.442  52.24652   1.04097  19.27083   56693.0452 
    14.69077  1.87418  2.48785       1.30165         2801.91142  0.11766  0.05329      0.0906  11.26483      16.8311    3960.2836    -2.67945  1.37487  10300.55141    4e-05  56666.47055  52.63655   8.05049  19.25021   56693.0521 
    14.61336  1.96054  3.86671       4.09678         2313.22112  0.24391  0.14757     0.13485   3.43693     19.65557   4698.93338    -2.47209  1.46725   9580.04784  0.02514  56666.67791  52.44809  12.50156  19.23067  56692.82422 
    14.52981  1.92061  4.93816       1.85203         3039.46559  0.18085  0.14853     0.12697   2.75029     18.59378   5268.89278    -3.65297  1.39038   8742.44001  0.00218  56665.49703  52.34042   8.68649  19.24435  56692.82422 
    14.46316  1.73255  4.95463        1.8034           2757.574  0.05491  0.10887     0.13716   3.93393     18.10228    5787.3278    -4.74037  0.99245   9845.70694   0.0007  56664.40963   52.4881    2.9215  19.27208  56692.83594 
    14.39167  1.70192  5.20265       2.05467         2639.94677  0.09148  0.13599     0.28095   2.98724     17.61784   5390.49432    -4.69542  1.27484  10056.20603  0.00023  56664.45458  52.47269   4.50316  19.24498   56693.0521 
    14.52713  2.06294  6.00513       1.97151         2500.83903  0.04135  0.06536     0.08637   6.19534     16.51239   5681.51549    -4.55681   1.0821  10573.24158    2e-05  56664.59319  52.60057   2.47157    19.267  56692.82422 
    14.47621  1.95005  5.80233       3.30858         2333.22142  0.04055  0.09536     0.12415   4.24922     17.16507   4684.35129    -4.75549  1.14117  10104.60356    8e-05  56664.39451  52.51965    2.2029  19.26259  56692.82422 
    14.39362  1.67932  4.55167       1.71222         2832.60383  0.10621   0.1411     0.15583   2.89375     17.94523   5144.54785    -4.72246   1.5481   8753.23915  0.00049  56664.42754  52.34809    5.1796  19.26963   56693.0521 
    14.56155  1.98787  5.01092       1.52259         3167.23721  0.11773  0.10652     0.15073   4.15405     16.01288   5080.63432    -4.36057  1.30643   8831.99406    1e-05  56664.78943   52.4001   6.35711  19.24002  56692.82422 
    14.18147  1.26275  4.12053       1.99526         2807.85751  0.15559  0.18046     0.16991   2.07892      17.1378   4142.44452    -5.23591  1.41743    9193.4347    8e-05  56663.91409  52.34588   6.84357  19.26662   56692.0369 
    14.40479  1.84999  5.61237       1.95864         2586.30138  0.02405  0.09679     0.09422   3.84912     19.57315   6435.18501    -5.82681  1.13819  10206.65974  0.02079  56663.32319  52.51679   1.27193  19.24229   56692.0297 
    14.19432  1.21174  3.96144        1.9275         2956.72152  0.01045  0.10423     0.22867   3.55065     18.31465   3458.08709    -4.58007  1.07979    8854.3554  0.00115  56664.56993  52.38364   0.54033  19.24538   56693.0452 
    14.30193  1.40969  4.47391       2.71476         2463.24624  0.05852  0.11889     0.36972   3.35007     18.86224   4199.06021    -4.79691   0.9993   9720.53121  0.00405  56664.35309  52.45759   2.97786  19.18903  56690.84766 
    14.32389  1.60432  5.18333       4.06109         2252.89323  0.03774  0.13571     0.25831   2.90595     17.39679   4402.03373    -4.23595  1.24039  10593.17121  0.00014  56664.91405  52.51434   1.84294  19.27175  56692.82812 
    14.50167  2.19604  6.18877       1.54748         2856.90852  0.00212  0.17616     0.29017   2.29978      16.6859   4534.31063    -5.11847  1.44446   9788.38439    3e-05  56664.03153  52.41453   0.09648  19.25477  56692.82422 
    14.42882  1.93989  6.08903       1.30708         2805.83239  0.06382  0.16544      0.3297   2.25573     16.34829   6087.66353    -4.55352  1.26258  10814.92162    1e-05  56664.59648  52.49847   2.88223  19.25894  56692.82422 
    14.50386  1.84074  4.46537       2.73508         2336.98754  0.21027  0.13897     0.15622   3.67006     19.57782   4664.71329    -3.95452  1.52387    10358.057  0.02102  56665.19548  52.52388  10.97683  19.24117  56692.82422 
    14.43098  1.94784  5.61559       4.06878         2215.91115  0.02789  0.15569     0.25084    2.6397      17.0321   5690.26587     -5.0185  1.49693   9834.76512    6e-05   56664.1315  52.43728   1.32313  19.26569   56693.0521 
    14.28954  1.46107  4.73481       2.52883         2598.99586  0.02226   0.2008      0.3042   1.80077     18.02604   4914.31715    -3.91003  1.11315   9919.79487  0.00059  56665.23997  52.39092   0.93297  19.25772  56692.82422 
    14.26197  1.36444  4.18337        4.2039         2232.35605  0.29394  0.23237      0.2031   1.96797     18.05744    4181.6102    -4.26826  1.50221  10368.87221  0.00063  56664.88174  52.44248  12.69547  19.26715  56692.82422 
    14.55603  1.80458   3.8869       4.68018         2182.89397  0.12683  0.07918     0.07696   6.49387     18.97513   4254.92911    -3.33009  1.27601  10002.30104  0.00525  56665.81991  52.55727   7.66781  19.25918   56693.0521 
    14.32856  1.67929   5.2701       2.30342         2553.46731  0.01457   0.1455     0.20228   2.67245     16.91697   6524.06064    -5.80392  1.23258  10012.74622    5e-05  56663.34608  52.45449   0.69394  19.24916  56692.82422 
    14.57221  1.77916  3.95415        1.1554         3141.35562  0.16974  0.10601     0.08988   4.65037     17.44765   4855.88532    -4.10761  1.13174   9668.90327  0.00016  56665.04239  52.49167   9.44227  19.23116   56692.0297 
    14.38347  1.85746  5.66245       2.64296          2512.9572  0.02805  0.10815     0.07639   3.55233     18.86481   5184.50668    -4.96266  1.53739   9736.19391  0.00407  56664.18734  52.46617    1.4511  19.23339   56691.2419 
    14.42894  1.83408  5.56652       2.09436         2648.76717  0.00405  0.13703     0.34397   2.84876     18.43982   5186.46373    -4.37434  1.10828   9877.00975  0.00153  56664.77566  52.45098   0.19636  19.26239   56693.0521 
     14.5778   1.9172  3.96109       2.27912         2595.28069  0.23436  0.15413     0.12017   2.95028     19.94401   5214.80841    -3.25369  1.25413   8915.80138  0.04884  56665.89631  52.36656  11.49446  19.26454  56692.82422 
    14.35894  1.70706  5.33551       1.70631         2863.83993  0.00705  0.18557     0.31391   2.08987     17.04728   4788.95014    -4.48428  1.25183   9912.26168    6e-05  56664.66572  52.41202   0.31069  19.24689   56693.0452 
     14.4963  1.75481  4.39634       1.34586         2928.28652  0.14977   0.0961     0.13505     4.973      19.9914   5165.35981    -2.89424  1.24711  10465.96336  0.05447  56666.25576  52.56798   8.47632   19.2508   56693.0521 
    14.67719  1.95381  3.39387       2.58678         2684.92676  0.25179  0.13099     0.08958   3.85427     19.80743   4880.92358    -2.73789   1.1527   9317.98818  0.03566  56666.41211  52.43782  13.32246  19.27372   56693.0452 
    14.45198  1.95811  5.72267       1.41309         3164.12093  0.01359  0.15657     0.43932   2.37112     17.79711   4458.24432    -5.44592  1.30343   9163.91229  0.00035  56663.70408  52.36147   0.62364  19.24496   56693.0521 
    14.38722  1.81148  5.33628       1.66756         2890.32947  0.00393  0.27836     0.24453   1.39579     19.86584   4930.99337    -5.53782  1.22313   9452.18582  0.04079  56663.61218  52.30901   0.15016  19.26137   56693.0521 
    14.36153  1.65452  4.82483       2.21596         2602.78794  0.01091  0.23811     0.27856   1.74703     16.33537   5416.61874    -5.43536  1.19346   9385.60677    1e-05  56663.71464  52.33827   0.45231  19.26474   56693.0521 
    14.86138  2.13059  3.03785       4.18546         2221.03292  0.14726  0.07548     0.05072    7.6991     18.30596   4312.09053    -2.72132  0.83661  10139.68503  0.00112  56666.42868  52.58645   9.26514  19.24321  56692.82422 
    14.42349  1.72677  4.84394       3.88408         2368.05976  0.18655  0.19875     0.14762   2.22223     16.75557   4483.07244    -4.38895  1.34086   9564.04242    3e-05  56664.76105  52.38962   8.38486  19.26374   56693.0521 
     14.3963  1.77535  5.53483       1.73699           2854.876  0.02143  0.05972     0.07516   6.04536     16.72768    5053.5732    -4.32576  1.22578   9902.83243    3e-05  56664.82424  52.54109   1.27331  19.26982   56693.0521 
    14.18576  1.27974  4.27688       2.96617         2370.38496  0.14284  0.25457      0.1932   1.48142      19.1388   3331.27008    -4.67659  1.15537  10155.12365  0.00765  56664.47341  52.38099   5.58266  19.27583   56692.0369 
    14.66958  2.10054  4.30422       2.34301         2660.96997   0.1474  0.08816     0.11181   5.72562     18.98306   5129.49865    -3.44145  1.34962   9753.81026  0.00534  56665.70855  52.52214   8.64287  19.24371  56692.83594 
    14.44352    1.803  4.93943        1.3756         2904.08699  0.10235  0.09333     0.07172   4.73998     17.03465   4865.99519     -4.8776  1.55811   9464.71148    6e-05   56664.2724  52.47528   5.72194  19.28278   56693.0521 
     14.3632  1.77502  5.39199       3.75331          2168.1333  0.04946  0.18661     0.25494   2.15784     18.57365   5016.71028    -5.24914  1.48206  10488.59818  0.00208  56663.90086  52.46564   2.20219  19.23826   56692.0369 
    14.65976  1.99193  4.46631       1.77196         3040.03703  0.20689  0.11732     0.09645   3.63775     19.38488   6360.93967     -3.1313  1.05274   8772.95967  0.01348   56666.0187  52.37855  10.77373   19.2419  56692.82422 
    14.55057  1.46705  2.59585       2.23937         2587.46591  0.12388   0.0583     0.06019   9.69161      18.4886   4707.91869    -2.05704  1.07996  10521.95091  0.00171  56667.09296  52.64099   8.20683  19.25073  56692.82422 
    14.58695  2.01284  5.28614       0.98002         3052.43046      0.1  0.07263     0.09272   6.51029     18.75783   4923.75272    -4.60679  1.07895  10278.66672  0.00318  56664.54321  52.58121   6.04927  19.24852  56692.83594 
    14.34299  1.46281  3.80081       1.95506         2685.21131  0.23825  0.21834      0.3222   2.08726     18.78766   4806.72709    -4.46304  1.50591   9061.12775  0.00341  56664.68696  52.33386  10.49316   19.2656  56692.83594 
    14.52683  1.74642  4.57627       1.78062         2717.06809  0.20254  0.12271     0.10817   3.75721     18.56763   4932.61609    -4.49897  1.08263    9781.6086  0.00205  56664.65103  52.47696  10.64215  19.22677   56693.0521 
    14.51277  2.05442  5.55794       1.87848         2722.57547  0.25923  0.25878     0.26272   1.54991     18.56635   5340.67793    -4.70643   1.4226    9184.5757  0.00205  56664.44357  52.30094  10.30089  19.22834   56692.0369 
    14.32814  1.66812  5.36091       1.50317         2655.44036  0.03595  0.11016     0.28062   3.51181     17.58498   7094.62695    -4.39827  1.47815  10831.70018  0.00021  56664.75173  52.55739   1.85405  19.23534   56692.0369 
    14.48372   1.8828   5.0796       1.48768          2995.2136  0.09716   0.0986     0.13424   4.42738     16.68158   4801.69145    -4.25491  1.50533   9284.47301    3e-05  56664.89509  52.45085    5.3358  19.27118   56693.0521 
    14.40776   1.8059  5.66519       2.30611         2539.92439  0.01416  0.12411     0.13385   2.73729      17.1499   5308.83861     -4.2848  1.11759  10056.61637    8e-05   56664.8652  52.46144   0.67911  19.26256   56693.0521 
    14.70576  2.10237  3.60459       2.28614         2681.79201  0.30065   0.1928      0.2624   2.68988     19.52852   4948.99092    -3.76285  1.14803   8949.19163  0.01876  56665.38715  52.35781  14.34428   19.2631   56692.0369 
    14.60008  1.75753  4.47829       1.04962         3277.48914  0.05819  0.03709     0.02271  11.57672     19.36092    5609.5502    -4.40996  0.82763    8985.5969  0.01275  56664.74004  52.52042   4.00434  19.25351  56692.82422 
     14.4456  1.93953   5.6339       1.35612         3025.58638  0.02522  0.08961     0.34093   4.46958     17.94338   5399.06091    -5.06552   1.3216   9443.77021  0.00049  56664.08448  52.46671   1.38825  19.25342   56693.0521 
    14.44308  1.59834  4.24025       4.00066         2205.55293  0.08789  0.06199     0.08336    7.3704     16.72191   4081.10396    -3.72225  1.12957   9983.34132    3e-05  56665.42775  52.56858   5.47421  19.25214  56692.82422 
    14.41744  1.90426  5.52356         2.108         2582.96206  0.00196  0.15685     0.31997   2.39974     16.32652     6757.364    -5.37572  1.32664   9490.68353    1e-05  56663.77428  52.39354   0.09026  19.25469  56692.82422 
    14.56385  2.04003   5.4172       2.96573         2371.49604  0.14414  0.13627     0.29168   3.17957     17.67571   5753.86412    -3.81036  1.16615   9626.43801  0.00026  56665.33964  52.44265   7.22547  19.24951  56692.83594 
     14.2884  1.60743  5.11279          3.14         2284.83928  0.04691  0.27665     0.35559   1.46421     17.68521   3948.27958     -5.1809  1.43712  10487.78437  0.00027   56663.9691  52.40711   1.82552  19.23106   56692.0297 
    14.50743  1.40783  2.72257       4.12721         2296.14611  0.31904  0.16467      0.1856   3.30049      19.4913   4295.74011     -2.2098  1.01357  10186.78276  0.01722   56666.9402  52.49644  16.16524   19.2752   56693.0452 
    14.50451  1.96013  5.45497       4.18219          2062.9365   0.1951  0.21964     0.39075   2.08208     17.34743   4530.44821    -4.37469  1.23902  10564.52909  0.00012  56664.77531  52.46684   8.58546  19.26824   56693.0452 
    14.27412  1.39045  4.27361       4.31795         2296.45138  0.10775  0.17936       0.374    2.3726     16.38299    4264.8059    -4.92227  1.17457   9908.46992    1e-05  56664.22773  52.42941   4.94537  19.25984   56693.0452 
    14.53004  1.82793  4.89591       1.02212         3305.86428  0.11612  0.11813     0.29644   3.92087      16.0552   5093.87185    -3.59046  1.09475  10009.54742    1e-05  56665.55954  52.50204   6.17268   19.2591  56692.83594 
    14.46103  2.07961  6.13111       1.76182          2653.3682  0.02557  0.20162     0.47527   2.13564     16.38852   4655.03601     -5.0246  1.50815   10391.6839    1e-05   56664.1254  52.45612    1.1347  19.25784   56693.0521 
    14.48145  1.90844  5.48699       1.34163         2891.94922  0.00439  0.08701     0.11064   4.69689      18.6096   4698.25667    -6.88917  0.94723   9409.26291  0.00226  56662.26083  52.46915   0.24471  19.25173   56693.0521 
    14.38307  1.76322  5.30099        2.6026         2453.52924  0.04483  0.11658     0.11636   3.15095     18.25706   6258.91352    -4.58373   1.3362   9593.36139    0.001  56664.56627  52.43852   2.24139  19.26102   56692.0369 
    14.51027  1.75311  4.31522       1.02414         3272.28755  0.07474  0.05065     0.21472   9.33292     17.59157   4000.62103    -3.02503  1.35104   9992.33771  0.00022  56666.12497  52.59254   4.91065  19.25619   56693.0521 
    14.65865  2.10073  4.90172       1.37356         2956.97354  0.29277  0.20127     0.19305   2.35997     18.51141   5754.76983    -4.23443  1.06802   9521.25648   0.0018  56664.91557  52.39405    13.414  19.25948   56693.0521 
    14.65733  1.98145  4.21311       2.37726          2492.0447  0.16202  0.09416     0.06144   5.35329     20.01095   5148.67033    -3.60404  0.98837    9975.8694  0.05697  56665.54596  52.53443    9.3427  19.22932   56692.0297 
    14.54537  2.04546  5.40695       2.18214         2519.93056  0.10506  0.12988     0.17305   3.57448     18.08671   5690.29561    -4.83005  1.23969     9913.991  0.00068  56664.31995  52.48264   5.44467  19.27688   56693.0452 
    14.63522  2.07161  4.54024       2.04652         2664.69919  0.19004  0.12243     0.19482   3.91144     18.80334   4729.65907    -3.83511  1.23195   9413.38328  0.00353  56665.31489  52.44842   10.0957  19.26225  56692.82422 
     14.6739  1.75851  2.30225       2.02512         2837.77775  0.30138  0.14821     0.12405   3.69351     18.41168   4957.61843    -1.76927  1.20674   9668.05333  0.00143  56667.38073  52.46477  15.76069  19.24711   56693.0521 
    14.49501  1.59095  3.97156       4.58647         2117.31377  0.35846  0.17444     0.13942   3.05865     19.15356   3281.07423    -2.80486  1.22889  11055.85716  0.00791  56666.34514  52.55801  17.76802   19.2655   56691.2419 
    14.27295   1.5042  4.86258       2.25338         2535.25996  0.00558  0.12002     0.19972   3.10085     16.45172   5156.35849    -6.08147  1.12231  10305.48877    2e-05  56663.06853   52.4987   0.27752  19.24286   56692.0369 
    14.29579  1.59999  5.17744       4.17795         2228.27575  0.01074  0.15838     0.33526   2.42141     18.01019   3648.70896    -4.01851  1.37582  10813.63107  0.00057  56665.13149  52.50811   0.49586  19.26718   56693.0452 
    14.43601  1.92033  5.77422       2.44427         2469.18716  0.03291  0.13873     0.21511   2.83026     16.90064   5231.48101    -4.40173   1.3099  10188.39832    4e-05  56664.74827   52.4771    1.5942   19.2639  56692.82422 
    14.52052  1.67749  3.74969       2.16913          2727.8833  0.15492  0.08387     0.08535   6.35953     17.90755   4666.04786    -3.05876  1.52025   9965.79989  0.00045  56666.09124  52.55192   9.31937  19.25225  56692.82422 
    14.68534  1.88953  2.15624       1.78324         2761.00207  0.09455  0.05487     0.05768  10.76771      19.9572    4610.3488    -3.41323  1.22894   9215.46473  0.05034  56665.73677   52.5357    6.4076  19.25861   56693.0452 
    14.54074  1.85704   4.0345       2.38052         2588.28221  0.10977  0.10578     0.09968   4.89029     18.65319   5075.72126    -4.44473  1.26359   8919.90284   0.0025  56664.70527  52.42728    6.1861   19.2756   56693.0521 
    14.42291  1.94904  5.77028       3.70573          2365.0845  0.00224  0.16738     0.35403   2.33898     16.34918   4942.63561    -4.51295  1.55951   9832.30775    1e-05  56664.63705  52.42075   0.10221  19.22765   56692.0297 
    14.26549   1.4252  4.49242       2.11545         2733.60276   0.0874  0.08244     0.05822    4.7977     17.84825   5483.99408    -4.48895  1.43325   9608.30349  0.00039  56664.66105  52.48972   4.90133  19.26138  56692.82422 
    14.45224  2.09358  6.30495       2.41667         2441.68723  0.00161  0.19412     0.27806   2.05372     16.24843   4908.72658    -4.99383  1.42567  10423.38313    1e-05  56664.15617  52.45319    0.0704  19.26189   56693.0521 
