 texplosion  fnickel    Pspin  log(Bfield)      Mns  thetaPB  mejecta    kappa  kappagamma      vejecta  temperature    alpha  cutoff_wavelength  log(nhhost)      A_V         MJD0  kenergy  mnickel            TSD   log(L0)  Peak_mag     Peak_MJD  log(E_rad)  log(Peak_lum)  Rise_Time    E_fold  tau_1  delta_m15     r_peak     frac 
   -8.05606  0.01383  5.48157     14.16717  1.68726  1.28505  1.94092  0.16412     0.02656   9816.89552   5219.76482  1.92043         2764.38422     17.12957    7e-05  56661.09394  1.11579  0.02685  2180047.45404  44.67975  19.27193   56693.0521     50.6888       44.18502   20.66083  24.37512   29.5     0.4863  -20.91691  0.99552 
   -6.03259  0.25838  5.73545     14.37823  1.75949  1.41925  5.24078  0.08018      0.0122  10225.11494   5214.09464  2.31556         2763.62177     18.68629   0.0027  56663.11741  3.26858  1.35411   941602.34315  45.02323  19.27604   56693.0521    50.70542       44.18558   17.52389  24.64968   29.5    0.47477  -20.91903   0.8126 
   -5.63463  0.00423  5.37038     14.42659  1.70845  0.82452  6.11535  0.06509      0.0164  10101.99522   5118.24563   3.0464         2591.03416     18.89228  0.00434  56663.51537  3.72274  0.02587   641583.44735  45.23418  19.26998   56695.1881       50.71       44.19119   15.28155  25.03444   30.5    0.44729  -20.90152  0.99597 
   -6.66456  0.00334  5.55768     14.30712  1.76341  1.51866   2.2372  0.19699     0.06939  11198.53983   4806.65513  2.83857         2579.39752     16.31363    1e-05  56662.48544  1.67361  0.00748  1229491.88007  44.93569  19.28535   56695.1881    50.69968       44.17264   17.52389  25.14068   31.0     0.4428  -20.94814  0.99881 
   -6.07718  0.11888  5.56161     14.41321  1.86083  1.56439  5.33941  0.08546     0.02256  10918.50906   4820.02885  2.41591         2618.07167     17.89614  0.00044  56663.07282  3.79706  0.63475   797080.20893  45.14665  19.31107   56695.1881    50.77716       44.22915   11.13057  29.17608   30.0    0.43281  -20.92868  0.91465 
     -7.387  0.01962  5.95852     14.38417  1.81348  0.66289  2.64342  0.12453     0.02503  10952.25328   5065.76655  2.30141         2457.80861     17.82521  0.00037    56661.763  1.89147  0.05187  1019226.43774  44.96881  19.27665   56693.0521    50.71047       44.18985   15.89172  26.01662   29.5    0.47335  -20.93278  0.99084 
   -6.15043  0.01561  5.77696     14.39632  1.81909  0.89239  4.53985  0.08443     0.02185  10921.12683    4859.2609  2.58707         2626.47631     19.66904  0.02593  56662.99957  3.23001  0.07089   908711.74892  45.04687  19.25763   56693.0521    50.70043       44.16588   17.52389  25.14068   30.0    0.45384   -20.9709  0.98843 
   -4.12433  0.01379  3.90262     14.42458  1.61764  1.29612  4.28694  0.14132     0.16032  11387.58785   4768.78675  2.59807         2626.87784     18.54698  0.00196  56665.02567  3.31618  0.05913    323785.9503  45.78476  19.26677   56695.1881    50.70623       44.18213    16.8739  25.79066   28.5    0.46374  -20.92441  0.99481 
   -6.09195  0.03481  5.46056      14.4186  1.91781  1.49942  2.73241  0.17105     0.07343  10782.51826   4646.22795  2.12919         2679.35552     16.91751    5e-05  56663.05805  1.89502  0.09511   772493.48098  45.18928  19.27398   56695.1881    50.71093       44.16752    16.8739  25.79066   30.5    0.45264  -20.91932  0.98728 
   -5.97224   0.0368   4.7406     14.49842  1.94477  1.50448  5.96705  0.09406     0.18527  10461.44561   4467.05037  2.08167         2847.84901     16.66726    3e-05  56663.17776  3.89556  0.21959   408804.10829  45.59453  19.27286   56695.1881    50.70549       44.17136    16.8739  25.79066   30.0    0.41947  -20.91454  0.97866 
    -5.6665  0.00712  4.63593     14.55052   2.0238  1.02607    3.925  0.13246     0.17825  10923.68496   4707.75503  2.20095         2577.80043     20.06388  0.06436   56663.4835  2.79386  0.02793   320050.10166  45.73752  19.28296   56693.0521    50.69738       44.17312    16.8739  25.79066   29.5    0.43862   -21.0087   0.9975 
   -6.00132  0.44811  4.96821     14.37579  1.65741  1.32186  2.44824  0.17929     0.03345  10496.49994   5071.93894  2.71539         2624.05427     19.32863  0.01184  56663.14868  1.60905  1.09708   673066.74698  45.26782  19.26134   56693.0521    50.69641       44.17425    16.8739  25.79066   29.5    0.46215  -20.94819   0.8674 
   -5.76873  0.05697  5.67396     14.33004  1.62501   0.8398  3.17919  0.10548     0.03936  11970.41952   4693.29665  1.97801         2642.69998     17.19215    9e-05  56663.38127  2.71745  0.18112  1062570.22839  44.94557  19.29948   56695.1881    50.67178       44.14946   17.52389  26.16242   31.0    0.47051  -20.96684  0.96686 
   -5.00483   0.0441  4.00398     14.50682  1.77998  1.19343  5.65348  0.11187      0.0978  11074.00352   4625.35229  2.55215         2651.32049     16.82564    4e-05  56664.14517  4.13573  0.24932   256783.42804  45.90471  19.28442   56695.1881    50.67977       44.15796   19.40683  26.16242   29.5    0.40149  -20.92965  0.98036 
   -5.44625  0.02139  3.64164     14.28604   1.4263   1.3474  3.15436  0.17769     0.35814  11068.96402   4583.96368  3.68918         2270.47471     19.80145  0.03517  56663.70375  2.30543  0.06747   470466.44626  45.62793  19.29219   56693.0521    50.74937       44.23214   15.28155  25.79066   30.0    0.43344  -20.94287  0.99374 
    -4.9866  0.04804  4.59104     14.51248  1.85242  1.09502  1.87661  0.30616      0.3228  11806.64374    4670.2298  3.06449         2378.41273     16.16828    1e-05   56664.1634  1.56047  0.09016   342310.55041  45.67834  19.26812   56693.0521    50.76062       44.23618   15.43006  26.00729   29.0     0.4401  -20.95395  0.99105 
   -5.85447  0.00744  3.81015     14.34511  1.44929  1.08705   3.5668    0.155     0.18469  10358.10284    4838.1091  2.78664         2697.46632     17.29511  0.00011  56663.29553  2.28279  0.02653   398687.06072  45.66749  19.29501   56695.1881    50.67036       44.14178   19.40683  26.16242   30.0    0.43131  -20.92471  0.99736 
   -5.36049  0.03476  4.67006     14.48551  1.89454  1.33615  3.19879  0.17472     0.15062  11053.02036   4583.84419  2.93216         2580.39029      16.0933    1e-05  56663.78951  2.33118  0.11118   410147.00585  45.59477  19.27106   56693.0521    50.73188       44.19526   12.72293  29.45064   29.5    0.44369  -20.95069  0.98898 
   -5.71188  0.09076  5.45901      14.4125  1.84771  1.26966  3.92559  0.11524     0.03909   11357.4868   4813.74179  2.69451         2448.02419     18.49813  0.00175  56663.43812  3.02062  0.35629   765038.10465  45.17757   19.2941   56693.0521    50.71079        44.1949    16.8739  25.03444   30.0    0.46546    -20.946  0.95145 
   -6.92638  0.03665  5.18365     14.43433  1.93431   1.4268  4.97244  0.10574     0.04572  10849.99182   4609.22544  1.93149         2715.77609     19.00731  0.00565  56662.22362  3.49185  0.18225   653075.02052  45.31114  19.27093   56695.1881    50.66926       44.15658   19.40683  25.14068   31.0     0.4332  -20.93779  0.97854 
   -8.54069  0.47291  6.00022     14.21796  1.74966  1.47807  3.06435  0.12005     0.01466   9854.38644   4807.49513  2.05852         2674.17671     17.75683  0.00032  56660.60931  1.77511  1.44916  2143770.23848  44.62429  19.28531   56693.0521    50.69892       44.18501   18.75685  25.29966   30.5    0.48589  -20.91175  0.78416 
   -4.61361  0.00541  3.99513     14.40202  1.63259  1.27141  3.29248  0.17424     0.09803  11397.10146   4967.55138  2.21702         2649.64162     19.55572  0.01997  56664.53639  2.55117   0.0178   379931.05999  45.69896  19.27386   56695.1881    50.68736        44.1656   17.52389  26.16242   28.5    0.44488  -20.96612  0.99837 
   -6.54116  0.24979  5.00584     14.48856   1.8422  1.25839  5.96469  0.08481     0.01184  10209.87707   5010.88718  2.38075         2643.22243     18.26864  0.00103  56662.60884  3.70899  1.48994    451832.5267  45.48025  19.28004   56695.1881    50.70548       44.16779   15.89172  26.77285   29.0     0.4318  -20.90984  0.84798 
   -4.76638  0.02525  4.11225     14.40447  1.69419  1.27886  4.43632  0.11952     0.06278  11098.09307   4880.63796  2.17815          2679.6615     20.07398  0.06587  56664.38362  3.25947  0.11203   413051.70098  45.65364  19.27341   56695.1881    50.65653       44.15536   20.93549  23.61202   29.5     0.4478  -21.00618  0.98981 
    -4.9615  0.01933  5.32996     14.41242  1.69776  0.92377  5.05243  0.07789     0.02252  10620.34451    5016.1693  2.32766         2745.59813     17.08094    7e-05   56664.1885  3.39942  0.09767   670340.61623  45.21898  19.26328   56693.0521    50.71856       44.20552   17.77466  26.00729   29.5    0.45952  -20.92782  0.98506 
   -5.69171  0.02073  5.00124     14.39883  1.71301  1.13286  4.55197  0.10636     0.04008  11233.50616    5038.2571  2.19337         2708.22191     16.21447    1e-05  56663.45829  3.42655  0.09436   633984.81869  45.30237  19.26985   56693.0521    50.72124       44.20042   17.77466  26.00729   29.0     0.4493  -20.94693  0.98747 
   -4.23483  0.00946  4.17548     14.51454  1.70075  0.92554  5.94976   0.0967     0.05294  11175.21377   4824.88244  2.59293         2581.44457     17.32074  0.00012  56664.91517  4.43239  0.05626   257505.36229  45.84729  19.25607   56693.0521     50.7036       44.18403   17.48408  26.28185   28.5    0.44305  -20.93243  0.99473 
   -6.56921  0.12545  5.19692     14.45941  1.91442   1.1956  3.73146  0.14102     0.04648  11476.40771   4757.42464  2.78865         2374.84145     19.64884  0.02475  56662.58079  2.93169   0.4681   578790.74966  45.35687  19.29392   56693.0521    50.70333       44.17538    16.8739  25.79066   30.0    0.41543  -20.96951  0.94563 
   -4.83711  0.02209  4.98808     14.49855  2.00359   1.2381  3.63766  0.13961     0.09299  11154.37685   4747.54574  2.31707         2656.95047     20.07779  0.06645  56664.31289  2.69985  0.08037   465997.76993   45.5064  19.26626   56693.0521    50.71122       44.17633   18.75685  25.79066   30.0    0.44751   -21.0038   0.9916 
   -6.39874  0.01586  6.00253     14.34281  1.93476   1.5328  4.71483  0.08949     0.02106  11055.58697   5117.41456   2.3778         2544.46685     17.51907  0.00018  56662.75126  3.43761  0.07478  1335032.95414  44.87331  19.27352   56693.0521    50.69095       44.17849   19.11624  24.64968   29.0    0.45722  -20.93775    0.988 
   -6.09013  0.00954  5.60903     14.43385  1.80738  0.88106  2.59972   0.1519     0.03632  10149.76401   4960.27248  2.16811         2799.84314     16.78395    3e-05  56663.05987  1.59759  0.02479   716059.38685  45.17317   19.2759   56695.1881    50.69695       44.18002   19.40683  24.64968   30.0    0.43583  -20.91461  0.99613 
   -4.22277  0.10243  4.33603     14.64523  1.91037  0.88352  2.83237  0.23546     0.11898  12032.48846   4853.29093  2.32247          2774.6011     18.77721  0.00333  56664.92723  2.44618  0.29011   170863.82184  46.04313  19.27566   56693.0521    50.69866       44.17295   15.89172  26.77285   28.0    0.44464  -20.97173  0.97601 
   -5.54568    0.132  4.40638     14.57005  1.57835  0.60329  1.98394   0.2651     0.16046  11476.52225    4547.1705  2.37613         2462.24972     16.69091    3e-05  56663.60432  1.55875  0.26187   206098.59112  45.86481  19.29738   56695.1881    50.69477       44.16945    16.8739   26.8124   30.5    0.43828  -20.94655  0.97008 
    -4.3233   0.1273  3.38256     14.41121  1.53949  1.47263  3.37031  0.18402     0.08611  11223.50507   4947.06322  2.46425         2615.19754     18.99821  0.00553   56664.8267  2.53253  0.42905   246181.49758  46.00648  19.26701   56695.1881    50.69205       44.17174   17.52389  26.16242   29.0    0.42985  -20.92925  0.97054 
   -5.71144  0.04026  5.09643     14.38828  1.79625  1.41513  3.50533  0.13023       0.051  10730.37424   4854.67888   2.3495         2759.11811     19.70839  0.02839  56663.43856  2.40761  0.14112   724680.85069  45.24853  19.28661   56693.0521    50.68757       44.16198   18.46626  25.79066   30.0    0.45739  -20.96418  0.98198 
   -7.63982  0.04226   4.4234     14.28209  1.38786  0.84445  3.15701   0.1513      0.0331  10663.48827   4833.12755  3.26272         2485.51534     17.56461   0.0002  56661.51018  2.14142  0.13342   687838.94271  45.28219  19.25152   56695.1881    50.75119        44.2295   16.41224  25.29966   29.5     0.4232   -20.9332  0.98105 
   -5.67353  0.00407  4.42593     14.46774  1.77322  1.02906  4.77111  0.11505     0.04932  10594.66693   4833.11843  2.69267         2568.70001     19.72694  0.02963  56663.47647  3.19463  0.01942   374212.10749  45.65248  19.29296   56695.1881    50.73349       44.20131   15.89172  26.01662   30.0    0.41855  -20.94866  0.99807 
   -6.97613  0.07865  5.66005     14.36361  1.87847   1.4529  3.37347  0.13241     0.03785  11291.82013   4744.24722  1.81473         2717.52505     19.36911    0.013  56662.17387  2.56586  0.26534  1047229.55969  45.01697  19.24867   56693.0521    50.70611       44.18427    16.8739  25.03133   29.5      0.446  -20.96568  0.96159 
   -4.04392  0.05101  4.08028     14.52598  1.76504  1.11445   4.1655  0.15629     0.43434  11842.24024   4721.60949  1.99113         2850.26872     18.31871  0.00116  56665.10608  3.48468  0.21248   242098.14923  45.91023  19.27858   56695.1881    50.68422       44.17669   17.52389  24.64968   28.0     0.4581  -20.95663  0.98236 
    -6.4444  0.00586  6.59795     14.28599  2.05541   1.3691  2.75609  0.11624     0.02584  11026.06614   5011.03399  3.25704         2427.05007      16.8602    4e-05   56662.7056  1.99877  0.01616  2226169.08264  44.59537  19.27077   56695.1881    50.68444       44.16309   17.52389  25.14068   30.0    0.48806   -20.9539  0.99709 
   -8.18867  0.35646  6.48073     14.28125  1.94768   1.5695  3.45121   0.1071     0.01526  10621.12196   4853.01115  2.00862         2488.83931     18.53589  0.00191  56660.96133  2.32241   1.2302  2080133.14942  44.61702  19.27781   56693.0521    50.71245       44.18265   15.89172  26.28185   29.5    0.50029  -20.92455  0.81159 
   -5.43136  0.02626  4.08179     14.36053  1.56463  1.37101  6.14925  0.08803     0.05028  10305.00719   4543.66241  2.38853         2843.38449     19.47894  0.01674  56663.71864  3.89534   0.1615   460126.43264  45.57868  19.28001   56693.0521    50.70908       44.17366    16.8739  25.79066   30.5    0.41735  -20.92497  0.98379 
   -6.91762  0.05718  5.06248     14.42213  1.86268  1.32948  6.04492  0.09117     0.01973  10643.64975   4970.94375  2.59124         2509.96255     17.57129  0.00021  56662.23238  4.08507  0.34564   634468.91689  45.32785  19.28239   56693.0521    50.70508       44.18328   18.75685  25.79066   29.5    0.41818  -20.90791  0.95972 
   -4.97506  0.03128  4.76374     14.52693  1.80471  0.90729  3.10068  0.17339     0.08853  11264.34798   4719.89839  2.41595          2642.7088     17.12331    7e-05  56664.17494  2.34691    0.097    335946.6314  45.64309   19.2732   56695.1881    50.71509       44.17737   15.89172  26.77285   29.0    0.44346  -20.95187  0.98921 
   -4.71359  0.03929  4.19912     14.30351  1.51866  1.47167  3.04542  0.17245     0.11213  11551.08319   4729.43379   3.4691          2387.6359     19.49424  0.01734  56664.43641  2.42393  0.11965   614579.98419  45.41541  19.28266   56695.1881    50.72089       44.19383   17.48408  26.77285   29.5     0.4474  -20.97304  0.98663 
   -4.91955  0.01792  4.35947     14.45253  1.78642  1.30115  2.92978  0.20087     0.14515  11201.19354   4709.73798  2.17264         2616.36499     18.43602  0.00152  56664.23045  2.19276  0.05251   392292.11035  45.64835   19.2743   56695.1881    50.71148       44.19245    16.8739  25.29966   29.0    0.43528  -20.93313  0.99502 
   -4.56445  0.02064  3.91762      14.7022  1.83404  0.66846  4.18837  0.15461     0.13656  11390.12277   4680.67304  2.74482         2455.09302     19.11311  0.00721  56664.58555  3.24137  0.08645   103007.38268  46.33334  19.27313   56693.0521    50.69937       44.16967   19.40683  26.16242   28.5    0.41265  -20.92784   0.9937 
   -4.42104  0.00566  4.54681     14.52498  2.10592  1.37097  2.67824  0.19435     0.17652  10572.02968   4743.93825  2.50771         2649.12352     20.40683  0.14176  56664.72896  1.78564  0.01517   360337.25424  45.72016  19.26027   56693.0521    50.67793       44.16038   19.40683  25.14068   29.5    0.42021  -21.03779  0.99877 
   -4.82791  0.11304  4.29889     14.26516  1.40211   1.4202  4.16479  0.10811     0.05612  10587.79808   4415.47755  2.85789         2665.11682     17.13094    8e-05  56664.32209  2.78504   0.4708   709547.20559  45.29793  19.26663   56695.1881    50.68097       44.16433   17.52389  25.14068   32.0     0.4346  -20.92351  0.94066 
   -7.05261  0.04929  5.06469     14.29541  1.59794  1.12076  4.53312  0.09636     0.02739  10931.68985   4951.42846  1.83106         2734.47786     18.54247  0.00194  56662.09739  3.23146  0.22342   976495.46179  45.07363  19.27222   56695.1881    50.66997       44.15639   17.52389  25.14068   30.0    0.45264  -20.93771  0.96679 
   -6.44205  0.15498  5.65391     14.35486  1.81877  1.48456  3.34008  0.12126      0.0311  10707.40779    4984.7044  2.48833          2624.6846     18.35882  0.00127  56662.70795   2.2843  0.51765    1053335.434  45.00136   19.2948   56693.0521    50.69702       44.15977   18.46626   26.8124   30.5    0.45354  -20.94428  0.92455 
   -4.11733  0.15169  3.17298     14.57906  1.81083   1.4258  4.60553  0.14663     0.17242  11138.98409   4437.74412  3.37218         2601.78654     19.09978  0.00699  56665.03267  3.40877  0.69861   117627.96721  46.45328  19.28432   56693.0521    50.67866       44.15375   19.40683  26.16242   30.0    0.39775  -20.92306  0.96839 
   -5.55214  0.15546  4.42746     14.41775  1.67716  1.34543  2.93555   0.1844     0.11509  11371.66169   4560.65537  1.87301         2805.62356      17.7713  0.00033  56663.59786  2.26446  0.45637   445869.31719   45.5519  19.27705   56693.0521      50.706       44.18195   17.77466  26.28185   29.5    0.45578  -20.95274  0.95294 
   -6.99911  0.17657  4.95441     14.26154  1.53259  1.25777  3.91448  0.12915     0.02226  11333.77234   4814.61394  2.42359         2493.48636     16.93551    5e-05  56662.15089  2.99951  0.69117  1047482.76264  45.04414  19.27557   56695.1881    50.74733       44.24644   19.11624  24.64968   27.5    0.46251  -20.94285  0.90239 
   -7.79349   0.0121  6.35539      14.3358  2.03539  1.06551  3.93515  0.08489     0.01465   9892.30837   4956.01269  2.07531         2630.65183     16.57921    2e-05  56661.35651  2.29712  0.04762  1626084.70126  44.76007  19.29153   56695.1881    50.72971       44.19631    16.8739  25.29966   30.5    0.45657  -20.89666  0.99197 
     -7.733  0.11121  5.83473     14.30654  1.79612  0.91044  3.39458  0.10976     0.01539    10215.006   4991.71762  3.07347         2452.95467     16.27545    1e-05    56661.417  2.11296  0.37753  1383902.38027  44.85003  19.29599  56695.47266    50.71153       44.19891   20.67275   24.8965   29.5    0.47938  -20.92416  0.93876 
   -5.20747  0.00964  4.59526      14.4337  1.79973  1.54346  3.33086   0.1682     0.11468  10944.20601   4738.09304  2.66512         2630.96751     18.84075  0.00385  56663.94253  2.37986   0.0321   478899.62215  45.51919  19.25755   56693.0521     50.6837       44.18236   19.11624  24.38445   29.5    0.44279  -20.92906  0.99664 
   -6.41631  0.00441  4.22723     14.39846   1.7121  1.48794  3.00329  0.19131     0.06264  10037.94148   4876.12338  1.95943         2923.40846     17.94789  0.00049  56662.73369  1.80515  0.01326   453457.23401  45.59373  19.27363   56693.0521    50.74274       44.22519   17.48408  26.00729   29.5    0.41396  -20.89918  0.99874 
   -3.93984  0.09733  4.99021     14.60006  2.05385  1.11597  2.06388  0.27167     0.20289  10919.52189   4604.18297  2.27172         2804.10113     16.83667    4e-05  56665.21016  1.46798  0.20087   299572.55834  45.70867  19.26377   56693.0521    50.70881       44.19379   15.89172  26.00729   29.0    0.43497  -20.91339  0.98007 
   -5.13746  0.06754  4.86467     14.50072  1.90571  1.23574  2.85079  0.18053     0.05912  10709.96046   5103.73239  2.34695         2815.28073     18.93215  0.00475  56664.01254   1.9506  0.19255   417395.05482  45.55425  19.27353   56693.0521    50.69038       44.17684    16.8739  25.02511   29.0    0.44896  -20.94854  0.97964 
   -5.01194  0.03331  4.61424     14.56133  2.03733  1.27405  4.97192  0.11981     0.16169  10825.52349   4700.31158  1.99355         2772.02314     19.43757  0.01522  56664.13806  3.47575  0.16561   303676.50923  45.76729  19.29662   56695.1881    50.80006       44.27155   15.89172  26.00729   29.5    0.43381   -20.9229  0.98572 
   -5.26571  0.00342  5.42475     14.43666  1.92219  1.55536  4.00084   0.1269     0.11261  11121.45833   4561.76346  2.49115         2768.84402     16.36508    1e-05  56663.88429   2.9519   0.0137   703146.30587  45.23684  19.26191   56693.0521    50.68068        44.1573   19.40683  26.16242   30.0    0.45508  -20.95075  0.99818 
   -4.99111  0.11553  2.59076     14.77605  1.18757  0.28923  7.19802  0.10048     0.01383  11020.33678   5211.82111  2.58937         2282.04648     16.71806    3e-05  56664.15889  5.21471   0.8316    20760.09792  47.19942  19.28165   56695.1881      50.698       44.17283   19.40683  25.14068   27.0    0.40393  -20.89821  0.95171 
   -4.56544  0.02062  3.87011     14.49147  1.55037  0.84705   7.3912  0.07667     0.04789  10525.37292   4826.23346  2.30084         2717.54716     17.83263  0.00038  56664.58456  4.88447  0.15239   224262.01872  45.93308  19.27456   56693.0521     50.7089         44.174    16.8739  25.03444   29.5    0.42393    -20.892  0.98606 
   -5.87541   0.0406  4.93438     14.44194  1.67708  0.85703  3.14377  0.14979     0.05889  11429.14936   4847.72603  2.14368         2525.26705     18.89974  0.00441  56663.27459  2.44966  0.12764   495405.09042  45.41197  19.28817   56695.1881    50.71046       44.17993    16.8739  25.79066   30.0     0.4553  -20.95437  0.98302 
   -6.23392  0.04776   5.5861     14.27136  1.72032  1.46633  2.50958  0.13926     0.04228  10842.45856   4928.50663   2.5465         2573.24165      18.4292  0.00149  56662.91608  1.75988  0.11985  1428621.71711  44.85532  19.26322   56693.0521      50.725       44.19525   15.89172  26.00729   30.5    0.47829  -20.94219  0.98028 
   -6.46821  0.08846  6.33291     14.40257  1.99579  1.34227  3.21495  0.13065      0.0339  10727.41472   4896.16808  2.20764         2863.89893      18.4214  0.00147  56662.68179  2.20695  0.28439  1164115.67147  44.89976  19.26722   56693.0521    50.68611       44.17688   19.11624  24.64968   30.0    0.45013  -20.93567  0.95325 
    -5.4492  0.23593  5.68257     14.34858  1.70344   1.1001  2.30477  0.15995     0.04837  11166.62471   4757.28868  2.21246          2651.0032      17.5575   0.0002   56663.7008  1.71435  0.54377  1025844.70735     44.98  19.27979   56695.1881    50.69117       44.14812    16.8739   26.8124   30.5    0.47219  -20.94393  0.91265 
   -4.74843  0.04748  4.46348     14.28569  1.49708  1.54072  3.51526  0.13998     0.05865  11477.16146   4879.38016  3.14144         2545.53652     17.34319  0.00012  56664.40157  2.76219  0.16691    743069.8879  45.27371  19.27662   56693.0521    50.71373       44.17762   15.89172  26.28185   29.5    0.47263  -20.96353   0.9786 
   -4.66693   0.0082  3.92226     14.34265   1.4885  1.22725  3.44217  0.14942     0.05768  10028.62984   4918.85375  2.59071         2792.32708     17.27841  0.00011  56664.48307  2.06511  0.02821   438867.90119  45.61219  19.27944   56693.0521    50.72787       44.18744   18.46626  25.02511   30.0    0.42521  -20.90968  0.99714 
   -7.57556  0.09455  5.89236     14.31627  1.91022  1.45109  2.50215  0.16355     0.02434   9974.38097   4958.16844  2.37695         2687.90366     18.49706  0.00174  56661.57444  1.48495  0.23658  1435280.05473  44.85241  19.28035   56693.0521    50.69798       44.16318    16.8739  25.79066   28.5    0.47776  -20.91731  0.96359 
   -4.89443  0.02081  6.01361     14.46953  2.07378  1.49848  3.03942   0.1379     0.06825  10935.58686   4625.62738  2.44288         2701.72859     18.34183  0.00122  56664.25557  2.16821  0.06325   801286.79407  45.12355  19.27734   56693.0521    50.69093       44.17042    16.8739  25.29966   30.5     0.4826  -20.93706  0.99084 
   -4.15537  0.07574  3.81459      14.4903  1.47103  0.78105  2.38583  0.22779     0.18817  10795.42396   4693.95672  2.68593         2700.01484     16.65702    3e-05  56664.99463  1.65862  0.18071   207845.19893  45.95583   19.2709   56693.0521    50.71269       44.18829   15.89172  26.00729   29.5    0.44259  -20.91623  0.98268 
   -4.67157  0.03624  4.06257     14.46971  1.76622  1.35157  3.16105  0.18014      0.1961  10341.69619   4728.34352  2.41927         2744.84627     18.72354  0.00294  56664.47843   2.0167  0.11456    311198.4527  45.80525  19.26695   56693.0521    50.73641       44.21622   18.46626  25.29966   29.5    0.41972  -20.90574  0.99049 
   -4.39282  0.00249  4.07027     14.44846  1.68434  1.22394  4.13486  0.13348     0.09679  10263.38815   4945.23832  2.13844         2889.95359     17.41161  0.00014  56664.75718  2.59818  0.01029   328524.84533  45.75946  19.29109   56695.1881    50.69184       44.17189    16.8739  25.79066   29.0    0.44225   -20.8995  0.99907 
   -6.28677  0.45917  6.00648     14.48669  2.00341  1.07194  2.37901  0.17736     0.04779  11246.51796   4636.74858  2.64367         2592.48288     20.15109  0.07867  56662.86323  1.79498  1.09237   713573.46685  45.15994  19.28913   56693.0521     50.7119       44.18121    16.8739  25.79066   31.5    0.45137  -21.02512  0.85618 
   -5.55671  0.00842  4.67869     14.64085  1.80304  0.62671  1.63784  0.32346     0.47797  11028.29395   4380.71205  2.86113         2356.17162     18.29181  0.00109  56663.59329  1.18827   0.0138   191586.29506  45.90224  19.28048   56695.1881    50.69513       44.17383   21.92675  23.87476   30.0    0.42594  -20.91795   0.9985 
    -7.0835  0.02677  6.18528     14.29067  1.91118  1.48248  2.80227   0.1307     0.02755  10621.50348   5198.37314  2.32459         2715.73442     16.02945    1e-05   56662.0665  1.88586  0.07502  1780338.34768  44.71693  19.26144   56695.1881     50.7122       44.20439    16.8739  25.02511   29.5    0.47132  -20.93769  0.98694 
   -6.78235  0.02373  4.85719      14.2537  1.54891  1.21598  2.21162  0.18292      0.0506  10223.91231   4925.43463  2.24432         2650.69912     18.61152  0.00227  56662.36765  1.37903  0.05249  1054891.80348  45.06289  19.28279   56695.1881    50.70828       44.18358   18.75685  25.29966   31.0    0.44775  -20.91005  0.99229 
   -5.66549   0.0177  5.13586     14.41491  1.80542  1.22274  5.62515  0.09125     0.03248  11142.35338   4878.81667  2.20729         2695.90526     17.77166  0.00033  56663.48451  4.16596  0.09957    654341.9547  45.28839  19.26396   56693.0521    50.74423       44.23726    16.8739  25.02511   29.5    0.42931  -20.94147  0.98712 
   -4.44881   0.0398  3.79863     14.61358  2.04614  1.41971  4.94306  0.13506     0.14421    10526.077    4900.0544  1.40925         3386.14007      18.9572  0.00503  56664.70119  3.26706  0.19672   162498.12771  46.20968   19.2676   56693.0521    50.67516        44.1774   17.52389  24.64968   28.5    0.42407  -20.92698  0.98881 
   -6.63591  0.01427  6.03528     14.35098  1.82496  0.79288  2.09622  0.14558     0.02249   9661.77579   5150.16186  2.18636         2916.11146     18.39981  0.00139  56662.51409  1.16729  0.02991  1226039.48917   44.8802  19.26369   56693.0521     50.6858        44.1739    16.8739  25.29966   29.5    0.49834  -20.91837  0.99462 
   -6.54474  0.27679  4.35033     14.32453  1.51341  1.31482   3.2652  0.15142     0.03409  11099.34004   4982.46847  2.62332         2447.08789     19.17173  0.00825  56662.60526  2.39956  0.90376   596696.89566    45.396  19.27201   56695.1881    50.69905       44.18568    16.8739  25.29966   29.5    0.45212  -20.94549  0.90051 
   -6.54745  0.04974  3.84963     14.24472  1.39352  1.54798  2.99092  0.16694     0.07598  10405.43701   4734.88523  1.63748         2903.21535     18.79625  0.00348  56662.60255  1.93176  0.14876   621341.77721  45.44879  19.27252   56693.0521     50.7265        44.2001   18.75685  25.79066   30.5    0.43937  -20.92202  0.98415 
   -6.18116  0.11021  4.23127     14.50861  1.81106  1.11019  2.72444  0.23058     0.06024  11263.79253   5076.20404  1.78713         2820.73414      16.6542    3e-05  56662.96884  2.06193  0.30025   289374.05666  45.81238  19.27027   56693.0521    50.73969       44.22543    16.8739  25.02511   28.5    0.42414    -20.955  0.97432 
   -5.08184  0.00529  3.84787      14.3968  1.52279  1.04034  4.64967  0.11931     0.06564  10163.33094   4752.20329  3.64312         2501.13861     17.95246   0.0005  56664.06816  2.86498  0.02462   336748.15042  45.75374  19.28075   56695.1881    50.67797       44.16493   20.67275   24.8965   30.0     0.4107    -20.895  0.99768 
   -6.88911  0.00875  4.25393     14.33138  1.52108  1.09466  2.41768  0.21554      0.1071  10420.55575   4673.16594  2.17001         2775.13411     17.30537  0.00011  56662.26089  1.56606  0.02116   555641.37706  45.44862  19.28225   56695.1881    50.67735       44.16746   19.11624  25.14068   31.0    0.42312  -20.92256  0.99755 
   -6.22357  0.08498  5.03856     14.27648   1.5934  1.36966  2.60624  0.15806     0.04687  10592.13149    4949.5274  2.08544         2748.70819     17.92329  0.00047  56662.92643  1.74425  0.22148  1051442.94158  45.04477  19.25382   56693.0521    50.68706       44.16216    16.8739  25.79066   30.5    0.43755  -20.92708   0.9673 
   -7.73176  0.17432  6.22844      14.2993  1.86261  1.27847  5.52878  0.06782     0.01261  10994.40977   4824.63858  2.19809          2449.1056     17.34318  0.00012  56661.41824  3.98658   0.9638  1690848.50172   44.7221  19.26976   56695.1881    50.72123        44.1934    16.8739  25.29966   30.0    0.46309  -20.93948  0.84804 
   -5.66345  0.00222  4.13612     14.51617  1.92052   1.5011  3.60929  0.18797     0.10197  11354.73292   5090.33796  2.28273         2673.65062     17.90885  0.00045  56663.48655  2.77589  0.00802   283194.73347  45.86699  19.28145   56693.0521    50.71307       44.19194   15.89172  26.01662   28.0    0.42056  -20.93899  0.99939 
   -5.47487  0.02136  4.93782     14.47133  1.93889  1.46999  4.23123  0.12912     0.04727  10545.28104   4889.30639  2.90612         2546.90069     16.28182    1e-05  56663.67513  2.80679  0.09038   500941.38943  45.46954  19.26306   56693.0521    50.70464       44.19195    16.8739  25.02511   30.0    0.40792  -20.90541  0.99029 
   -5.70425  0.03926  4.47619     14.36475  1.65744   1.3702  3.39886  0.16053     0.04458  10725.67422    4914.2467  2.59448         2669.22695     18.69676  0.00276  56663.44575  2.33243  0.13344   574861.06937   45.4269  19.27077   56693.0521    50.71995       44.18376   18.75685  25.79066   29.0    0.42471  -20.94213  0.98516 
   -5.83849  0.04967  4.75825     14.46069   1.8526  1.26847  4.91966  0.10353     0.03402  10513.66171   4956.76566   2.8289         2472.26136     18.93266  0.00476  56663.31151  3.24392  0.24438   466785.09327  45.51262  19.26448   56693.0521    50.68979       44.16562   19.40683  26.16242   30.0    0.41593  -20.90781  0.97432 
   -4.70543  0.01896  1.59134     14.55952  1.51287  1.03429  8.80728  0.10385     0.09347  11476.08761   5368.97124  1.60748         2982.48072      17.1623    8e-05  56664.44457  6.91922  0.16696    27046.12224  47.61302  19.26761   56693.0521    50.70092        44.1898    16.8739  25.03444   28.0    0.36305  -21.02487  0.99827 
   -7.03284  0.18762  5.79297     14.27287  1.72327  1.45954  2.30273  0.16622     0.03593  10088.98947    4728.9435  2.10564           2890.137     16.16938    1e-05  56662.11716  1.39819  0.43203  1528381.67873  44.79516  19.26776   56693.0521    50.71233       44.17307    16.8739  25.79066   31.0    0.43369  -20.90657  0.92778 
   -5.37439  0.02618  4.47452     14.46916  1.82629  1.27964  4.13063   0.1438     0.07562  11317.43173   4800.27661  2.14775         2694.46622     19.01726  0.00578  56663.77561  3.15602  0.10815   391334.54807  45.63637  19.28289   56695.1881    50.67924       44.16328   19.11624  25.14068   29.0     0.4403  -20.95385   0.9896 
   -5.16544  0.00732  5.14763     14.42088  1.84528  1.30432  2.45689  0.19506     0.12412  11012.17976   4479.72287  3.10488         2443.87277     17.79525  0.00035  56663.98456  1.77729  0.01799    653624.0761  45.29636  19.29734   56695.1881     50.6756       44.16343   18.78981   24.8965   30.5    0.44499  -20.92732  0.99771 
   -3.35636  0.07412  4.15075     14.50326  1.78789  1.31936    4.856  0.11862     0.08806  11440.56737     4574.396  1.90376         2835.71198     19.34542  0.01231  56665.79364  3.79142  0.35993   281770.28324  45.83504   19.2654   56693.0521    50.68144       44.15675   19.40683  26.16242   28.5    0.47103  -20.94949  0.97005 
   -4.58537  0.00288   4.2726     14.42977  1.73107  1.35476  4.52019   0.1373     0.10297  11545.25503   4896.16412   2.4693         2532.74779     17.92296  0.00047  56664.56463   3.5941  0.01303   405490.41545   45.6378  19.27917   56693.0521    50.69184       44.17345   18.46626  25.79066   28.5    0.44819  -20.93404  0.99875 
   -3.04533  0.07448  1.59404     14.86144  1.91779  0.74024   8.5449  0.09788     0.48052  11791.12447   4637.69377  1.83093         2716.47056      19.8646  0.04068  56666.10467  7.08671  0.63641     8565.17926  48.21391  19.28783   56695.1881    50.68002       44.16687   20.67275  23.87476   28.5    0.41937  -20.91252  0.99678 
   -5.20189  0.01679  4.28581     14.50273  1.90672  1.51132  5.06587  0.11735     0.07014  10867.67276   4911.27355  1.90004         2836.30697     19.23435  0.00953  56663.94811  3.56906  0.08507   321143.60391  45.77837  19.26734   56695.1881    50.68916        44.1789   19.11624  25.14068   28.5    0.44248  -20.93831  0.99297 
    -4.4769  0.00425  4.24421     14.52446  1.64012  0.80931  3.08446  0.19146      0.3693  11415.53473   4601.70225  2.89074         2633.62588     16.61906    2e-05   56664.6731  2.39773  0.01312   245115.58342  45.83876  19.28464   56695.1881    50.69328       44.17234    16.8739  25.29966   28.5    0.43701  -20.95262  0.99865 
   -4.75388  0.01798  4.24705     14.45352  1.77178  1.46068   4.8563  0.13352     0.38987  11769.99612   4781.39688  2.61465         2564.75925     18.00245  0.00056  56664.39612  4.01315  0.08733    367583.3471  45.69572  19.28686   56693.0521    50.69779       44.17575   18.46626  25.79066   28.5    0.45183  -20.94911  0.99208 
   -3.86902  0.07212  3.07032     14.33439  1.42626  1.37301  2.72535  0.23026     0.37004  11447.14049   4835.43487  2.48416         2671.88242     20.20023   0.0881  56665.28098  2.13031  0.19656   267675.35288  46.02107  19.28468   56693.0521    50.72333       44.16901   15.89172  26.77285   28.5    0.42222  -21.03149  0.98728 
   -4.95507  0.02198  4.65213     14.57409  1.91131   0.9534  5.36969  0.11076     0.08812  11148.20151    4746.9838  2.69744          2636.1316     19.09126  0.00685  56664.19493  3.98094  0.11801   273062.25778  45.77861  19.25659   56693.0521    50.77581        44.2564   15.89172  24.64968   29.5     0.4255  -20.94439  0.98855 
   -4.77353  0.02359  3.84332     14.40283  1.45374  0.93299  2.73074  0.20038     0.14536  10662.54568   4771.03659  3.49915          2519.4107     17.54869   0.0002  56664.37647  1.85195  0.06442   311933.60332  45.76786  19.25534   56693.0521    50.70414       44.19636   18.46626  25.02511   30.0    0.44086   -20.9116  0.99354 
   -5.57744   0.0064  4.04133     14.31988  1.51946   1.4283  3.30804   0.1822     0.08724  11651.81254   4862.00871  3.68423         2382.27667     16.30696    1e-05  56663.57256  2.67908  0.02117   528198.55332  45.51469  19.25593   56693.0521    50.68075       44.17562   17.52389  24.64968   29.0    0.42745   -20.9566  0.99779 
   -4.05664  0.02351  4.28767        14.44  1.65931  1.19772  5.30451  0.10595     0.04673  10625.97582   4856.11386   2.5923         2804.90592     19.04777   0.0062  56665.09336  3.57281  0.12471   373405.16195  45.65215  19.27788   56693.0521     50.7131       44.17417   15.89172  26.77285   29.0    0.43191  -20.90571  0.98732 
   -6.56497  0.03119  5.69688     14.42142   1.8988  1.07836  4.40143  0.10697     0.02488  10830.77599   5032.14772  2.47814         2595.24268     17.32192  0.00012  56662.58503  3.07992  0.13726    821716.3905  45.12133  19.30121   56693.0521    50.74731       44.21296   15.89172  26.00729   29.5    0.44355  -20.92998  0.97981 
   -2.46019  0.01797  2.90666     14.36956  1.46317  1.44867  7.94898  0.07262     0.09866  10122.92172   5054.73111  2.80892         2897.37487     20.36226  0.12793  56666.68981  4.85904  0.14286   209307.17838  46.18657  19.26014   56693.0521    50.71509       44.19459    16.8739  25.02511   29.0    0.42064  -21.01997  0.99207 
   -6.28636  0.01772  4.85485     14.34822  1.69059  1.48016  4.72369  0.10681     0.03752  10670.49145   4881.80583  2.24364         2778.56229      19.2368  0.00958  56662.86364  3.20832  0.08372   744341.37426  45.25276  19.24985   56693.0521    50.71341       44.18551    16.8739  25.03444   30.0    0.42339  -20.92853   0.9893 
   -3.72426  0.12617  3.71812     14.44894  1.70663  1.38446  3.00323  0.21806     0.16396  12469.50255   4652.44081  2.53755          2530.6187     20.12613  0.07428  56665.42574  2.78557   0.3789   277150.02797  45.91762  19.28533   56695.1881    50.69487       44.17386    16.8739  25.29966   28.5    0.44724  -21.05166  0.97284 
   -4.97468  0.05937  3.52906     14.75782  1.65809  0.49617   4.2424  0.14884     0.14054  11018.73638   4778.43536  2.13996         2589.30051     19.06548  0.00646  56664.17532  3.07257  0.25186    58492.71063  46.62603    19.285   56695.1881    50.72164       44.19844    16.8739  25.79066   29.5    0.40943  -20.92083   0.9829 
   -5.73865   0.0231  5.06975     14.53538  1.82605  0.82996  2.06361  0.24423     0.16048  11380.87647   4850.24485  2.26061         2658.09938     16.95419    5e-05  56663.41135  1.59444  0.04766   370285.71284  45.55185  19.26292   56695.1881    50.70586       44.16503    16.8739  25.79066   30.0    0.45626  -20.96191  0.99405 
   -6.33478  0.13387   4.3707     14.35812  1.68403  1.45512  2.37217  0.21612      0.0705  10784.52194   4780.25928  2.90403         2448.21802     19.94107  0.04851  56662.81522  1.64579  0.31756     574148.346  45.45507  19.28966   56695.1881      50.689       44.16098   17.06222  25.14068   30.5    0.42656  -20.97341  0.96771 
   -4.53493   0.0029  4.38799     14.66045  1.96548  0.82996  4.06022  0.13347     0.14528  10289.43576   4832.75891  3.00053         2643.92619     17.77885  0.00033  56664.61507  2.56425  0.01178   167848.57776  46.05287  19.24831   56693.0521    50.69163       44.18399    16.8739  25.02511   29.0    0.43561  -20.91432  0.99902 
    -5.8445  0.03226  5.54699     14.46573  1.83013  0.93204   1.8719  0.24093     0.11982  11756.12619   4777.11559  1.80539          2669.5626     16.52266    2e-05   56663.3055  1.54326  0.06038   612269.92834  45.25627   19.3001   56695.1881    50.72146       44.18112    16.8739  25.79066   30.0    0.48916  -20.94894  0.99101 
   -5.82384  0.00293  4.04789     14.53553  1.88278  0.91609  3.32521  0.18069     0.28467  11420.90485   4664.82346  2.02746         2471.65154     20.33126  0.11912  56663.32616   2.5873  0.00975   243225.76981  45.94318   19.2595   56693.0521    50.69183       44.15588   17.52389  26.16242   29.5    0.41488  -21.04734  0.99926 
   -6.38542  0.04104  5.58032     14.37678  1.85258  1.42658  5.61374  0.08322     0.02188  10770.35726   4992.84543  2.72575         2678.73199     16.93819    5e-05  56662.76458  3.88454  0.23038   944836.22076  45.06795  19.32849     56697.01    50.71664       44.18607    16.8739   26.8124   30.0    0.44865  -20.94516  0.96675 
   -6.37927  0.04988  6.02912      14.4823  2.13283  1.41746  4.70591  0.09637     0.03167  10485.78934    4878.6951   1.8472          2845.3178     17.35253  0.00013  56662.77073  3.08655  0.23475   781037.37358  45.14462  19.30636   56695.1881    50.69912       44.17118    16.8739  25.79066   31.0    0.43532  -20.92083  0.96799 
   -5.18171   0.0463  4.27244     14.36244  1.56208  1.29911    3.988  0.12929     0.16099  10772.24031   4450.82977  2.34859         2752.90481     17.79307  0.00034  56663.96829  2.76055  0.18465    498867.8899  45.50321  19.26647   56695.1881    50.70742       44.19488    16.8739  25.03444   30.0    0.44047  -20.92406   0.9797 
    -5.5259  0.02517  4.33923     14.53846  1.72695    0.844  4.79204  0.11939     0.08178  10974.43951    4686.4845  2.24502         2628.69891     17.96983  0.00052   56663.6241   3.4428  0.12061   252923.63664  45.82831  19.25622   56693.0521    50.69218       44.19248   18.46626  25.02511   29.5    0.43103  -20.92191  0.98815 
   -5.52428   0.0846  4.33673     14.52784  1.94587  1.54694  3.32242  0.18119     0.16627  11306.85537   4668.72151  1.72063         2814.30511     17.18052    8e-05  56663.62572  2.53376  0.28109   298932.40158  45.80806  19.27836   56695.1881     50.6661        44.1404   19.40683  26.16242   29.0    0.44276  -20.94649  0.97732 
   -6.33962  0.15884    6.372     14.38484  2.01949  1.55455  2.15829   0.1796     0.04971  11228.51977     4964.026  2.79785         2482.44245     18.60571  0.00224  56662.81038  1.62324  0.34282  1294000.04148   44.8536  19.26309   56693.0521    50.68864       44.18283   17.52389  24.64968   30.0    0.45422  -20.94686  0.94443 
   -4.74866  0.04892   4.2865     14.46544  1.77824  1.49849  4.34445  0.14121     0.09944  10733.39387   4621.19922  2.44013         2865.99949      17.7452  0.00031  56664.40134  2.98563  0.21255    355744.6936  45.70349  19.24235   56693.0521    50.68774       44.17824   17.52389  24.64968   30.0    0.43909  -20.92567  0.98071 
   -5.76004  0.21672  4.35971     14.56107  1.84067  1.03951  2.57101   0.2399     0.11776  11611.94045   4563.65725  2.52897         2541.92392     16.27841    1e-05  56663.38996  2.06795  0.55719   245223.63183  45.86535  19.27402   56693.0521    50.68951       44.17542    16.8739  25.79066   29.5    0.44336  -20.94177  0.95183 
   -6.25586  0.00218  5.11584     14.37901  1.75912  1.22702  3.42894  0.13492     0.24727  11134.98557   4404.59386  3.27745         2351.30132     16.50646    2e-05  56662.89414   2.5361  0.00746    746303.7862  45.22339  19.27794   56695.1881    50.67809       44.16534   20.67275  23.87476   31.5    0.45643  -20.92549  0.99899 
   -4.68719  0.04449  4.39161      14.6436  1.97305    0.913  3.51196  0.18072     0.15149  11059.91191   4600.30954  2.54484         2720.53667     16.49032    2e-05  56664.46281   2.5626  0.15626   182392.15449  46.01773  19.26046   56693.0521    50.68828       44.18086   17.52389  24.37512   29.0    0.42546   -20.9278  0.98722 
   -4.53683  0.07405  3.74908     14.38303   1.3627  0.90598  3.26242  0.16526     0.09579  11005.97165   4781.07541  3.13488         2583.56313      17.4232  0.00015  56664.61317  2.35735  0.24157   304793.60295  45.77139  19.27528   56693.0521    50.69683       44.17484    16.8739  25.29966   29.5    0.46061  -20.92001  0.97506 
   -6.23096  0.05651   6.5647     14.42707  2.10049   1.1283  2.35589  0.15126     0.03983  10957.46229   5005.44538  3.02113         2480.68685     17.28744  0.00011  56662.91904  1.68734  0.13313  1176033.44371  44.88632  19.29137   56693.0521    50.69693       44.16651   18.75685   26.8124   30.0    0.46288   -20.9459  0.97761 
   -4.67201  0.00136  4.10139     14.52053   1.7999  1.08924   3.9576  0.15348      0.2864   11221.2158   4856.20865  2.60307         2603.13232     19.06045  0.00639  56664.47799  2.97262  0.00537   255783.11995  45.89036  19.26166   56693.0521    50.70116       44.18546   18.75685  25.29966   28.5    0.44741  -20.94088  0.99955 
   -6.57924  0.00598  5.74168     14.27602  1.89801  1.43953  2.25235  0.17889     0.03608  10880.88322   5059.21443  2.86008         2389.61939     20.02544  0.05891  56662.57076  1.59071  0.01347   1629899.5493  44.81691  19.28099   56693.0521    50.69788       44.17147    16.8739  25.79066   29.5    0.45009  -20.98526  0.99794 
   -6.07344  0.01159  5.36038     14.41894  2.09667  1.54713  5.98625  0.07458      0.0125   9903.94909   5327.04615  3.54222         2416.34902     20.18902  0.08585  56663.07656  3.50267  0.06937   812572.84243  45.22212   19.3009   56695.1881    50.68712       44.17234   20.67275  23.87476   29.5    0.43675  -21.00164  0.99213 
   -4.24906  0.00795  4.53099     14.53923  1.68613  0.78425  3.01737  0.17185     0.07668  10969.97795   5006.53764  2.47584         2661.59004     16.62452    2e-05  56664.90094  2.16605    0.024   268303.57947  45.75472  19.25994   56695.1881    50.67666       44.16982   20.67275  23.87476   29.0    0.45402  -20.92239  0.99731 
   -5.60017  0.06019  4.81696     14.35742  1.64681  1.30267   3.9203  0.13196     0.04542   11312.4583    4891.6452  2.02376         2784.82808     18.68177  0.00267  56663.54983  2.99268  0.23596   684174.14698  45.28478  19.28622   56695.1881     50.6937       44.18027   20.66083  24.64968   29.0    0.44418  -20.94984  0.96973 
   -5.88967  0.04549  4.51081     14.55257  1.90752    1.043  3.64181  0.16617     0.10435  11270.06468   4610.49787  2.23337         2608.05284     17.09095    7e-05  56663.26033  2.75929  0.16565   282916.88348  45.78915   19.2872   56693.0521    50.70173       44.16911    16.8739  25.79066   29.5    0.42879    -20.936  0.98492 
   -5.78696  0.00383  4.47763     14.57464  1.92205  0.94771  3.83864  0.15227     0.09436  10236.61822   4913.82008  2.42604         2813.95082     19.43055  0.01497  56663.36304  2.39948   0.0147    253743.9986  45.84612  19.29751   56695.1881    50.69786       44.16636   19.40683  26.16242   30.0     0.4045  -20.93174  0.99868 
   -6.35719  0.10182  4.24718     14.29192  1.47988  1.33445  3.85569  0.13423     0.03896   10919.6202   5000.21276  2.80625         2504.52733     19.28289  0.01066  56662.79281  2.74248   0.3926   646261.43215  45.37246  19.25691   56695.1881     50.7003       44.18237    16.8739  25.29966   30.0    0.42698  -20.93279  0.95481 
   -5.51419  0.01377  3.28087     14.35908  1.49677  1.48428  4.56817  0.15156     0.11926  11090.47552   4780.94031  1.99486         2788.40194     18.62476  0.00234  56663.63581  3.35174  0.06289    286279.5102  45.95523  19.25394   56693.0521    50.71833       44.20097    16.8739  25.29966   29.0    0.41167  -20.94311  0.99563 
   -6.29227  0.01565  4.55731     14.75193  2.01702    0.609  4.28955  0.14609     0.06084  11101.00314   4801.15108  2.22604         2490.90002     17.11928    7e-05  56662.85773  3.15329  0.06715   121924.09725  46.17005  19.28012   56695.1881    50.71063       44.18522    16.8739  25.79066   29.5    0.41324  -20.92708  0.99421 
   -5.41145   0.2049  5.09066     14.54085  1.90796  1.00587  2.57154  0.20075     0.07262   11373.4598   4729.50852  2.23526         2529.55201      16.0907    1e-05  56663.73855  1.98429  0.52691   380391.39666  45.55564  19.29056   56695.1881     50.7152       44.19228   15.89172  26.28185   30.0    0.44188  -20.93941  0.94138 
   -6.60916  0.00728  5.16969     14.33634  1.75437  1.53211  2.62644  0.17757     0.07081  10578.16869   4590.43635  2.59375         2632.10416     17.31701  0.00012  56662.54084  1.75313  0.01913   925084.60092  45.11986  19.30417   56693.0521    50.78084       44.26839    16.8739  25.02511   31.0    0.41945  -20.92686  0.99735 
   -6.76536  0.08384  6.13661     14.35817  1.91307  1.21905  2.13818  0.19243      0.0536  11490.65413   5089.77889  3.42381         2429.50111     18.45366  0.00158  56662.38464  1.68407  0.17926  1285459.05357  44.86566  19.26651   56693.0521    50.70304        44.1759   17.52389  24.64968   30.0    0.45268   -20.9611  0.96995 
   -5.28139  0.02743  5.83674     14.53592  2.15338  1.28369  3.37742  0.15886     0.06528  11807.96178   4867.24049  2.17906         2692.10467      19.0084  0.00566  56663.86861  2.80906  0.09264   577360.13964  45.30818   19.2746   56693.0521     50.6959       44.17506   18.75685  25.79066   28.5    0.45741  -20.96416  0.98811 
   -5.97498  0.05327  5.27728     14.27549  1.61416   1.2987  3.09345  0.14119     0.03978  11391.49239   5051.94298  2.36623         2646.22849     17.63399  0.00024  56663.17502  2.39459  0.16478  1173839.47533  44.96236  19.25468   56693.0521    50.69823       44.18656   18.75685  25.03444   29.5     0.4592  -20.94951  0.97361 
   -6.24331  0.14831  4.23646     14.33628   1.4849  1.38549  6.95421  0.07205     0.01363    9806.0762   4749.07385  2.13375         2930.13856      18.5954  0.00219  56662.90669  3.98901   1.0314    525966.6607  45.46558  19.27314  56692.82422    50.73287       44.18005    14.5293  27.64427   31.0    0.41332  -20.89697  0.89063 
   -6.79442  0.07238   5.5369     14.26944  1.67048  1.46203   3.3745  0.11832     0.03622   10770.7652   4889.34812  2.20019         2754.62065     16.94589    5e-05  56662.35558  2.33523  0.24423  1375012.28974  44.86685  19.25689   56693.0521    50.71572       44.18529   15.89172  26.00729   31.0     0.4383  -20.92388  0.95964 
   -6.52237  0.08576   4.3007     14.43206  1.76496  1.49494  3.52819  0.16331     0.04347   10533.0333   4981.17871  2.67008         2604.87404      18.3143  0.00115  56662.62763  2.33499  0.30256   414483.30501  45.63099  19.28201   56695.1881    50.67746       44.15627   19.40683  26.16242   29.5    0.42219  -20.91219  0.97221 
   -5.16483  0.06434  3.95907     14.24679  1.34199  1.31564  3.88415  0.13377     0.06222  11254.57595   4627.80252  2.29284         2622.23722     16.33587    1e-05  56663.98517  2.93482  0.24991   626862.37863  45.40423  19.27752   56695.1881     50.6784       44.16597   20.67275  23.87476   29.5    0.44421  -20.92622  0.97059 
   -6.67582  0.04166  5.72382     14.34413  1.86657  1.52252  3.09505  0.13791      0.0456  11355.93191   4722.93597  1.77205         2689.47124      17.4899  0.00017  56662.47418  2.38089  0.12893  1164049.51742  44.95855  19.26063   56693.0521    50.69842       44.18315   18.75685  25.29966   30.0    0.46604  -20.95667  0.98033 
