 log(Bfield)      Mns     Pspin  cutoff_power  cutoff_wavelength  fnickel    kappa  kappagamma   mejecta  log(nhhost)  temperature  texplosion  thetaPB      vejecta      A_V        MJD_0   log(KE)      M_Ni  Peak_mag     Peak_MJD 
    12.38239  1.88682  13.14006        0.1645         2683.74006  0.44697  0.10263     0.01241  17.14598     20.11322   3465.00734    -7.78105  0.00409  11782.17863   0.0721  58774.73458  52.79022  33.29856  19.38338  58834.41576 
    13.23303  1.53254  28.38051       2.82879         2063.67302  0.37207  0.08465     0.01047  18.57964     17.55468   3654.95715    -6.90654  1.48792  10868.84154   0.0002  58775.60909  52.72685  28.15005  19.36837  58834.41576 
    14.39827   1.5028  13.25036         0.019         4480.12101  0.41654  0.10606     0.30041  11.06051     17.97488   4405.81196    -4.21213   0.7118  12764.54613  0.00052   58778.3035  52.82115  28.39065  19.37865  58834.41576 
    13.99102  1.29366  14.81529       0.31325         2297.46402  0.46961  0.09459     0.01033  14.22704     18.04391   4579.06502    -6.00843  1.21607  10473.38408  0.00061  58776.50719  52.67192  33.71735  19.32366  58831.42122 
    13.79069  1.40085   22.4035       0.95748         2561.65591  0.47992  0.09283     0.01228  13.85851     18.12083   5055.93022    -6.44335  1.04201  10192.79343  0.00073  58776.07227  52.64603  34.27544  19.41826  58831.42122 
    14.85726  1.79033  22.27507       2.00181         2009.61382  0.42474  0.09914     0.01078   14.8801      17.1641   3325.55071    -9.04286  0.36462   9498.53934    8e-05  58773.47277  52.59097  30.77136  19.48237  58828.42667 
    14.38832   1.7626  16.08182       0.92086         2217.12455  0.35881  0.09004     0.01171  17.22814     17.20389   4405.04234    -6.15085  1.51195  11390.49951    9e-05  58776.36477  52.76126  26.75561  19.40759  58834.41576 
     13.6234  1.70696  23.91798       3.28033         2568.95426  0.36498  0.08907        0.01  19.90002     16.19085   3122.29348    -5.72726  0.21949    11952.258    1e-05  58776.78837  52.81505   27.9765  19.36151  58834.41576 
     13.7658  1.41275  26.05551       3.58311         2135.76137   0.4843  0.09093     0.01084  14.29673     19.44223   3927.91307    -5.17656  1.55178  10735.01524  0.01538  58777.33907  52.69378  34.80645  19.35681  58834.41576 
    14.67554  1.67314  17.61166       1.69166         2530.15634  0.08632  0.02666     0.23717  63.70919     17.15734    3881.4201    -6.17448  0.87636  13773.13801    8e-05  58776.34114  53.02441   8.06936  19.36009  58834.41576 
    13.03787  2.05437  28.05809       0.86567         2027.42779  0.28369  0.06827     0.15273  21.39483     19.18826   4714.79307    -6.45854  1.54607  12893.46594  0.00857  58776.05708  52.88678  22.04273  19.36089  58831.42122 
     14.8091  1.61963  29.47568       2.19198         2438.90132  0.37546  0.10433     0.01092  19.51908     17.62591   7076.66159    -7.22671  0.85054  11917.30313  0.00023  58775.28891  52.81092  28.67467  19.30094  58831.42122 
     13.2909  1.71008  24.35244       0.01109         4760.89774  0.49826  0.09996     0.01187  14.12686     16.70708   4711.56409    -5.74105  0.82264  10869.89711    3e-05  58776.77457  52.70358  35.72317   19.3756  58830.40234 
     14.2633  1.72139  14.18193       0.00266         3123.68488  0.36129  0.07249     0.01029  15.77118     16.70147   4848.89037    -5.04062  1.29276  10539.44477    3e-05  58777.47501   52.6863  26.47818  19.44873  58829.48226 
    14.10226  1.72849  16.81328       2.72716         2021.58444  0.49972  0.10893     0.01073  14.09939     16.40675   3955.74977    -5.37551  1.38306  11218.50803    1e-05  58777.14011  52.73082  35.81438  19.32384  58831.42122 
    12.77495  1.43324  24.04227       4.94618         2236.91999  0.19585  0.05229     0.22549  29.93428     16.16096   5016.08934    -5.54668  1.02492  13640.17757    1e-05  58776.96895  52.96202  16.16843  19.37621  58834.41576 
    14.74238  1.94273  27.54658       0.33401         2258.43198  0.43774  0.11241     0.01083  18.21221     19.74691   6909.80238    -7.78964  0.11747  11737.97438  0.03102  58774.72599  52.79201   32.9925  19.30887  58831.42122 
    14.57227  1.48643  25.99943       0.17404         3121.59296  0.42663  0.07956     0.01037   14.0305      16.7321   5031.15282    -6.83069  1.12113   9383.94541    3e-05  58775.68493   52.5753  30.54581  19.39362  58834.41576 
    12.70871  1.90886  13.84716       0.26615         2212.27267  0.32547  0.07286     0.16924  18.91132     17.98688   3465.65659    -5.95704  0.88587  13069.54395  0.00054  58776.55858  52.88847  24.70827  19.48574  58829.48226 
    14.89631  1.95806  25.34258       3.68658         2092.78768  0.43326   0.0999     0.01201  15.98334     16.02977   4823.05782    -6.10122  0.22683  11615.68619    1e-05   58776.4144   52.7719   31.8371  19.39872  58831.42122 
    14.68052  1.60557  23.00792       0.07722         3527.79818  0.37014  0.09725     0.01049  18.99787     19.57317   5550.66849    -5.75813  1.35732  11624.32359  0.02079  58776.75749  52.78707  28.12327  19.33496  58834.41576 
    14.37075  1.69029  16.53131       4.90444         2072.74533  0.07811  0.02417     0.47525  69.47196     16.69082   3828.84745    -7.73916  1.08408  14043.35048    3e-05  58774.77647  53.04707   7.39998  19.42729  58827.50682 
    12.65433  1.56959  20.92486       2.68088          2354.0743  0.40319  0.09474     0.01147  17.34457     18.33043   4159.87259    -5.04055    1.312  11841.93568  0.00119  58777.47507  52.79558  30.10417  19.36075  58831.42122 
    14.43269  1.26712  24.59599        3.1372         2042.35639  0.43064    0.095     0.01368  15.58804     18.41493   5313.93233    -5.26484  1.32438   11598.3618  0.00144  58777.25079  52.76846  31.48809  19.34473  58834.41576 
    14.81764  2.09993   21.4891        0.8268         3282.86865   0.1585  0.05543     0.29535   32.5167     16.07497   4783.58781    -6.32167  1.31753  12377.49816    1e-05  58776.19395  52.88389  13.27472  19.35559  58831.42122 
    14.43866  1.95196  18.69446       0.21859         2688.16307  0.49254  0.10111     0.01161  14.03645     20.13032     4596.193    -6.22467  0.77215   10966.9885    0.075  58776.29095  52.71074  35.26772  19.32282  58831.42122 
    13.18857  2.02028  15.10602       1.53922         2291.19098  0.49848  0.11401      0.0127  14.59102     16.21101   4012.57914    -7.07238  0.01745  11135.41318    1e-05  58775.44324  52.72736  35.97247  19.34005  58834.41576 
    13.79068  1.82437  14.07029       4.51737         2026.07612  0.46341   0.1049     0.01252  15.09514     16.91257   5774.88895     -5.0858  0.89797  11685.30667    5e-05  58777.42982  52.77217  33.66946  19.33255  58831.42122 
    14.40265  1.87233  28.83206       0.19223         3242.30279  0.37256  0.10913     0.01018  21.65986     17.64208   5178.44328    -7.70894   0.1512  12422.29283  0.00024  58774.80669  52.85544  29.01394  19.35464  58834.41576 
    15.12483  2.05573  26.51797       0.76808         2056.06898  0.38585  0.07989     0.01027  16.56471     17.10624   3677.76081    -4.35563  0.39245  10844.83046    7e-05  58778.15999   52.7153  28.55224  19.37465  58834.41576 
     14.7521  1.44878  24.30334       0.35118         2937.93217  0.48423  0.09875     0.01005   13.1823     18.76494   6215.17191    -6.61375  0.99101   9480.43316  0.00323  58775.90187  52.57868  34.23292  19.48384  58830.40234 
     14.3825  1.44473  22.78422       0.41422         2404.51548  0.43991  0.11135     0.01083   17.2737     17.13983   4212.29379    -5.48296  1.23322  12214.74702    8e-05  58777.03267  52.82216  32.81951  19.37804  58831.42122 
    13.58815  1.43286  29.19558       2.27262         2172.11091  0.30726  0.08625     0.36312  20.16694      19.7687   3509.77227    -6.41654  0.13754  13775.08447  0.03262  58776.09909  52.93943  23.61123  19.35747  58834.41576 
    13.12392  1.96614  25.79475       3.71837         2198.78746  0.49966  0.10053     0.01209  13.54761     16.24861   4648.92836    -6.74125  1.42497  10109.69317    1e-05  58775.77437  52.63692  35.52136  19.40837  58835.44141 
    12.46244  1.35583  23.59497        0.6415         3014.74677  0.48662  0.10534     0.01306  15.29585     19.87373    5512.9959    -6.24261  1.01751   11525.7092  0.04154  58776.27302  52.76137  35.44848  19.35537  58834.41576 
    14.33792  1.57457  10.79043       0.06199          3352.7581   0.2313  0.08004      0.3131   23.6141     20.16291   5450.43734    -9.41379  1.22305  12455.22041  0.08084  58773.10183  52.86465  18.30213  19.36098  58831.42122 
    15.04745  1.45621   16.6843       2.64278         2247.34872  0.47778  0.11021     0.01664  13.68051     16.90594    7071.9652    -4.85646  0.36103  11686.95287    4e-05  58777.65916  52.76371  34.03323  19.34526  58831.42122 
    13.81401  1.53447  23.18245       0.41952         2998.02472  0.32189  0.07187     0.01187  20.59753     19.23336   3546.46909    -5.47489  1.22143  11863.74246  0.00951  58777.04073  52.81141  24.83417  19.32124  58834.41576 
    13.68946  1.68637  26.71546       0.00607         4313.05425  0.48048  0.10789      0.0124  15.21037     18.50363   5858.23159    -6.05887  1.39004  11500.78368  0.00177  58776.45676  52.75901  34.96245  19.35106  58831.42122 
    14.71346  1.75145  20.00902       3.57337          2009.8565  0.34702  0.08548      0.0113  18.47352     16.45182   3070.32385    -7.10189  0.93688  10824.23054    2e-05  58775.41373  52.72281  26.22613  19.42548  58831.42122 
    13.42978  1.53577  24.57849       0.66364          2061.0209  0.43413  0.08608      0.0112  15.64579     18.77459   3104.87504    -5.18214   1.1439  10997.88568  0.00331  58777.33348   52.7226  31.76696  19.41165  58831.42122 
    13.02432  1.26729  10.65986       0.02498          2946.1075  0.18617  0.03553      0.1472  30.24071     16.88771   6243.33529    -4.75305  0.61702  12484.13721    4e-05  58777.76257  52.88587  15.39729  19.39061  58831.42122 
    13.84367  1.61018  28.02813       0.54451         3145.99585  0.13103   0.0344     0.24237  45.66044     18.48596    3354.7104    -5.09949  0.91978  13772.71853   0.0017  58777.41614  53.00141  11.61732  19.45627  58828.36719 
    12.37536  1.64843  25.06215       0.59034          2317.1214  0.39065  0.08415     0.01017  17.86338     17.26798   3583.95441    -6.59977   1.2907   11074.3333   0.0001  58775.91585  52.73985  29.33414  19.33711  58834.41576 
    13.48856  1.44752   3.72622        0.5612         2486.31098  0.42968  0.10194     0.01106  15.21944     20.70046   5155.81538    -6.07701  0.50563  12720.93863  0.27873  58776.43861  52.84664   31.2692  19.39401  58834.41576 
    14.56052  1.72215  25.17437       4.13023         2736.96545  0.44306  0.09497     0.01084  13.98776     17.14844    4473.4578    -6.09681  0.59686  10214.41565    8e-05  58776.41881  52.64868  31.70262  19.32137  58834.41576 
    13.92343  1.88036  10.00543       2.55094         2094.52259  0.37018   0.0929     0.01183   17.8042     17.06617   4575.97985    -5.32778  0.56295  12310.33761    6e-05  58777.18784  52.83147  27.77906  19.44852  58828.42667 
    13.67374  1.45609  25.34489       3.40496         2312.03272  0.49066  0.09317     0.01166  13.67468     16.65025   4062.24559    -5.58362  1.19387  10247.94432    2e-05    58776.932  52.64954  34.94784  19.44683  58834.41576 
     14.8497  1.67647  26.50352       0.28824         2178.84029  0.34468  0.08564     0.01086  19.48291      17.1993   6177.90092    -7.88594  0.41702  11093.39312    9e-05  58774.62968  52.74854  26.31468   19.3243  58831.42122 
    13.60731  1.95673  16.12152       0.03609         4219.04011  0.43117  0.11672     0.01166  17.05736     16.00637   4982.28941    -6.55332  0.86841  11826.97645    1e-05  58775.96231  52.79308  32.08902  19.34492  58831.42122 
    14.35776  1.68846  16.67017       3.55332         2105.89023  0.34558  0.07664     0.01102  16.95221     17.26005   5088.90234    -6.66595  1.29539  10640.47715   0.0001  58775.84968  52.70073  25.68835  19.53578  58830.40234 
    12.90383  2.00793   29.6148       0.91133         2042.45039  0.43537  0.08317     0.01004  15.99287     18.75719   3955.21366    -4.95014  0.61733  10803.91003  0.00318  58777.56549  52.70902  31.99581  19.52641  58830.40234 
    14.96028  1.58077  26.19896       3.57427         2222.49286  0.44914  0.10646     0.01175  15.30187     16.98195   3753.24313    -7.82091  0.22445  10713.98512    5e-05  58774.69472  52.69797  32.72111  19.31293  58834.41576 
    12.18949  1.68141  22.27916       0.55712         2950.66205   0.1392  0.04469     0.43871  43.90457      18.1563   4471.53157     -5.1842  0.33346  15550.55474   0.0008  58777.33142  53.10407  12.26255  19.43522  58828.36719 
    13.58153  1.65368  25.22795       4.53538         2037.37495  0.41224  0.09707     0.01175  17.39355     19.56908   4434.11497    -4.39286  0.72819  11761.99306   0.0206  58778.12276  52.78994  30.79604  19.35309  58831.42122 
    13.20939  1.45835  13.85758        0.1322         4220.90388  0.40418  0.08923      0.4434  14.15373     16.97827   5116.05429    -6.09308   1.3816  12503.37122    5e-05  58776.42255  52.82535  28.98936  19.41938  58835.44141 
    14.10857  1.34981  26.14086       0.33496         3849.89382  0.48989  0.11712      0.0109  15.44627      16.8715    6634.6299    -6.65194  0.55373   11261.3401    4e-05  58775.86369  52.74206  35.75602  19.34233  58834.41576 
    14.69172  1.99603  24.24611       0.42259         2908.32968  0.37944  0.10267     0.01285  16.44343     17.05446   3747.77048    -9.59882  0.58209  10558.57524    6e-05  58772.91681  52.69144  28.03803  19.54415  58829.48226 
    13.72016  1.89144  29.27487       4.10865         3565.18835  0.13159  0.04695     0.17441  47.44541     18.90376   3017.25469    -5.73484  0.79999  14197.01301  0.00445  58776.78078  53.03047  11.74048  19.38337  58834.41576 
    13.75582   1.6123  27.78923       4.22359         2844.71808  0.21261  0.07227     0.46195  29.61098     16.27305   4448.03424     -6.8515  1.01872  14302.25018    1e-05  58775.66412  53.00236  17.51869  19.30852  58834.41576 
    15.13945  1.79721   9.43833       3.69132         2212.96145  0.11312  0.03789     0.07729  50.00106     16.91563   3015.10166    -3.12544  0.87248  14383.51095    5e-05  58779.39019  53.04548  10.17764  19.32297  58834.41576 
    14.68281  1.71462  24.44387       0.53766         2046.36024  0.38211   0.0821     0.01198  15.98359     16.63638   3618.25102    -4.50508   0.7017  10985.84602    2e-05  58778.01055  52.72348  28.07837  19.39598  58834.41576 
    12.12107  1.80232   7.78835       1.18631         2210.97156  0.44975  0.10864     0.01128  17.15757     18.33418   3262.14795    -5.67106   1.1566   12269.3885   0.0012  58776.84456  52.82547  33.50984  19.45794  58829.48226 
    13.63311  1.76025  23.00671       3.97325         2133.94133  0.38728  0.09311     0.01038  18.97577     19.66569   5102.00362     -5.5488  0.66127  11703.48168  0.02573  58776.96682  52.79287  29.41928  19.36915  58834.41576 
    12.04078  1.52411  29.07498       2.54698         2206.55692  0.41124  0.09658     0.01012  18.16304     16.09787   4158.65625    -7.35083  1.31162  11115.29808    1e-05  58775.16479  52.74444  30.97881  19.39905  58831.42122 
    14.24492  1.94479  18.28102       4.01807          2081.1293  0.49742  0.10383      0.0102  13.75246     18.17033   5937.03687    -4.96355  1.35904  10869.61458  0.00082  58777.55207  52.70119  35.47025  19.41469  58834.41576 
     12.3427  1.75293   3.90387       0.84601          2126.2241  0.48078  0.08496     0.01038  14.60207     18.65136   4687.36846    -5.20416  1.06841  10553.73507  0.00249  58777.31146  52.68083  34.70053  19.35936  58834.41576 
    12.45481  1.95522  17.45168       4.16069         2425.37329  0.32185  0.08399     0.01042  23.31007     18.10144   3942.38413    -5.88757   0.5388  12501.93981   0.0007  58776.62805  52.86687  25.40668    19.348  58831.42122 
    12.56662  1.85916   7.36845       0.58379         3195.90837  0.42213  0.10312      0.0996  14.05422     19.03124   4247.97345    -9.09028  1.14384  11400.47525  0.00597  58773.42535  52.74452  30.23381  19.47304  58829.48226 
    12.57844  1.39163   9.33387       4.65787         2606.45439  0.40412  0.07165     0.01182  14.42002      18.3237   6906.67274    -5.29833  0.19567   9561.59705  0.00117  58777.21729  52.59398  29.09423  19.35485  58831.42122 
    13.52714  1.59167  28.91112       0.06397         2266.81417  0.47642  0.12187     0.01212  15.09425     17.12654   3958.92643    -7.32697  1.28552  11010.40619    7e-05  58775.18866   52.7205  34.61374  19.45266  58829.48226 
    13.67729  1.75398  26.63901         0.269         2275.37307  0.14204   0.0335     0.33964  41.97823      17.8601   3893.84829    -6.49004  1.55485  12100.71148   0.0004  58776.02559  52.88299  12.42091  19.37076  58831.42122 
    12.23463  1.88918  22.05334       0.02276          3101.9783   0.3409  0.07635     0.01045  19.92062      17.0248   3116.53793    -6.24114  1.19612  11456.90146    6e-05  58776.27449  52.77837  26.13571   19.4884  58828.42667 
    13.81419    2.091   27.5438       0.10931         4566.37773  0.49706  0.08715     0.01074  13.23768     16.03713   5006.65031    -6.14545  0.46656   9573.24457    1e-05  58776.37018  52.58751  35.16984  19.42211  58834.41576 
    14.59718  1.58834  23.04847       0.05059          2455.3325  0.45314  0.09955     0.01651  13.67919      17.0311   5757.40557    -5.86979   1.0954  11216.61923    6e-05  58776.64583  52.72802  32.27739  19.37581  58831.42122 
     12.8458  1.62179  21.93767       0.14771          2805.3897  0.36528  0.08932     0.01611  17.93411      17.5997   6511.45761    -6.98348  0.79522   11777.3503  0.00022  58775.53214  52.79364  27.44988  19.38069  58831.42122 
    12.37972   1.8291   9.28646       3.10572         2203.99322  0.44636  0.08791     0.01058  15.37784     17.02517   4926.53335    -5.77844  0.92436  10642.69726    6e-05  58776.73718   52.6926  32.55025  19.38816  58834.41576 
    13.76997  1.56199    29.427       0.19914         2807.64631  0.49056  0.10436     0.01363  13.58699     18.73386   4250.85249    -6.98947  0.96188  10792.91486  0.00301  58775.52616  52.69398  34.89517  19.44149  58827.50682 
    13.38166  1.74691  28.80917       3.34537         2105.70678  0.38088  0.09121     0.01037  19.64956     17.67282   3245.07041    -6.83447  0.04532  11847.76518  0.00026  58775.68115  52.80638  29.12518  19.36738  58831.42122 
    14.84985   1.6382  25.46626        4.2554         2739.10003  0.10646  0.02828     0.19059  53.67657     17.97287   3809.09374    -5.97747  1.55996  12857.86876  0.00052  58776.53816  52.95302   9.68787  19.34088  58831.42122 
    14.04424  1.58281   5.46369        0.0635         3756.07952  0.49527  0.09777     0.01063  13.22565      19.5499   5040.11237    -6.29486   0.1074  10454.28292  0.01971  58776.22076   52.6639  35.03713  19.57375  58831.42122 
    13.63567  1.88488  23.83834       0.21977         3098.77932  0.36958  0.08366     0.01091  19.27005     17.68255   4929.20796    -5.79888  1.05981  11556.99526  0.00027  58776.71674   52.7832  28.15677  19.36825  58831.42122 
    13.28636  1.51637  15.04808       0.32446         2972.58467  0.30173  0.07011     0.01106  22.75659     16.31563    4481.7925     -6.0537  1.04368  12099.17901    1e-05  58776.46192  52.83652   23.7135  19.35678  58834.41576 
    12.48524  1.35011     7.608       0.89454         2092.27257   0.4831  0.08323     0.01019  14.30203     16.61706   3667.68683    -4.42887  0.15624  10419.73314    2e-05  58778.08675  52.66792    34.723  19.33685  58834.41576 
    13.05262  2.09732  26.02568       4.80051         2020.15182  0.42544  0.09044     0.01002  17.76028      19.8743   4205.11788    -5.32354  0.60764  11532.55176  0.04159  58777.19208  52.77458  31.91051  19.37313  58835.44141 
    13.95204  1.74877  27.55438       0.02532          4733.0596  0.35693  0.07743     0.01068  19.61545     17.77466   3705.96917     -5.2281  0.90303  11786.41025  0.00033  58777.28752  52.80173  27.28517  19.34967  58834.41576 
     12.0879  1.66929  13.72688       0.12252         3650.66039  0.40478  0.08484     0.01045  17.30632     16.09165    3071.1691    -6.49624  0.64716  10825.81949    1e-05  58776.01939  52.71748  30.20973  19.42336  58834.41576 
    13.33212  1.61118  17.23457       0.04652         3608.94173  0.43753  0.10798     0.01607  16.02775     16.53648   4636.01247    -6.23084  0.69927   12002.5929    2e-05  58776.28479   52.8006  32.16805  19.31373  58834.41576 
    12.18069   1.8348  15.54609       4.24955          2581.7524   0.1708  0.04892      0.2847  36.30221     17.80696   4251.89921    -8.11205  0.44872  12747.99836  0.00036  58774.40358  52.91769  14.57738  19.49581  58829.48226 
    14.12659  1.90318  15.43732       0.06412         2872.61717  0.47336  0.09425     0.01277  12.57968      16.2158   7054.59559    -6.20643  1.27614  10247.65497    1e-05   58776.3092  52.64209   33.1445  19.38681  58834.41576 
    13.02405  1.65159  19.18181       0.01063         3828.98959  0.46583  0.09968     0.01228  14.94544      16.2693   5311.17045    -5.06552  0.72217  11312.59404    1e-05   58777.4501  52.74316  33.77756   19.3418  58834.41576 
    13.23366  1.86448  26.83118       0.02512         3388.57465  0.46952   0.0998     0.01123  14.49436     16.31378   3448.54165     -5.6182  0.40082  10271.74498    1e-05  58776.89742  52.65666  33.83768   19.3497  58831.42122 
     12.4775  2.02273  27.41541       0.31875         4182.98489  0.19091  0.04872     0.29554  30.47884     16.09418   4113.16936    -7.30371  0.34066  12106.18514    1e-05  58775.21191  52.85976  15.81084  19.44781  58830.40234 
    12.10779  1.46288  14.88534       3.51217         2281.63923  0.39144  0.09775      0.0119  18.18508     16.55097   4047.32099    -7.38383  1.34319  11247.71814    2e-05   58775.1318  52.75483  29.49444   19.3875  58827.50682 
    14.20963  1.65022  25.43862       0.36232          2505.9317  0.47976   0.0889     0.01003  14.60081      17.5015   5626.64146    -4.61952  1.38362  10718.22904  0.00018   58777.8961  52.69425  34.62638  19.37014  58834.41576 
    14.72802  1.71173  18.57637       4.27584         3258.68665  0.31327  0.10226     0.01016  22.38532     17.39742   3577.92977     -7.1737  0.62413  12163.70377  0.00014  58775.34192  52.83982  24.54568   19.3933  58834.41576 
    14.51401  1.59784  28.61098       4.41148           2355.148  0.34585  0.09223     0.01488   21.3782     19.93502    4515.6889    -6.15863  0.65957   13080.3421  0.04783  58776.35699  52.89922  26.86876  19.43373  58827.37109 
    12.86406  1.89562  27.29996       0.43839          2315.2805   0.4858  0.11519      0.0139  14.63769     18.28084   5226.27473    -7.27427  0.33998  11399.01938  0.00106  58775.24136  52.74796  35.08008  19.34692  58831.42122 
    13.95028   1.8669  21.55124       2.31376         2009.73186  0.41735  0.09438     0.01104  17.26611     16.70066   3346.33564    -5.05937  1.13292     11983.33    3e-05  58777.45626  52.80551  31.13368  19.37725  58834.41576 
    13.93777  2.18347  20.36609       3.79526         2119.17558  0.43997  0.09162     0.01332  14.10744     16.41937   5233.69194    -5.95761  1.05912   10729.7515    1e-05  58776.55802  52.69218  31.53543  19.45316  58835.44141 
    12.31668   1.4505  13.09863       1.11844         2988.11335  0.22697  0.05344     0.24923  26.50745     20.04966   3126.92524    -5.19895  1.30311  12832.49825  0.06229  58777.31668  52.89965  18.33864  19.34555  58834.41576 
    12.94636  1.69246   19.9144       4.85424         2101.11382  0.39923   0.0843     0.01117  16.50772     16.96494   4365.24019     -6.4615  0.21525  10473.58973    5e-05  58776.05412  52.68475  29.52239  19.34822  58831.42122 
    13.73406  2.06524   8.25536       0.18482         3802.23263  0.40327  0.10709     0.01542  16.87368     20.47628   5201.31449    -6.78454  1.38806  13307.31961  0.16634  58775.73108   52.8946  29.94958  19.34412  58831.42122 
    14.77624  1.48844  18.35762       0.14938          3852.7154  0.33345  0.09441     0.01115  21.24771     16.90356    6058.9103     -6.7536  0.21957  12401.34451    4e-05  58775.76202  52.85242  25.87572  19.43229  58828.36719 
    12.44925  1.60965  23.02381       0.44343         3645.82279  0.47472  0.11606     0.01156  15.63666     16.55494   5804.33812    -6.44613  1.53027  11168.41479    2e-05   58776.0695  52.73591  34.73263  19.44058  58828.36719 
    14.70839  2.06773  10.91098       4.53595          2032.1608  0.36127  0.07919     0.01004  15.33514     16.63753   4527.92732    -5.97639  0.16294  10507.42666    2e-05  58776.53923  52.68125   26.3306  19.37472  58834.41576 
    13.79996  1.44278   4.98138       1.48543          2208.9029  0.35986  0.08512     0.01011  17.91973     18.00404   4447.27963    -5.68525  0.21585  12068.46655  0.00056  58776.83037  52.81478  27.03817  19.34325  58831.42122 
    13.30272  1.88015   4.84977       0.11601         2376.97733  0.44872    0.083     0.01161  14.08455     20.44071   5222.52267     -6.8863  0.88407  11187.41885  0.15326  58775.62933  52.72832   32.1524  19.33216  58831.42122 
    12.29983  1.80335   7.52692       3.40624         2178.88171  0.23956  0.05726     0.11155   24.9095     16.93301   3019.87167    -6.35423  0.94996  12429.79271    5e-05  58776.16139   52.8671  19.14067  19.31342  58831.42122 
    14.98949  1.62569  21.89975       0.12369         2428.61181  0.42668  0.09585     0.01114   16.3411     18.98915   3481.99519     -4.9899  0.85004  11503.88112  0.00542  58777.52573  52.76539  31.48969   19.4719  58828.36719 
    12.01763  1.40056  13.83262       0.30575         3139.14124  0.46701  0.10603     0.01216  15.34115     16.22898   3259.57112    -5.34126  0.59349  11300.03003    1e-05  58777.17437  52.74445  34.04021  19.43851  58831.42122 
    12.61345  1.50484  20.90981       0.31316         3224.64715  0.47699  0.10589       0.015   14.3607     16.94854   3494.65325    -6.12157  0.03255  11496.77922    5e-05  58776.39405  52.75371  34.31142  19.39776  58834.41576 
    13.24799  1.15455  29.40002       2.51136         2785.32505  0.49622  0.11197     0.01172  14.41772     17.50508   5274.47541    -5.51898  0.50775  11184.56796  0.00018  58776.99664  52.73015  35.72343  19.30284  58831.42122 
    13.35367  1.88215   8.99736       0.50533         2031.91034  0.40228  0.09382     0.01143  17.92099     18.65128   4851.62413    -5.86892  1.19258  11957.65161  0.00249  58776.64671  52.80677  30.22627  19.33947  58834.41576 
    13.56764  1.61693   3.76959       4.93493         2221.85391  0.31632  0.07379     0.21629  19.43675     20.50323   5693.04353    -7.55525  0.13652   12729.1215  0.17699  58774.96037  52.86781  24.13886  19.51489  58831.42122 
    14.27106  1.48897  19.74586       0.07414         3944.14234  0.46108  0.09579     0.01237  13.70735     16.42861   5437.75694     -6.0123    1.181  10415.42005    1e-05  58776.50333  52.66383  32.85699   19.5159  58831.42122 
    12.60488  1.85237  15.91696       0.39101         2464.36502  0.44262  0.09622     0.01199  16.68839      19.2379   4622.39787    -4.64279  0.43903  12056.89663  0.00961  58777.87284  52.80795  32.80091  19.46244  58828.42667 
    14.78751  1.42698  25.38701       0.94357         2858.46026  0.47572  0.09506     0.01034   14.9892     16.04715   3297.05754    -4.90271  0.09328  10765.67348    1e-05  58777.61292  52.70037  34.51533  19.39652  58834.41576 
    12.12397  1.88381  21.33319        3.8286         2182.86545  0.49506  0.12136     0.01072  15.02252     16.16424   5957.64673    -8.75707  0.42417  10739.31707    1e-05  58773.75856  52.69843  35.93417   19.3172  58834.41576 
    12.18201  1.52633   1.78204       1.41109         2648.72642  0.20989  0.05295     0.35503  27.97776     17.49874   3683.56497    -7.47266  0.42909  12399.98375  0.00018  58775.04296  52.87405  17.12274  19.38007  58834.41576 
    14.15897  1.57929  26.93048       0.61887         3144.96865  0.31785   0.0849     0.01022  23.50934     19.62203   4781.51222    -7.18753  1.10559  12438.30801  0.02327   58775.3281  52.86312   25.1297  19.35206  58834.41576 
    14.50069  1.67483  18.89938       0.54962         2848.70661  0.33479  0.08153     0.01356  17.97169     17.49052   5034.15799    -7.67694  0.88152  11059.08873  0.00017  58774.83868  52.73916  25.16903  19.31268  58831.42122 
     14.4256  1.59154  22.88586       2.80176         2274.19683   0.3862  0.09609     0.01237  16.69253     17.51828   5409.84615    -6.78041   1.0635  11051.14996  0.00018  58775.73522  52.73232  28.62134  19.30974  58831.42122 
    12.48113  2.14375  19.64294        1.6006          2429.4927  0.48104  0.10128     0.01006  14.91958     17.59395   3839.36681    -6.31993  0.48091  10558.72162  0.00022  58776.19569   52.6831  34.86853  19.33886  58834.41576 
    12.96301  1.61014  26.00412        0.0852         3245.70716  0.45466   0.0978     0.01113  15.65807     16.69574   4309.53512    -5.98712  0.29083  11261.91976    3e-05  58776.52851  52.74327  33.27424  19.49131  58829.48226 
    14.72912  1.76842  20.33768       0.24194         2399.78445  0.08953   0.0253     0.49377  60.72596     16.90188   4910.03479    -6.40809  0.96527  12355.55298    4e-05  58776.10754  52.92684   8.30731  19.43735  58830.40234 
    14.30271   1.3829  19.47434       0.03456          3199.2534  0.36562  0.07457      0.0113  17.48173     17.80385   3485.99654     -5.2859  0.72615  11246.27388  0.00035  58777.22972  52.75142  27.34031  19.42405  58835.44141 
    14.50285  1.44031  20.09029       0.99209         3306.25994  0.29785  0.07504      0.1905  17.96155     17.41627   4817.38491    -4.35047  0.78866  12222.92774  0.00014  58778.16516  52.82602  22.38922  19.45801  58829.48226 
    12.55053  2.01284  20.05252        0.0719         2767.89893  0.49934  0.10462     0.01459  13.49023     16.74909    4618.5034    -5.83844  1.13576  11189.43994    3e-05  58776.67718  52.72468  35.46777  19.38184  58831.42122 
    12.71635  1.83297  19.37928       4.32495         2634.03595  0.42162  0.08953     0.01077  16.40931     18.59193    4519.4262    -4.64088  0.70475  10960.39997  0.00217  58777.87474   52.7237  31.14177  19.47736  58834.41576 
    12.68897  1.74471  15.07599       3.91693         2207.25323  0.21237  0.05703     0.30905  27.80997     17.77604   3384.25106    -6.79085  1.05268  13045.42797  0.00033  58775.72477  52.91766   17.3063  19.37522  58831.42122 
    12.56431  1.54653  29.54462        3.9889         2136.35924  0.49322  0.11578     0.01141  18.14606     20.51437   3537.71054    -8.50586  0.32013  11675.49949  0.18159  58774.00976  52.78707  37.14831  19.33858  58834.41576 
    14.90067  1.66088  15.12016       0.34138         2866.23504  0.35505  0.10529     0.22851  15.59373     19.70608   3912.67383    -5.94829  0.58737  13190.83901  0.02824  58776.56734  52.88024  25.96313  19.37777  58834.41576 
    13.74515  1.75718  18.46895       2.32763         2080.42345  0.37164  0.07694     0.01021  18.18252     17.15607   6288.16436    -5.26152  1.35952  11232.81995    8e-05   58777.2541  52.75367  28.00141  19.37726  58834.41576 
    14.79057  1.93222   25.4581       0.58291         3192.87827  0.38402  0.06839     0.01116  14.55154     16.05063      3031.66    -5.51744  1.18604   9253.98079    1e-05  58776.99818  52.56637  27.69764  19.35834  58831.42122 
     14.3611  1.50094  24.48057       0.67335         2009.96008  0.49514  0.09685     0.01156  13.39617     19.55618    4998.9668     -6.6047  0.49026  10154.88161  0.01999  58775.91093   52.6398  35.11966  19.40895  58825.50384 
    12.83219  1.71307  22.72079       4.64295         2294.29223  0.45579  0.08711     0.01031  14.38683     17.85002   5565.89439    -4.96892  0.65198   10056.1079  0.00039  58777.54671  52.63758  32.79858  19.44306  58828.42667 
    14.50606  1.43436  16.63338       0.19495         2283.96269  0.13047    0.036     0.15064  40.50584     17.37041   3490.47685    -6.28173  1.01552  12745.27222  0.00013  58776.23389   52.9255   11.3415  19.36449  58831.42122 
    13.31872  1.41418  21.62752        0.0051         4403.68449  0.49953  0.11273     0.01356   14.6595     17.57086   5411.36513    -6.46978   0.1616    11490.846  0.00021  58776.04584  52.75506  36.08205  19.33542  58834.41576 
    12.24766  1.40738  29.13452       0.17823         3352.99719  0.43163   0.0911     0.01079  15.73529     17.85265   5625.15893    -6.47439  1.42588  10423.10374   0.0004  58776.04124  52.67646  31.61955  19.40444  58831.42122 
    12.12851  1.19648   6.99911        0.5649         2305.05774  0.40221  0.09291     0.01117  18.35205     17.21682   3809.03557    -5.13865  0.93934  12137.76354    9e-05  58777.37697  52.82174  30.35902  19.34135  58834.41576 
    15.05393  1.59056  14.90587        4.9931         2031.60197  0.21219   0.0696     0.36576    25.632     17.15617   3744.68114    -6.94895  0.30829  13362.08041    8e-05  58775.56668  52.93216  17.04143  19.36244  58831.42122 
    14.07166  1.91544   9.63887       2.92948         2111.36046  0.21803  0.05675     0.01008  25.03023     20.52426   3078.00906    -8.05845  1.01004   11441.9352  0.18577  58774.45718  52.79555  17.43571    19.402  58834.41576 
    13.81545  1.61174  10.09298       0.01481         3708.35811  0.32176  0.07721      0.0104  19.59675     17.04347   4570.88686    -5.88717  1.06294  12072.67251    6e-05  58776.62846   52.8225  24.59172  19.40328  58834.41576 
    13.68069  1.86062  14.52261       4.19769         2015.23743  0.47483  0.08957     0.01037  14.30743     18.48895   4687.07784    -6.08592   1.4068  10314.34923  0.00171   58776.4297  52.65912   34.1309    19.374  58831.42122 
    12.03098  1.86824  17.80046       0.06517         5623.07209   0.4184  0.09412      0.1528   13.2163     16.73194   4047.39458    -7.10375  0.61532  10737.47724    3e-05  58775.41187  52.68705  29.59446  19.33964  58831.42122 
    14.88708  1.15885  16.87374       2.46958         2064.88525  0.17769  0.05471     0.48496  31.00832     16.69927   3878.15605    -4.95344  0.57738  12981.13825    3e-05  58777.56219  52.92168  14.76035  19.39273  58834.41576 
    15.08322  1.51906  11.05298       0.75767         2133.30687  0.42674  0.10542     0.01311  16.25574     19.80762   6342.11045    -5.63778  0.05782  12557.56617  0.03567  58776.87785  52.84106  31.46189  19.49267  58828.42667 
     14.8207  1.48611  23.24758       3.33587         2923.66771  0.36391  0.10527     0.01092  19.22073     16.23672   5034.30767    -7.15075  1.20767  11594.40589    1e-05  58775.36487  52.78579  27.71167  19.43544  58827.37109 
     15.0394  1.80789  20.43987       4.68859         2552.73406  0.07757  0.02554     0.33702  69.60461     18.46159   5062.73817    -8.59074  0.42473  12483.92497  0.00161  58773.92488  52.94495   7.35097  19.52815  58829.48226 
