 texplosion  fnickel    Pspin  log(Bfield)      Mns  thetaPB   mejecta    kappa  kappagamma      vejecta  temperature    alpha  cutoff_wavelength  log(nhhost)      A_V         MJD0   kenergy  mnickel            TSD   log(L0)  Peak_mag     Peak_MJD  log(E_rad)  log(Peak_lum)  Rise_Time    E_fold  tau_1  delta_m15     r_peak     frac 
   -6.50655  0.00257  2.28785     14.25952  1.42595  0.67531   6.28881  0.08313     0.40898   7764.41578    7851.3498  1.00938         3490.20854      17.7165  0.00029  58427.99736   2.26159  0.01614   209769.44903  46.38235   19.3988  58468.44141    51.13813       44.54336   18.29415  29.48909   38.0    0.28904  -21.35318   0.9994 
   -6.64487  0.09298   1.6421     14.34778  1.89273  1.32028  13.64969  0.05454     0.04136   9816.51034    9772.4675  0.25635          5274.6137     17.73944   0.0003  58427.85903   7.84629   1.2691    95531.91327  47.13499  19.46225   58470.5472    51.32385       44.81454   14.53476  25.11873   28.5    0.32296  -21.46812  0.98561 
   -6.88402  0.00106  2.08715     14.05639   1.5051  1.42776   2.92516  0.17258     0.21418   9986.64846   7628.01991  0.09106         5108.42715      18.8727  0.00414  58427.61988   1.74027  0.00309   469585.21231  46.13559  19.30606  58469.20131    51.19714       44.65467   18.16845  25.43583   36.0    0.35631  -21.45609  0.99991 
   -6.70211  0.01175  2.47601      14.4602  1.93253  0.72659   6.74945  0.09941     0.22448   8842.67534    7877.6145  0.65986         3767.99683     17.89845  0.00044   58427.8018   3.14821  0.07933    132146.2011  46.64641  19.39448   58470.5472    51.24895        44.7034   14.53476  28.04883   35.0    0.29826  -21.40616  0.99785 
   -5.04397  0.01345  2.10849     14.26268   1.6786  0.98112   6.14401   0.0618     0.06588   6697.32847   7913.29604  0.82011         4765.60235     16.06164    1e-05  58429.45993   1.64393  0.08262   206701.88932  46.53051  19.33282  58468.44141    51.23327       44.67974   13.59426  28.97196   37.5    0.32814  -21.46574  0.99799 
   -5.46214  0.00978  1.58736     14.29063  1.49361  0.68392   9.00127  0.03833     0.02158   6187.55487   7778.96035  0.58881         5178.29054     18.09302  0.00069  58429.04177   2.05574  0.08806    91652.81916  47.07958    19.332  58469.20131     51.2505       44.71345   18.16845  25.43583   39.0    0.31627  -21.39025  0.99857 
   -6.02775  0.00462  3.13344     14.46357  1.93563  0.57027   4.13713  0.13484     0.10334  10237.94526   7304.90162  1.08138          2206.2776     18.98889  0.00542  58428.47616   2.58673  0.01909   208706.73593  46.24409  19.29687  58469.20131    51.29634       44.76169   12.71791  27.25267   39.0    0.31332  -21.44195  0.99916 
   -5.22413  0.00583    1.786     14.16104  1.61967   1.3312    7.5485  0.04307     0.02794   5598.32618   9236.98538  0.89374         5787.86999     19.54576  0.01952  58429.27978   1.41125  0.04401   228516.69288  46.61559  19.28576  58466.74857    51.07662       44.49352   19.98529  29.06952   36.5    0.33414  -21.60522   0.9992 
   -3.79204   0.0135  2.02257     14.58487  1.91113  0.52754   4.35608  0.08639     0.36263   6400.72128   9207.41659  0.83429         4392.35226     16.59902    2e-05  58430.71186   1.06459  0.05882    49109.92221  47.24716  19.36643  58468.54721    51.28417        44.7219   17.00628   27.3768   34.5     0.3396  -21.40044  0.99893 
   -6.31145  0.01973   2.2719     14.33831   1.8115  0.96888   7.14529  0.11623     0.13714   10789.7778   8127.00653  0.44121         4091.04979     18.34142  0.00122  58428.19245   4.96218  0.14095    182818.3464  46.55208  19.32713  58466.74857     51.3031        44.7972   15.18943  23.76858   31.0    0.32766  -21.53771  0.99647 
   -5.31324  0.05051  2.16352     14.37587  1.69893  0.67937  10.54488  0.04158     0.02642     8928.524    8582.3613  0.48699         3466.76014     18.31037  0.00114  58429.19067   5.01451   0.5326   130786.66581  46.71214  19.32978  58465.52734    51.22879       44.70414   18.16845  23.61898   35.0    0.35876  -21.42842  0.98675 
   -6.90481  0.00246  2.82162     14.39453  2.02345  0.75922     3.263  0.12314     0.06575   7215.16941   7959.72495  0.54344         5869.06463     16.07956    1e-05   58427.5991    1.0133  0.00804   243137.08726  46.28809  19.24463  58468.44141    51.25015       44.72127    16.3516  25.43583   40.5    0.30007  -21.48645  0.99973 
   -3.74963  0.02574  2.50909     14.26733  1.87466  1.23549  13.74501  0.02263     0.19186   6152.89197   6813.44669  1.01556         4695.38131     17.03821    6e-05  58430.75428   3.10406  0.35382   319965.28993  46.23763  19.36885  58468.44141    51.24816       44.70951   14.53476  27.39062   39.0    0.34036  -21.50307  0.98973 
   -4.79824   0.0461  1.90617     14.24015  1.76508  1.20649   4.86127  0.07651      0.4031    6608.9395   8487.78099  0.67978         5400.48009     17.65686  0.00025  58429.70566    1.2666  0.22411   197062.54078  46.66068  19.37001  58469.20131    51.23089       44.66827   13.59426  29.78956   36.5    0.33804  -21.51358  0.99592 
   -4.18161  0.03356  1.82634     14.34621   1.5867  0.81283  18.71257  0.02654     0.08092   6674.38786    7677.7405  1.06963         4891.12574     18.61534  0.00229   58430.3223    4.9726  0.62801    99782.21676  46.94712  19.34963  58468.54721    51.28513       44.74703   13.37259  26.73595   36.5    0.30114  -21.54313  0.98791 
   -4.83928  0.12636  1.14971     14.21641  1.38198  1.31034  16.70217  0.04369     0.13089    9393.6281   6560.16238  0.72128         3259.29514     16.77926    3e-05  58429.66462   8.79157  2.11046    62615.46479  47.49149  19.34276  58469.20131    51.23635       44.69241   14.53476  28.04883   38.5    0.28881  -21.42039   0.9835 
   -5.14725  0.03338  1.78598     14.28902  1.67913  1.06583   16.1619  0.03185     0.06767   7288.90762   7643.02243  0.73598         5060.50673      19.1561  0.00796  58429.35665   5.12206  0.53948    131404.3256  46.87157  19.39789  58468.54721    51.18915       44.61613   19.98529  25.43583   36.0    0.30295  -21.49591  0.99089 
   -7.13218  0.00269  2.17587     14.19116  1.82483  1.26616   6.82097  0.05825     0.03575   7476.02712   8708.46892  0.32184         5929.59096     18.84379  0.00388  58427.37173   2.27413  0.01835   332653.73162  46.33281  19.32511  58469.20131     51.1937       44.62615    16.3516  29.06952   38.0    0.31319  -21.40753  0.99958 
   -6.32942  0.12373  3.51478     14.17202    1.747  1.11906   3.33449  0.14267     0.14966   8886.72318    5774.9059  1.33247         3118.65892     16.26918    1e-05  58428.17448   1.57087  0.41258   907537.36231  45.46148  19.40775  58468.54721    51.29951       44.78543   15.18943  24.78115   45.5     0.2952  -21.39176  0.97398 
   -5.92784  0.01448  1.89808     14.13564  1.67582  1.33983  14.12795  0.03072     0.02052   8175.77471   6953.23816  0.43015         4495.44907     20.13348  0.07555  58428.57607   5.63332  0.20459   300188.57842  46.45905  19.28487  58468.44141     51.2239       44.68928    16.3516  26.23199   40.5    0.32511  -21.52372  0.99597 
   -5.66265  0.02333  2.40838     14.45803  1.84114  0.55207   6.98447  0.05979     0.03693   8729.11729   7314.54359   0.4652         3592.44382     19.79325  0.03451  58428.84126   3.17469  0.16292   120307.92993  46.69019  19.31228  58469.20131    51.30058       44.75871    16.3516  27.25267   40.5    0.34724  -21.45833  0.99549 
   -3.03677  0.20669  1.34882     14.43532  2.14065  1.47843   7.47596  0.11357     0.07367  10648.91921    8417.3586  0.93881         3779.56066     20.61258  0.22767  58431.46714   5.05714   1.5452    48711.06241  47.65185  19.33966  58466.74857    51.26703       44.74944    16.3516  25.43583   32.0    0.30681  -21.79761  0.99157 
   -4.29573  0.00573  1.66263     14.28668  1.77781  1.05565   6.27618  0.05251     0.11024   5498.94897   8087.46576  0.84469         4555.20472     18.82037  0.00367  58430.20817   1.13209  0.03599   121881.71409   46.9912  19.41489   58470.5472    51.14105       44.53098   18.16845  30.88636   38.0    0.30717  -21.38255  0.99951 
   -5.00167  0.00609  1.53082     14.04286  1.28651  1.29215  13.53963  0.02669     0.13783   6142.67786   8477.20101  0.88809          4453.5401     18.49084  0.00172  58429.50224   3.04754  0.08245   229800.95774  46.64706  19.38372  58466.74857    51.04843        44.4393   18.16845  30.88636   37.0    0.30891    -21.406  0.99844 
   -5.03534  0.01969  1.88225     14.61893  1.63826   0.2858   7.14588  0.06632     0.46954   9576.68128   9196.07193  0.66335         3134.80002     20.66035  0.25414  58429.46856   3.90943  0.14072    31166.45219  47.44019  19.39251  58469.20131    51.38885        44.8973   12.71791  24.75413   34.5    0.33397  -21.69516  0.99717 
   -5.66992  0.07611  2.02025     14.42522  2.15528  1.20315   6.26583  0.12399     0.39378  10114.85612   8456.50704   0.3844         3515.29663       17.779  0.00033  58428.83398   3.82406  0.47687   115261.51674  46.92986  19.27466  58466.74857    51.36049       44.86968   13.37259  24.46406   31.0    0.32655  -21.48095  0.99297 
   -5.04398  0.08781  1.57597     14.37167  1.53595  0.73223  14.95851  0.04078      0.0334   8905.37989    6691.5233  0.51389         4558.89748      18.9479  0.00493  58429.45993   7.07653  1.31345    63964.79018  47.25419  19.29487  58468.44141    51.17546       44.59845   18.16845  27.36942   37.0    0.32327  -21.48903  0.98081 
   -4.68939  0.00112   3.0471     14.09607  1.70635  1.39797   3.69357  0.10258     0.03111   7422.75131    7909.4966  1.60203         3596.52573     20.36892  0.12991  58429.81451   1.21396  0.00412    945176.8319  45.55763  19.38117  58471.65406    51.23115       44.65023   18.16845  29.18627   40.5    0.31089  -21.57965  0.99979 
    -6.6937  0.00654  1.98562     14.18642  1.59907  0.97238  10.69762  0.03591     0.13244   7575.18896   7388.76577  0.45831         4802.16848      17.6006  0.00022  58427.81021   3.66186  0.06992   248103.59183  46.48229  19.23354  58466.74857    51.13494       44.58028   17.11802  26.60301   40.5    0.32475   -21.4254  0.99837 
   -7.61972  0.04066  0.85377     14.21447  1.55856  1.24092  34.09467  0.01488     0.04322   8596.87697   7346.77588  0.06698         5841.93927     16.48006    2e-05  58426.88418  15.03125  1.38644     39290.1526   48.0046  19.35542  58469.20131     51.4628       44.96033   13.37259  24.78115   39.5    0.33745  -21.26113  0.99562 
   -6.29345  0.07934  1.56646     14.27165  1.66879  1.06419  15.32148  0.03198     0.01817   8006.85879   6706.84548  0.38096         4774.64946     16.83926    4e-05  58428.21045   5.85939  1.21567   108830.12558  47.06466   19.3875  58468.44141    51.07417       44.46963   19.98529  29.31363   39.5    0.31532  -21.40661   0.9844 
   -7.16341  0.03079  3.16215     14.25093  1.77683  0.77967   4.62251  0.11007     0.38654  10375.97427   5130.85549  0.59277         2971.64627     19.85827  0.04009  58427.34049   2.96868  0.14231   519468.68566  45.80297  19.43538   58470.5472    51.11929       44.47755   18.29415   32.5775   44.5    0.30483  -21.49647  0.99279 
   -7.12742  0.01642  3.66908     14.13546  2.07374  1.32348   3.33718  0.14691     0.26266  13403.38932   5351.65016  0.71352          2050.4731     20.23901  0.09633  58427.37649   3.57632   0.0548  1389203.97829  45.31372  19.33613  58468.44141    51.15108       44.58953   18.93486  26.60301   45.5    0.33121  -21.71366  0.99701 
   -4.85905  0.03374  1.50629      14.3317  1.72487  0.87438  16.41466   0.0284     0.20877   7882.87449   7335.77861  0.47621         5784.49484     19.73308  0.03005  58429.64486   6.08455  0.55382    78885.35024  47.25279  19.33055  58468.54721    51.34879        44.8429    16.3516  23.61898   35.5    0.35355  -21.59647  0.99371 
   -5.26808  0.02609  1.36442     14.40741  1.80261  0.93949  22.54508  0.02915     0.10038   8467.13724   9668.08842  0.51163         4549.57152     17.01714    6e-05  58429.23583   9.64167  0.58831    47729.70447  47.57606  19.38054  58468.44141    51.27893       44.76607   14.53476  25.43583   30.0    0.31997  -21.48625  0.99532 
   -5.44557   0.0927  1.64311     14.38357  1.69283  0.69226  13.11424  0.02502     0.12216   6585.14346   7139.53809  0.59339         5187.84292     19.53859   0.0192  58429.05833   3.39235  1.21566    72547.35942   47.2055  19.33102  58466.74857    51.00027       44.37292   21.80214  30.88636   42.5    0.32594   -21.4733  0.98293 
   -5.21326  0.05314  1.53145     14.34213  1.81913  1.09916  16.08484  0.03689      0.0837   8781.61311   7904.54057  0.41226         4027.11819     17.41537  0.00014  58429.29065   7.39933  0.85477    81964.56108  47.24488  19.32761  58468.44141      51.218       44.64933   14.53476  29.06952   34.0    0.33166  -21.45539  0.99101 
   -4.89574  0.14048   1.6858     14.10547  1.55822  1.46168   5.58515  0.08027     0.31411   8963.05916   5534.11568   0.7134         2016.55378      19.9082  0.04497  58429.60817   2.67654  0.78458   252993.51586  46.60475   19.3124  58466.74857    51.22407       44.66143    16.3516  27.03222   43.5    0.32508  -21.41418  0.98662 
   -7.17595     0.05  2.67868     14.09885  1.55291  1.10312   3.38126  0.16175     0.16058  10019.75541   5910.51018  0.47422         3167.14545     19.20118  0.00883  58427.32796   2.02497  0.16906    656315.9393  45.78704  19.30258  58464.56473     51.0441        44.4373   19.98529  27.49679   41.5    0.31111   -21.4473   0.9925 
   -6.16938  0.02062  3.80958      14.3192  1.92474  0.72354   3.86166  0.12876     0.12655  11896.09309   6077.34661  1.16582         2503.79932     19.39333  0.01374  58428.33453   3.25994  0.07962   596403.06815  45.61592  19.35854  58468.54721     51.3776       44.88147   13.59426  23.87778   43.0    0.33688  -21.54175  0.99478 
   -7.81423  0.04473  2.88164     14.41785  1.99852  0.67441   5.75027  0.09867     0.47042  10300.24934   6130.66275  0.35437         3169.44251     19.81964  0.03667  58426.68967   3.63924  0.25719   224962.44328  46.29816  19.41204  58469.20131    51.19658        44.6264   18.16845  27.25267   41.5    0.32846  -21.50562  0.99099 
   -6.77854  0.01388   1.3926     14.19517   1.6353  1.36019  24.22399  0.02313     0.08014   8238.10435   7779.36133  0.29357         5652.32201     17.75636  0.00032  58427.72537    9.8068  0.33615    119874.7694  47.11606  19.37718  58468.44141    51.24016       44.69002    16.3516  25.57378   35.0    0.32184  -21.43707  0.99649 
   -5.39494  0.02852  3.03202     14.25842  1.71235  0.75115   4.63053  0.08196      0.0547   9753.67763   7214.79261  0.65846          2898.9696     18.71754   0.0029  58429.10896   2.62781  0.13207   444658.47067  45.89095  19.36783   58470.5472    51.20049       44.59923   14.53476  31.00311   42.5    0.33805  -21.43191   0.9935 
   -4.43679  0.00364  2.79184     14.04983  1.50313  1.37074     2.477  0.17758     0.26265   8669.67837   6184.27956  1.86497         2540.76049      16.4636    2e-05  58430.06711    1.1106  0.00901   864838.83968  45.61713  19.35272  58469.20131    51.24531       44.70563   15.18943  27.39416   44.0    0.31372  -21.37611  0.99954 
   -5.68412  0.00495  3.27252     14.20264  1.67981  1.06756   5.24633  0.13699      0.2287  10319.66497    9547.7854  1.49451         3622.39496     19.04728  0.00619  58428.81978   3.33284  0.02599   656998.75369  45.64678  19.29455  58468.44141    51.06572       44.45365    21.2212  29.65046   32.0    0.30868   -21.5601  0.99846 
   -8.14095  0.00102  2.45905     14.37144  1.63233  0.53847   4.68863   0.0868     0.19824      7860.44    5913.2755  0.42871         5625.61793     16.36743    1e-05  58426.36296   1.72809  0.00477    165686.1458  46.48083  19.31901  58468.44141    51.19741       44.64257   14.53476  27.25267   43.0    0.30312  -21.44976  0.99983 
   -4.86713  0.01342  2.97727     14.18528  1.61641  1.09648   6.36737  0.08054     0.08794   8011.93445   7490.08911  1.70617         3310.09201     18.41917  0.00146  58429.63677   2.43816  0.08548   566829.09936  45.77631  19.36071  58469.20131    51.40208        44.8716   12.71791  27.00224   39.0      0.296  -21.40901  0.99558 
    -6.2234  0.02793  1.93428     14.26911  1.97437  1.27469   19.3142   0.0179     0.01156   8004.90993    7068.5784  0.29818         4221.15699     16.56189    2e-05  58428.28051   7.38273   0.5395   198635.50527  46.69318  19.30504  58469.20131    51.27451       44.71874   13.59426  28.97196   42.5    0.36741  -21.39502  0.99148 
   -5.51426  0.46905  0.94826     14.44074  1.91545  1.45624   7.69269  0.10353     0.03803  11224.03517   6216.24621   0.0189         3456.74722     17.04992    6e-05  58428.98965   5.78101  3.60823    21011.22006  48.27481   19.4639   58470.5472    51.33154       44.81261   15.41111  26.05923   38.0    0.32922  -21.49316  0.99294 
   -8.15069  0.01194  1.57997     14.09005  1.43608  1.15363   8.78726  0.05725     0.09031   7666.21461   7122.11049  0.39251         5384.97443     19.61697    0.023  58426.35321   3.08065  0.10494   219884.15357  46.68653   19.3615  58469.20131    51.23311       44.68779    16.3516  26.23199   39.5    0.30667  -21.41467   0.9982 
    -5.7227  0.00131  1.60791     14.25022  1.40407  0.82057  20.73198  0.01786     0.01217   4727.78053   9718.06807  1.32669         4350.31698     17.63599  0.00024  58428.78121   2.76428  0.02719   106484.04977  46.97643  19.33994  58468.44141    51.18187       44.62615   18.93486  26.60301   37.5    0.26957   -21.3386  0.99951 
   -3.91003  0.04941  2.25455     14.41149  1.86655  0.76624  10.59896  0.05169     0.15719   8671.64839   7819.64057   1.4417         2501.42919     19.99923  0.05546  58430.59387   4.75438   0.5237   132435.18235  46.71176  19.33382  58468.44141    51.36493       44.87293   12.71791  25.18539   38.0    0.30322  -21.42564  0.98775 
   -4.80172   0.0661  1.98178     14.17418  1.57413  1.26915  13.30385  0.03167     0.02128   7588.98067   8707.53762  0.85814         3162.50267     16.61316    2e-05  58429.70219   4.57058  0.87933   257403.38522  46.46116  19.34018  58469.20131    51.16985        44.6059   18.16845  27.36942   37.5    0.31539  -21.32694  0.97967 
   -5.90276  0.00262  2.59975      14.3677  1.69357  0.66166   6.74296  0.07466     0.04822   8299.80438   7265.30298  0.73725         4030.01136     17.84345  0.00039  58428.60115   2.77085  0.01766   195472.08584   46.3767  19.35774  58468.44141    51.17789       44.60799   18.16845  27.25267   38.0    0.31984  -21.43837  0.99935 
   -4.86306  0.00525  2.97759     14.42949  1.83093  0.67348   8.12069   0.0667     0.49799   7143.19919   7578.96247  1.75395         3179.34378     16.72563    3e-05  58429.64085   2.47176  0.04265   208563.70945  46.26455  19.32738  58468.54721    51.12654       44.51561   20.11099  31.00478   41.0    0.26536  -21.32284  0.99817 
   -6.63941   0.0142  1.22404     14.25421  1.79071  1.20115  17.69918  0.02651     0.45346   8658.18569   7478.11785  0.09743         2186.88296     16.08986    1e-05   58427.8645    7.9147   0.2514    77268.36788  47.45828  19.34692  58469.20131    51.22955       44.66511    16.3516  29.06952   36.0    0.33922  -21.33929   0.9983 
    -4.8282  0.00935  1.94869      14.1697  1.64913  1.49619   4.38419   0.1031     0.43295   7452.26444   7799.54386  0.87425         3965.19452     19.79967  0.03503  58429.67571   1.45242    0.041   266169.44034  46.48145  19.41184   58470.5472    51.33735       44.81741   12.71791   26.2401   36.5    0.32935   -21.4876  0.99913 
    -6.4933  0.09529  1.90938      14.5481  1.68051  0.42116   7.26742  0.08545     0.14935   9900.55107   8230.56339  0.31692         3850.18594     20.17847  0.08379   58428.0106   4.24939   0.6925    45586.69384  47.27366  19.38585  58469.20131    51.42143       44.92274   12.71791  25.18539   34.5    0.31999   -21.5508  0.98644 
   -2.90259  0.09468  1.36118     14.69371   1.9165  0.60787  15.29094  0.04422     0.46496   7570.09616   7384.72502  1.18609         4060.22825     17.91302  0.00045  58431.60132   5.22714  1.44768    13512.22138   48.1528  19.38273  58468.44141    51.18408       44.62983   18.29415  27.12697   37.5    0.28302  -21.43205  0.99134 
   -8.09619  0.02171  1.21064      14.0923  1.64606  1.47251   28.8881  0.01847     0.10653    8655.5196   6632.52678   0.3153         4013.28312     20.69867  0.27758  58426.40771  12.91018  0.62728   146451.50907  47.15357  19.31527  58466.74857    51.15863       44.61436    16.3516  25.43583   42.5    0.30132  -21.59924  0.99503 
   -5.51017  0.01355  1.33261     14.41845  1.76168  0.69876  11.15574  0.02941     0.11198   4809.48604   8851.80609   0.8224         5849.64119     16.28063    1e-05  58428.99374    1.5393  0.15115    42291.32665  47.63912  19.35646  58468.44141    51.17066       44.59688   18.16845  29.06952   37.0    0.30564  -21.49268  0.99873 
   -5.03182  0.11294  1.55373     14.51081  1.68696   0.5221  16.58242  0.03406     0.38529   9625.25171   5799.83315  0.49623         3191.36966     20.48017  0.16784  58429.47209    9.1643   1.8728    35979.46358  47.55714  19.29737  58465.52734     51.3235       44.87013   14.53476  21.80214   41.0    0.32209  -21.56017  0.97686 
   -4.37479  0.00646  2.06998     14.56876  1.74038  0.45783   8.09064  0.05194     0.24766   6895.18027   8259.34905  0.80463         4351.31124      19.2727  0.01041  58430.12912   2.29457  0.05223    50452.03083  47.17468  19.28833  58466.74857    51.35592        44.8519   14.53476  25.11873   36.5    0.32913    -21.418  0.99885 
   -4.81929  0.00566  1.04956     14.37591  1.65014  0.71201  27.03515  0.01049     0.42499   5182.97744    9139.2359  0.75776         5985.88956      16.8847    4e-05  58429.68462   4.33226  0.15303    29890.46337  47.96882  19.37103  58468.54721    51.14044        44.5673   18.16845  29.06952   34.0    0.34864  -21.58171  0.99919 
   -5.45181   0.0022  2.22905     14.12183  1.50246  1.18534   4.01931  0.10273     0.15849   6879.03496   7411.11486  0.93166         4012.53341     18.82714  0.00373   58429.0521   1.13458  0.00885   395542.23801  46.15221  19.36627  58466.74857    51.35068        44.8622   14.53476  23.61898   40.0    0.30584  -21.38057  0.99971 
    -6.6058  0.10526   2.7269     14.13452  1.52482   0.9584    3.8355  0.14902     0.07821  10429.35045    6599.3305  0.45851         3783.83664     17.84156  0.00039   58427.8981   2.48865  0.40374   566681.71654  45.82738  19.33689  58469.20131    51.26891       44.69448    16.3516  29.06952   39.0    0.32213  -21.50893  0.98113 
   -6.88063  0.07302  2.04529     14.40008  1.70549  0.72697   9.79534  0.06526     0.18579   7785.12762   8174.39514  0.90353          3507.2606     18.27674  0.00105  58427.62328   3.54143  0.71522   104958.48449  46.85816  19.36771  58468.54721    51.34142       44.80818   15.18943  24.78115   38.0    0.26611  -21.33746  0.98438 
   -6.53116  0.00262  2.05683     14.28558  1.85084   1.0886  22.91197   0.0173       0.332   6221.30416   8899.86322  0.66429         4700.60308     18.67405  0.00262  58427.97274   5.28996   0.0601   195175.93739  46.61939  19.32541  58469.20131    51.27268       44.73972   15.18943    26.598   37.5    0.28825   -21.3325  0.99881 
   -6.94401  0.00349  2.61906       14.168  1.81048  1.29239   3.91207  0.11391     0.06855   8220.07764   6016.55507  0.57489         5624.32402     19.05242  0.00627   58427.5599   1.57683  0.01366   531995.38425  45.96444  19.36706  58468.44141    51.25658       44.72105   18.16845  25.43583   40.0    0.31329  -21.62159  0.99954 
   -6.30527  0.01463  1.25853     14.28949  1.72329  1.31202   34.7279  0.01658     0.06758   7396.28306   9557.28241  0.59799         5129.89665     17.64764  0.00025  58428.19864  11.33268  0.50812    66821.55277  47.48056  19.32708  58468.44141    51.16039       44.61666   18.16845  25.43583   32.0    0.29889  -21.45554  0.99636 
   -4.23378  0.04917  2.21176     14.19912  1.62258  1.22086   7.73673   0.0845     0.38542   9269.08825    7109.6299  2.24596          2286.0759     19.80099  0.03513  58430.27012   3.96514  0.38041   294615.45734  46.32032  19.33367  58469.20131    51.28161       44.74664   17.00628    26.598   38.5    0.27818  -21.41728  0.98938 
   -4.98539  0.01828  2.02721     14.52823  1.92612  0.64602  16.08972  0.03052     0.06076   7476.09662   8916.52182  0.77925         4093.14902     17.59085  0.00022  58429.51852   5.36445  0.29409    64540.63143   47.1299  19.35508  58468.44141    51.19516       44.63676    16.3516  27.25267   33.5    0.32671  -21.42564  0.99474 
   -8.08463  0.03704  1.95685     14.46061  1.79503    0.596  10.66965  0.04716     0.09565   8043.53502   7809.65586  0.24206         4765.90116     16.72131    3e-05  58426.41928   4.11786  0.39518    76522.41804  47.05601  19.35571  58466.74857    51.17091       44.55364   17.11802  31.93679   38.5    0.29348  -21.29776  0.99261 
   -7.03823   0.0233  1.50285     14.06816   1.5019  1.50778  18.74546  0.01929     0.03017   6840.52952   6943.53323  0.35347         5230.55033     16.84598    4e-05  58427.46567   5.23242   0.4368   230122.39179   46.7297  19.30849  58468.44141    51.13742       44.56494   18.16845  27.25267   45.0     0.3045  -21.34555  0.99373 
   -6.19748  0.05718  1.67307     14.07576  1.25804  0.94529  10.63724  0.05031     0.35534   9144.91636   6759.99398  0.53691         2456.04987     17.88653  0.00043  58428.30643   5.30659  0.60827   230683.60039  46.55849  19.41274  58469.20131    51.25019       44.69503    16.3516  26.23199   40.0    0.31631  -21.36486  0.98585 
    -3.8674   0.0822   3.4479     14.24033  1.97061  1.29291   4.98738   0.1016     0.13562  10370.05113   6016.63408  1.59132         2542.69682     19.08118   0.0067   58430.6365   3.19935  0.40998   719239.48947  45.63146  19.38241  58468.54721    51.37428       44.86695   15.41111  24.55948   42.0    0.31858  -21.49404  0.97919 
   -8.40477  0.05486  2.96909     14.23699  1.89646  1.30736   7.17797   0.0886     0.05717   8803.10582    7720.0264  0.73015         4146.10901      18.9541    0.005  58426.09913   3.31819  0.39378   521231.68752  45.88451  19.33122  58468.44141    51.26752       44.75602    16.3516  25.43583   38.5    0.27611  -21.44324  0.98427 
   -5.57823  0.01105  1.76653     14.17524  1.50261  1.08687  16.81066  0.02966     0.02942    8048.1093   8735.40091  0.57777         4612.61422     18.22671  0.00094  58428.92567    6.4953  0.18579   194281.38797  46.66302  19.26463  58468.44141    51.27225       44.70913   14.53476  29.18627   33.5    0.33929  -21.47754   0.9963 
   -7.49882  0.02901  1.58584     14.18033  1.55805  1.06483  18.21459  0.03079     0.03042   8642.97607   8706.08184  0.28338         5954.33703     19.10109  0.00701  58427.00509   8.11658  0.52845   158580.29661  46.86066  19.30835  58468.44141     51.2995       44.78325   13.37259    26.598   34.0    0.31608  -21.48795  0.99205 
   -5.50362  0.01556  2.53822     14.28661  1.83945  0.86436   7.58335  0.04899     0.05916   8266.54627   6033.29331  0.73477         2871.68777     16.36274    1e-05  58429.00028   3.09127  0.11798   293996.93524  46.25613  19.29183  58466.74857    51.23931       44.71187   15.18943    26.598   45.5    0.32374  -21.38926  0.99635 
   -6.50846  0.02539  1.92912     14.29306  1.66419  1.03275  13.26804  0.04952     0.18148   7456.98399   7976.64625  0.85074         3998.99152     16.16512    1e-05  58427.99544   4.40109  0.33682   149148.08703  46.74571  19.36421  58468.44141      51.381       44.85603    16.3516  25.43583   37.0    0.27261   -21.3295   0.9932 
   -4.48411  0.23639  2.38303     14.21691  1.41902  0.95445   3.13593  0.13811     0.07728   5817.39001   7380.51256  1.85297         3742.21632     17.87878  0.00042   58430.0198   0.63307   0.7413   275573.06013  46.22634  19.33195   58470.5472    51.20913       44.63663    16.3516  29.06952   41.0    0.26929  -21.31851  0.97109 
   -6.71409   0.0858  1.56048     14.26815  1.94905  1.52114  10.56583  0.04471     0.02962   8777.36876   9237.19382  0.16044         2771.99585     19.86475  0.04069  58427.78981   4.85579  0.90654   128192.18781  47.06429  19.30356  58469.20131    51.21294        44.6545   15.18943  28.41484   33.5    0.32971  -21.37999  0.99081 
   -4.01532  0.01166  1.44806     14.38223  1.47604  0.51352  10.54824  0.02492     0.03545   5154.92558   8844.86106  0.83678         5628.31887      18.4947  0.00174  58430.48858   1.67206  0.12297    49435.34236  47.42233  19.30251  58466.74857    51.13532       44.57452   19.98529  27.83299   37.5     0.3422  -21.55713  0.99832 
   -6.03025  0.00304  1.91447     14.08939  1.39783  1.24506  19.68311  0.02501     0.11618   7101.63589   8090.21678  0.90125         4353.29105      18.9599  0.00507  58428.47365   5.92158  0.05981   315205.35737  46.35161  19.31498  58468.44141    51.29283       44.77092   15.18943  24.78115   36.5     0.2991   -21.4462  0.99842 
   -7.13042   0.0178  1.70525     14.29183  1.58776  0.81048  16.40946  0.04197     0.06034   8737.42138   8560.99152  0.35953         4640.97497     19.81548  0.03632  58427.37348   7.47288  0.29202   111817.63734  46.95754   19.3692  58469.20131    51.42265       44.92735   11.86448  25.94714   33.5    0.28123   -21.4302  0.99504 
   -3.95049  0.03762   2.6197     14.26672  1.70947  0.99579   5.64217  0.07978     0.07173   7820.91998   6624.06833  1.01296         4265.79579     19.00068  0.00556  58430.55342   2.05868  0.21224   318960.01922  46.16147  19.34479  58469.20131    51.28564        44.7583   13.59426  26.37632   37.0    0.33001  -21.51158  0.99225 
   -3.61658  0.01467  1.41283     14.21755  1.84298  1.16548    8.6631  0.03874      0.3406   6055.63236   8257.20082  0.65778         5644.18323     20.49326  0.17298  58430.88733   1.89504   0.1271   125437.07945  47.13576  19.36949  58468.54721    51.18907       44.58941   20.75171   28.3031   39.0    0.32012  -21.67305  0.99883 
   -5.21677  0.02679  2.92923     14.20335  1.64933  1.12786   4.77236  0.12688     0.33919   9266.80198   6432.66977  1.44353         3080.40194     17.30434  0.00011  58429.28713   2.44467  0.12783   515152.32124  45.84071  19.26652  58466.74857    51.22828       44.64802   20.11099  27.24372   38.5    0.31085  -21.41046  0.99381 
   -5.63307  0.16939  2.06932     14.36634  1.59517  0.81698   8.65661  0.11058     0.25729   11026.0076   6275.69147  0.77848         2818.32741     16.16953    1e-05  58428.87083   6.27786  1.46631   117379.61319   46.7704  19.28766  58468.54721    51.32883       44.81011   14.53476  25.43583   37.5    0.27161  -21.43456  0.96463 
   -5.31541  0.00425  3.19497     14.40211  1.94964  0.69823   7.18302  0.06162     0.04641   8497.83014   5741.84558  0.84681         3654.02617     19.51823  0.01832   58429.1885   3.09421  0.03056   290059.13735  46.08738  19.30496  58469.20131    51.23717       44.68031   14.53476  29.06952   42.0    0.32802  -21.44802  0.99862 
   -7.20995  0.00605  1.73067     14.26316   1.3635  0.52619   8.82058  0.04686     0.14994   9149.51461   5772.82351  0.08697         5795.86148     16.20352    1e-05  58427.29395   4.40474  0.05334   112867.73461   46.8745   19.3118  58468.54721    51.32068       44.80668   15.18943  24.78115   43.0    0.34189  -21.43899   0.9988 
   -5.23113  0.11329  1.75312     14.09234  1.49723  1.51926    5.0398   0.0887     0.23959   8823.23373   6265.45825  0.67797         2111.37142     19.10374  0.00705  58429.27277   2.34043  0.57098   279285.39636  46.51046  19.31728  58466.74857    51.35667       44.84806   13.59426  24.55948   42.0    0.32288  -21.35145  0.98877 
   -5.25411  0.08739   2.0588     14.36035  1.95804   1.2973  10.14742  0.07262     0.17996  10594.29676   7668.18065  0.51007         3143.74484     16.56674    2e-05  58429.24979   6.79403  0.88683   146608.33686  46.76728  19.39959  58468.44141    51.08745       44.47376   19.98529  29.31363   33.0    0.34121  -21.49429  0.98431 
   -7.54011  0.04319  2.33909     14.06187  1.34367  0.91736   3.62008   0.1218     0.25132   8512.67709   5422.03969  0.46659         3967.71321     16.30804    1e-05   58426.9638   1.56487  0.15637   513396.26594  45.94859  19.32739  58468.54721    51.20415       44.64214    16.3516  29.06952   44.5    0.30651  -21.36464  0.99343 
   -4.67622   0.0168  2.68198     14.32192  1.57563  0.71485   5.77722  0.11932     0.11532  10546.75764   8706.10862  1.37734         3142.06946     18.57319  0.00208  58429.82769    3.8334  0.09704   238966.29505  46.23105  19.34161   58470.5472    51.22728       44.65937   14.53476  29.06952   32.0    0.32123  -21.53079  0.99578 
   -6.03506   0.0142  1.63865     14.26999  1.70169    0.951  15.07011  0.02812      0.0374   7493.37283    6915.8684  0.32527         3354.32726     16.57111    2e-05  58428.46884   5.04775  0.21406   122373.59961  46.98306  19.34985  58469.20131    51.25519       44.72937   15.18943    26.598   41.0    0.31513  -21.26529  0.99699 
   -6.07181  0.10891  2.54974     14.14861  1.71923  1.40202   4.65382  0.10942     0.04346   9385.30199   6112.88885  0.34789         4553.40771     18.03578   0.0006   58428.4321    2.4453  0.50686   523498.25197  45.97227  19.37296  58469.20131    51.14963       44.55856   18.16845  29.06952   39.0    0.31872  -21.49311  0.98274 
   -6.03534  0.14509  1.58814     14.30658  1.70221  1.03204   7.72945  0.07635     0.03655   8578.48976   8314.20747  0.31657         5567.70655     19.42734  0.01486  58428.46857    3.3931  1.12149    97149.39643  47.11064  19.28117  58466.74857    51.21253       44.68438    16.3516  26.21462   34.5    0.33235  -21.46122  0.98571 
   -5.51024  0.35457  1.17554     14.54749  1.80696  0.74751   7.21099  0.08863     0.02963   8859.33289   7771.13433  0.47491         5919.61824     16.77638    3e-05  58428.99366   3.37617  2.55682    18631.77483  48.11506  19.37998  58468.54721    51.30003       44.79456   15.18943  24.78115   36.0    0.33418  -21.56585   0.9879 
   -7.37568  0.01033  2.31104     14.11972   1.6257  1.19165    5.7984  0.09352     0.11985  10667.04096   9281.21594  0.01779          4049.3749     17.82412  0.00037  58427.12822   3.93571   0.0599   464550.86723  46.08524  19.38052  58469.20131    51.15899       44.59109   18.93486   28.3031   30.5    0.34911  -21.47598  0.99815 
   -5.93534  0.13079   1.2724     14.40261  1.97097  1.35701   15.8107  0.04601      0.0378  11007.98181   8464.32616  0.07711         3509.63431     16.53619    2e-05  58428.56857  11.42862   2.0679    46400.45191  47.68776  19.31282  58466.74857    51.26994         44.751   15.18943    26.598   31.0    0.35582   -21.5201  0.98888 
   -8.37504   0.0022  2.25769     14.34943  1.77914  0.68144   9.02162  0.04775     0.46122   7392.61826   9707.39723    0.424         5795.90387     18.41853  0.00146  58426.12887   2.94109   0.0198   168457.85401  46.58524  19.29787  58468.44141    51.24092       44.71699   14.53476  26.21462   35.5    0.29948  -21.44084  0.99949 
   -6.06927  0.05034  1.73465     14.37885  1.88564  1.02233  14.22785  0.03878     0.02807   8010.54407   8656.79126   0.5071         4419.43004     18.68275  0.00268  58428.43463   5.44616  0.71625    92044.83646  47.10188  19.29569  58469.20131    51.14221       44.55868   18.16845  29.06952   33.5      0.308  -21.41122  0.99061 
   -4.97693  0.06882  1.76102     14.57314  1.59102  0.38241  10.40066  0.03381     0.05847   7049.88865   5580.68812  0.57476         4410.11385     19.18602  0.00853  58429.52697   3.08356  0.71581    32714.78708  47.46425  19.32375  58468.44141    51.24502       44.73857   15.18943  24.78115   42.0      0.343  -21.38975  0.98712 
   -7.31885  0.00127  2.63118     14.20137  1.71159     0.95   4.58987  0.06668     0.05171    6954.4569   6630.75754  0.64744         5005.81877     17.47141  0.00016  58427.18505    1.3242  0.00583   435280.41717  46.02318  19.38375  58469.20131    51.21537       44.66391    16.3516  27.25267   45.0    0.31685  -21.43247  0.99978 
   -5.36551  0.00127  2.08382     14.23609   1.5896   0.8523   4.39025  0.09958     0.31234   8307.07164   9333.75461  0.53359           4802.034     17.92884  0.00047  58429.13839   1.80723  0.00557   216096.93695  46.49776  19.21969  58466.74857    51.22257       44.68625    16.3516  24.41514   33.0    0.34252  -21.52894  0.99986 
   -5.17732  0.02259  1.50443     14.34926  1.69068  0.90978  19.80707  0.02235     0.08827   6533.35219   8656.57744  0.69361         5189.29066      17.6983  0.00028  58429.32659   5.04335  0.44753    71136.25593  47.29007  19.30802  58468.44141    51.28043       44.75572    16.3516  25.43583   35.0    0.31177   -21.4286  0.99487 
    -6.4482  0.07577   1.2682     14.33986  1.80284  1.39812   13.1723  0.05377     0.05243   8810.86234    8807.3442   0.3998         4201.51758     16.29866    1e-05  58428.05571   6.09994   0.9981    56289.11824    47.568  19.25504  58468.44141    51.16667       44.58545    16.3516  29.06952   32.0    0.31409  -21.35902  0.99359 
   -4.26317  0.06254  1.43243      14.4053  1.76311  0.83403  14.15538  0.03018     0.09965   6456.90627   7479.50055   0.7031         5783.66249     19.25101   0.0099  58430.24074   3.52045  0.88531    51957.64632  47.48733  19.38779  58469.20131     51.2031        44.6056   15.18943  30.23169   36.0    0.31636  -21.54555   0.9916 
   -6.44349  0.01602  1.92019      14.2335  1.82872  1.39884   8.80901  0.04088     0.02111   6306.45399   9462.95165  0.60135         4874.56455     18.61044  0.00227  58428.06042    2.0899   0.1411   213622.94776  46.63466  19.40122  58469.20131    51.29591       44.77524   17.00628  24.78115   36.0    0.31779  -21.34891  0.99752 
   -2.97899   0.0512   3.8292     14.47696  2.01327  0.72026   4.12581  0.16456     0.17376   9570.12174   6711.89371  3.64671         2921.33529     19.34058  0.01217  58431.52492   2.25409  0.21123   304803.49901  45.92251  19.35564  58468.44141     51.1544        44.5626   19.98529  27.79795   38.5    0.29394  -21.48687   0.9871 
   -3.77657  0.06383  1.78314     14.34874  1.81029  1.13448  18.00838  0.03105     0.17805   8126.70039    8960.8638  0.91945         3857.66382     20.06996  0.06527  58430.72733   7.09464  1.14945   107261.75068  46.99378   19.3153  58469.20131    51.27134       44.72904   14.53476  27.39062   34.0    0.31262  -21.49656  0.98317 
   -6.24687  0.09726   2.3431     14.43746  1.94826  0.79329   8.12246  0.05519     0.19278   7360.56958   6764.44486   0.7201         4316.86639     16.75951    3e-05  58428.25704   2.62505  0.79002    132471.7278  46.69679  19.37387  58469.20131    51.16651       44.58873   20.11099  27.24372   40.0    0.30775  -21.41344  0.98141 
   -6.93795  0.00717  1.37476      14.3544  1.81453  0.78048  15.85725    0.028     0.09568   7773.95225   8072.11375  0.24485         4823.18031     20.15674   0.0797  58427.56596   5.71661  0.11365    62264.44744  47.45691  19.32948  58468.44141    51.13497       44.52467   14.53476  32.70321   37.0    0.31931  -21.41002    0.999 
   -4.60728  0.03498  2.44981     14.12293   1.5925   1.3521   3.68265  0.13058     0.30651   8949.26856   6359.58459  1.02776         2648.52079     17.35436  0.00013  58429.89663   1.75939  0.12884   503850.99028  45.99036   19.3969  58469.20131    51.49958       44.97325   14.53476   26.2401   41.0    0.31367  -21.38177   0.9954 
    -4.1372   0.1111  2.54363     14.61384  1.78072  0.43127   6.67992  0.06527     0.04016   7839.09306    9072.5835  0.91283         3870.79592     18.66797  0.00259  58430.36671   2.44867  0.74211    63332.99856   46.9069  19.37402  58468.54721    51.34343         44.814   14.53476  27.25267   35.0    0.32701   -21.4206  0.97642 
   -9.12289  0.01844   2.8604     14.20162  1.83334   1.1675   5.82608   0.0868     0.04572   8518.14653   5968.89345  0.48622         4272.35713     16.17867    1e-05  58425.38102    2.5217  0.10745    550398.2529  45.87856  19.41472  58468.54721    51.34398       44.79576   15.18943    26.598   42.0    0.30342  -21.38986  0.99575 
   -4.61315  0.02112  1.93571     14.18056  1.60775  1.01624   4.54024  0.06419     0.04821   7632.35357   7064.81899  0.46476         4278.09468     16.36497    1e-05  58429.89076   1.57769  0.09588   243550.91818  46.51479  19.31168  58468.54721    51.21675       44.67439   14.53476  27.25267   42.5    0.37314  -21.39762   0.9979 
   -6.24951  0.01751  1.38695     14.17096  1.32015  0.70966  21.23323  0.01699     0.01017   6710.80552   7133.92333  0.60466         5214.61869     19.98844   0.0541   58428.2544   5.70417   0.3718   107313.09891  47.07469  19.27891  58465.52734    51.41926       44.94649   12.71791  23.61898   40.5    0.32683  -21.54764  0.99447 
   -4.71778  0.14424  2.34966     14.35876  1.83988  1.04807   9.45495  0.06916     0.02827   9491.51815   8821.65169  0.99187         3109.56948     19.55052  0.01974  58429.78613    5.0811  1.36377   180758.81719  46.53453  19.34182  58468.44141    51.17379       44.61357   18.16845  27.25267   33.5    0.30269  -21.44624  0.96552 
   -5.61162  0.00104  1.83025     14.20547  1.83742  1.49953  13.38925  0.02085     0.02508   5686.51465   6652.87986  0.63251         5705.84742     16.37786    1e-05  58428.89228   2.58271  0.01392    221872.8977  46.66193  19.31448  58469.20131    51.13728       44.56579   18.93486   28.3031   40.5    0.33427  -21.44563  0.99978 
   -8.91156  0.00163  2.03894     14.28671  2.02767  1.46873  20.31002   0.0258     0.08742   6995.49286   9781.43719  0.55733         4598.88727     17.61074  0.00023  58425.59235    5.9289  0.03318   209031.47612  46.63682  19.40038  58469.20131    51.17444       44.56231    16.3516  31.46668   34.0    0.27362  -21.31652  0.99944 
   -6.88542  0.00359  1.96204     14.17686  1.81062  1.39614  18.55098  0.02039     0.24167   6826.21307    5761.4469  0.46949         5852.72371     19.68418  0.02685  58427.61848   5.15648  0.06653   286640.26302  46.48392   19.3904  58469.20131    51.25703       44.70483   15.18943  27.39416   42.0    0.30491  -21.47809  0.99875 
   -6.34569  0.00104  1.80131     14.25494  1.64648  0.92833   6.04105  0.08777     0.31574   8756.48389   8602.65635  0.29434         5356.12969     17.52645  0.00019  58428.15821   2.76311  0.00627   153346.60255  46.78855  19.25666  58468.44141    51.22236       44.67221   18.16845  25.43583   32.0      0.338  -21.48247  0.99989 
   -7.40186  0.00579  2.51191      14.1255  1.66976  1.10926   5.49211  0.06779     0.06879   8128.01693    7923.9948  0.46835         3655.18173     19.13604   0.0076  58427.10204   2.16439   0.0318   548889.00423    45.952  19.31875  58468.54721    51.26057       44.70607   13.59426  28.98932   44.0    0.30573  -21.37595  0.99888 
   -6.03071  0.48032  2.94419     14.14138  1.63283  1.40192    4.9449  0.09776     0.04022  11045.21146    6300.8071  0.27356          3899.0585     18.22291  0.00093  58428.47319   3.59859  2.37515   685370.25214  45.70793  19.40526  58468.44141    51.16257       44.57329   17.11802  28.88342   41.0    0.35089  -21.49843  0.89379 
   -7.14671  0.00138  2.52481     14.43804   1.9972  0.65698   4.95243   0.0892     0.19795   8627.95519   5484.53043  0.27155         4939.86888     18.91631  0.00458  58427.35719   2.19918  0.00683   157262.11978  46.56818  19.30166  58468.44141    51.21246       44.66756    16.3516  27.03222   41.5    0.32386  -21.44338  0.99982 
   -6.59336  0.01405  2.47655     14.28314  1.81367  1.00506  10.77925  0.04253     0.06538    7675.5641   9180.97169  0.58509         4935.85707     18.48199  0.00169  58427.91054   3.78823  0.15142   280404.11537  46.29193  19.42455   58470.5472    51.27702       44.72899    16.3516  27.25267   34.5    0.30904  -21.43641  0.99547 
   -6.22028   0.0375  1.21717     14.51608  1.60487  0.50159  22.64665  0.02163     0.08582   7857.02473   8844.63001  0.26264         4169.23726     16.31234    1e-05  58428.28363   8.33964  0.84923    20501.86062  47.99179  19.33651  58469.20131      51.282       44.72571    16.3516  27.03222   34.0    0.32655  -21.31018  0.99342 
   -4.13534  0.03215  2.16108     14.53739  1.99692  0.68186  19.74288  0.02993     0.11808   6724.56451   9918.66211   1.6295         3928.72127     20.51291  0.18098  58430.36856   5.32557  0.63482    72902.58375  47.03712  19.38735  58469.20131    51.34912       44.83611   15.18943  24.46406   36.0    0.25894  -21.58334  0.98783 
   -6.30518  0.02813  1.64934     13.99354  1.26592   1.3596   4.01109  0.12317      0.4285   7462.31412    9164.5002  0.58535         4333.75339     17.46274  0.00016  58428.19872   1.33241  0.11285   329423.52429  46.41888  19.27267  58466.74857    51.23578       44.69532    16.3516  27.03222   34.5    0.29177  -21.39279  0.99744 
   -6.45542  0.00584  2.32666      14.1002  1.46322  1.09224   3.52069  0.15088     0.44968   9235.03871   8406.11729  0.86752         3008.36158     19.46204   0.0161  58428.04849   1.79115  0.02055   463650.05074   46.0345  19.42631  58469.20131    51.08867       44.46187    21.2212  31.03052   35.5    0.31625  -21.43776  0.99925 
   -3.81789  0.01462  3.64085      14.1626  1.69217  1.21207   4.02848  0.07116     0.24122   5846.96109   8395.67635  2.47375         3472.09685     17.70293  0.00028  58430.68602   0.82154   0.0589   985056.05064  45.38142  19.31908  58466.74857    51.11346       44.53427   19.73441  27.50355   42.0    0.34332  -21.38423  0.99573 
   -6.26814  0.00896  1.75884     14.18741  1.68351  1.06181  14.72198  0.02771     0.37655   8684.99635    7029.0318  0.29645         2309.65262     16.76823    3e-05  58428.23577   6.62419  0.13189   204011.41745  46.69496  19.33435  58468.54721    51.23835       44.65931   18.16845  27.25267   41.5    0.33612  -21.37707  0.99779 
   -4.65024  0.09548  2.05825     14.21795  1.68579  1.53094   7.96541  0.07989     0.30388   9715.78684   9941.53929  1.09495         2309.89504     19.47964  0.01676  58429.85367    4.4853  0.76054    243060.5758  46.48294  19.34373   58470.5472    51.30893       44.77189   13.59426  28.19317   29.5    0.30057  -21.40089  0.98289 
   -6.68485  0.00197  2.49414     14.11498  1.63966  1.23134  15.72138  0.02074     0.09257   6783.50559    6424.1086  0.60806         4821.22143      16.2948    1e-05  58427.81906   4.31545  0.03095   557759.74173  45.94331  19.34848  58466.74857     51.1775       44.65194   18.16845  24.41514   45.5     0.3009  -21.37153   0.9989 
   -6.41093  0.15417  1.40616     14.47708  1.94882  1.01332   9.77998  0.09802     0.22634   10922.4417   8043.07078   0.1916         5421.76106     17.68111  0.00027  58428.09298   6.95993  1.50776    39764.87644  47.66305  19.38168  58466.74857    51.13118       44.55662   18.16845  27.25267   32.0    0.30501  -21.46963  0.98948 
   -6.39289  0.00806  1.86572      14.3175  1.60511  0.72908  10.99422  0.04317     0.03886   7584.55385   8551.38958  0.48161          4923.8448     18.65434  0.00251  58428.11101   3.77269  0.08864   120228.52545  46.85265   19.2814  58466.74857    51.03705       44.40618   21.80214  30.88636   35.0    0.31817  -21.42233  0.99821 
   -4.76151  0.04767  3.41522     14.41162  2.13024  1.03056   7.41949  0.08034     0.09093   8297.21745   6970.59455  1.41704         3791.71592     16.05228    1e-05  58429.74239   3.04695  0.35366   346616.15872  45.99059  19.37387  58468.44141    51.23672       44.67846   18.16845  26.21462   38.5    0.29427  -21.47885  0.98432 
   -3.83542  0.04676  1.99978      14.6846  2.14145   0.5721  12.20794  0.03984     0.38047   7000.90157   9053.64407  0.95046         4025.55199     17.71523  0.00029  58430.66848   3.56925   0.5708    33985.27113   47.4663  19.35291  58466.74857    51.06419       44.46306    21.2212  29.65046   34.0    0.32744  -21.39797  0.99179 
   -8.45856  0.04681  1.03595     14.24587  1.64042  1.14151  31.72292  0.01922     0.12455   9363.04987   9648.96631  0.02117         2741.60658      19.6807  0.02663  58426.04534  16.58956   1.4849    52688.47651   47.7314  19.31166  58466.74857    51.37094       44.90622   13.59426  22.40051   30.5    0.31836  -21.30694  0.99256 
   -5.33899  0.05231  1.00316     14.31698  1.71288   1.5107  23.61377  0.02622     0.14464   8052.19848   8923.44899  0.52675         4849.47747      16.3996    1e-05  58429.16492   9.13317  1.23534    37181.10989  47.92951  19.34094   58470.5472    51.28027       44.72758   12.71791  29.06952   31.5    0.29886  -21.50938  0.99559 
   -7.08571   0.1314  1.53033      14.4267  1.66353  0.59648   5.53047  0.08528     0.08341   7963.15676   9704.63206  0.31117         2640.16133     18.90017  0.00441   58427.4182   2.09199  0.72672    50701.52407  47.41529  19.36415  58469.20131    51.29363        44.7451    16.3516  27.39062   33.0    0.30774  -21.24844  0.99091 
   -5.74652  0.01748  1.77409     14.30808  1.54842  0.75466  14.56242  0.03577     0.10286   8199.33979   7979.36084  0.54799         3837.09681     19.16894   0.0082  58428.75739   5.84008  0.25455   109518.07425   46.9213   19.3334  58466.74857    51.15996       44.59182    16.3516  29.18627   35.0    0.31336  -21.40178  0.99512 
   -5.03071  0.00225  2.27807     14.19227  1.40253  0.71077   6.94547  0.07908     0.08364  10068.55272   8633.98394  1.19917         2416.13813     19.70349  0.02807   58429.4732   4.20013  0.01563   278824.42732  46.25529  19.39318  58468.44141    51.22244       44.65952    16.3516  27.36942   34.5    0.32262  -21.48579  0.99941 
   -5.48159  0.02032  1.48936     14.37974  1.97309  1.00718  21.58876  0.02113     0.08526    8285.8325   8355.05869  0.32942         4359.93571     19.95381  0.04995  58429.02231   8.84152  0.43866    70709.75287  47.36851  19.39673  58468.44141    51.22355        44.6923    16.3516  26.21462   33.5    0.36308  -21.46051  0.99612 
   -5.22904  0.00682  1.90217      14.2151  1.36858  0.75428   8.32194  0.06803     0.08106   8435.62028   6928.11161  0.65856         3954.05806     17.00322    6e-05  58429.27486   3.53253  0.05679   170758.60054  46.61423  19.32628  58468.54721    51.14599       44.58333   18.29415  27.24372   37.0    0.31848  -21.42976  0.99847 
   -5.42697  0.00804  2.93152     14.15177  1.61757  0.97254   4.23155  0.13346     0.39869  10811.46469   6043.22825  1.41732         2428.72373     19.90069   0.0442  58429.07693    2.9505  0.03402    641693.4561  45.73619  19.36654  58469.20131    51.42595       44.94373   12.71791  23.27686   41.0    0.31221  -21.51844  0.99829 
    -5.8394  0.05727   1.5911     14.09315  1.43196  1.45535     7.085  0.06339      0.3591   6825.36528   8130.02673  0.67892         5961.69969     19.15529  0.00794  58428.66451   1.96888  0.40576   219201.59204  46.68054  19.34097  58468.44141    51.25593       44.70157   15.18943  28.19439   36.5    0.30112  -21.57118  0.99301 
