 texplosion  fnickel    Pspin  log(Bfield)      Mns  thetaPB   mejecta    kappa  kappagamma      vejecta  temperature    alpha  cutoff_wavelength  log(nhhost)      A_V         MJD0  kenergy  mnickel            TSD   log(L0)  Peak_mag     Peak_MJD  log(E_rad)  log(Peak_lum)  Rise_Time    E_fold  tau_1  delta_m15     r_peak     frac 
   -5.98156  0.05281  8.29269     14.56555  1.95099  0.90927   6.47874  0.05564     0.02873  10864.92767   6889.61681  1.69312         3663.81372     17.34629  0.00012  58724.42472  4.56217  0.34216   921214.79504  44.75735   17.7857  58751.31682    50.49949       43.94863   19.58673  26.46564   30.5    0.51574  -20.70352  0.90506 
   -6.74795  0.03538  6.97001     14.31736  1.58057  1.15507   2.66056  0.15502     0.10834  12157.74695   7392.31689  1.79671         3275.51033     16.08794    1e-05  58723.65833  2.34589  0.09414  1653364.07095  44.56282  17.73176   58752.1638     50.6668        44.1602   13.99081   22.7343   29.5    0.51067  -20.70446  0.97273 
   -6.29967  0.12999  7.11488     14.41641  1.68292  1.25787    2.9416  0.18533     0.14737  14241.06474   7221.47395  2.18422         2462.81191     16.34579    1e-05  58724.10661  3.55874  0.38238  1162481.70281  44.72519  17.71243  58753.36601     50.6508       44.13627   16.43916   23.4698   27.5    0.54524  -20.71014  0.90299 
   -3.22933  0.48444  4.09565     14.81779  1.84504  1.07263   3.13813  0.20984     0.07687  14235.21748   6990.83969  2.65992         2520.73401     17.76697  0.00032  58727.17695  3.79338  1.52024    66509.15594  46.48732  17.75225  58753.36601    50.59333       44.05927   18.25113   25.1113   27.5    0.51882  -20.75044   0.9011 
   -5.26251  0.03806   5.6417     14.51559  1.96508  1.32086   3.08345  0.12018     0.49351  12102.12238   7407.18878  0.32941         2326.44551      16.1925    1e-05  58725.14377  2.69393  0.11735   540542.73251  45.32658  17.75708   58752.1638    50.53452        43.9662   18.25113  27.00141   25.5    0.59552  -20.78456  0.98395 
    -5.2852  0.10506  7.26743     14.44107  1.72639  1.28377   3.38115  0.13626     0.49424  11631.94979   5319.33358  1.82528         3646.96382     17.06463    6e-05  58725.12108  2.72896  0.35524  1110657.51669  44.73764  17.79101  58753.36601    50.67499       44.16419   16.06513  22.61457   29.5    0.50791  -20.73757  0.90896 
   -4.79412  0.16944  7.70474     14.68585  1.72329  0.64084   4.03914  0.11869     0.10601  11832.01376   3929.48002  2.77389         3339.23091     17.20933    9e-05  58725.61216  3.37313   0.6844   403640.14365  45.12569   17.7238   58752.1638    50.59958       44.11249   17.13839  22.77057   31.0    0.49089  -20.70534  0.82147 
   -6.93043  0.10871  7.87756     14.38746  1.69441  0.76011   2.43306  0.19184     0.05611   13227.3217   6125.57808  4.53884         3174.56485      17.3559  0.00013  58723.47585  2.53936  0.26449  1639454.98882  44.49038  17.75729   58752.1638    50.65551       44.18456   16.43916  21.53631   29.0    0.51192  -20.75887  0.91595 
   -4.80747  0.02434  6.79932     14.62068  1.77528  0.72096   4.26093  0.09726     0.15627  10333.91097   6181.48647  2.50106         3215.16194     18.94094  0.00485  58725.59881  2.71432  0.10371    437178.9432  45.21252   17.6963  58750.25534    50.55322        43.9866    17.8771   25.1113   29.5    0.48778  -20.69886  0.97608 
   -5.37235  0.03049   8.1128     14.64953  1.90191  0.82781   4.80809   0.0878     0.32783   8032.99144   6510.39159  3.90097         4121.00502     16.70101    3e-05  58725.03393  1.85078  0.14662   583831.25155  44.96341   17.8347   58752.1638    50.49921       43.92326   19.74201  27.79429   30.0    0.46048   -20.7241  0.95738 
   -5.04815  0.04478  4.35132     14.47771  1.54862  0.91641   5.10398    0.074     0.41823   9770.09048   5216.81343  0.81455         3189.46625     19.77461  0.03306  58725.35813  2.90625  0.22853   301701.18334  45.70197  17.74916   58752.1638    50.54011       43.98447    19.2127  25.66581   29.0    0.51246  -20.72644  0.97379 
   -4.83021  0.08848  6.61036     14.48522  1.75029  1.17236   3.41672  0.13642     0.32033  11888.36703   6998.84186  2.90333         2840.02485     17.12203    7e-05  58725.57607  2.88059   0.3023   760219.83743  44.99057  17.70415  58751.31682    50.60924       44.10472   16.43916   22.7343   28.5    0.52556  -20.74247  0.93556 
   -5.16861  0.12445  4.85758     14.52732  1.53555  0.78419   3.73512  0.09262     0.06883  11094.59582   5472.42487  0.51481         3221.02538     19.41969   0.0146  58725.23767  2.74255  0.46485   296674.80139  45.60999  17.74059  58751.31682    50.59596        44.0939   17.13839  22.77057   29.0    0.55959  -20.74028  0.93521 
   -5.32468  0.02887  4.86812     14.65304  1.77382  0.69105   4.01498  0.10228     0.30082  11036.99152    6466.2173  1.73261          2064.0842     17.34404  0.00012   58725.0816  2.91751  0.11591   192919.20014  45.85766  17.74348  58753.36601    50.61778       44.07568   17.39305   25.1316   28.0     0.5302  -20.74408  0.98624 
   -5.36437  0.06551  4.54692     14.53016  1.64643  0.94619   4.02916  0.11128     0.46437  12534.50784   6010.75603  0.19574         2595.80216     17.31822  0.00012  58725.04191  3.77621  0.26395   275085.76926  45.73049  17.77382  58753.36601    50.58247       44.05339   18.25113   25.1113   26.0    0.60716  -20.79365  0.97001 
   -6.26288  0.16573  6.50625     14.73663  2.02653  0.64388   3.41739  0.11471     0.08451  12698.84425    6239.5019  0.18076         2580.11374     19.96409  0.05115   58724.1434  3.28738  0.56637    267904.6212  45.52096  17.73485   58752.1638    50.61023       44.12428   14.94471  22.51591   29.5    0.57909  -20.79334   0.9089 
   -5.75555  0.02873  4.81604     14.84993  1.91871  0.49966   4.14923  0.12562     0.11361  12389.35439   6698.18966  0.05687         3289.32164      19.5738  0.02082  58724.65073   3.7992  0.11923    82477.46546  46.27014  17.72754  58753.36601    50.60589       44.07869   15.80279  23.49583   25.0    0.59348  -20.80096  0.98772 
   -4.32744  0.08751  5.64611     14.75812  1.99769  0.74348   4.62414  0.08347     0.10524  10302.86052   6389.08649  1.06018         3396.83526     17.17822    8e-05  58726.07884  2.92802  0.40465     180138.485  45.81027  17.76248   58752.1638    50.55303       44.00421   18.25113  25.81901   28.0    0.52934  -20.74604  0.94812 
   -5.75912  0.08604  6.42776     14.48545  1.87501  1.28184   2.55001  0.16861     0.33184  12889.72028   7882.60443  2.64252         2124.47108     17.64648  0.00025  58724.64716   2.5273  0.21939   769190.06124   45.0397  17.72684   58752.1638    50.70251       44.26633   14.45643  19.44631   25.5    0.56041  -20.77891  0.95913 
   -4.48915  0.03794  6.07428     14.73585  1.96253  0.80836  10.18583  0.02806     0.16732   6928.83208    6680.8515  1.52079         4311.23727      18.9493  0.00494  58725.91713  2.91705  0.38647   226942.11609  45.63876  17.70749  58753.36601    50.66703       44.17014   16.43916  22.61457   30.0    0.48702  -20.66788  0.94145 
   -5.83335  0.05419  5.13547     14.71192  1.72668  0.61565    4.9186  0.11684     0.19229  11811.93166   6190.14498  0.91347         3036.20542     19.47606  0.01663  58724.57293  4.09365  0.26653   159350.00706  45.88254  17.76195  58751.31682    50.39691       43.79412   22.01124  31.85226   27.5    0.48383  -20.74749  0.96417 
   -6.32334  0.07008  7.93866     14.77023  2.01578  0.45721   2.56837  0.15184     0.15073  13409.41557    5124.6309  1.67488          2778.0409     17.01384    6e-05  58724.08294  2.75489  0.17998   339850.73666  45.24251  17.64729  58751.31682    50.60782       44.05933   14.69004  24.48341   31.0    0.52876   -20.7961  0.95395 
   -3.96475  0.06736  6.69897     14.46616  1.70908  1.07359    2.5496  0.14507     0.13764  11545.36008   6190.30531  4.93082         2721.71092     16.52702    2e-05  58726.44153  2.02729  0.17173   832278.29457  44.92932  17.74738   58752.1638     50.5906        44.0735   17.76366  25.18264   29.0    0.54377   -20.7837  0.95995 
   -5.90461  0.07347  6.78544     14.58616  1.72817  0.65477   2.41725  0.15747     0.32058  12711.76037   5528.73983  2.79419         2502.62828     18.55295  0.00198  58724.50167  2.33003   0.1776   496852.88013  45.14705  17.73798   58752.1638    50.55682        44.0132   18.25113  25.81901   30.5    0.55495  -20.76971  0.95819 
   -5.88349  0.01663  6.71057     14.57667  1.72188  0.66023   2.98328  0.12533     0.09332  11777.22889   5726.62662  1.44855         2926.35358     16.46363    2e-05  58724.52279  2.46835  0.04962   505814.13296  45.14734   17.7995  58751.31682    50.56535       44.02378   15.80279   25.1113   30.0    0.54845  -20.71494  0.98815 
   -6.07544  0.01129    6.018     14.42377  1.78246  1.27751   4.37084  0.09006     0.09386  11268.20903   7890.52031  0.73177         2754.43461     16.16139    1e-05  58724.33084  3.31056  0.04933   851537.83789  45.03076  17.69142  58751.31682    50.74719       44.31665   11.42806  19.62999   27.0    0.53479  -20.70674  0.99101 
   -4.04242  0.27628  6.60342     14.64166  1.88178  1.27513   2.74099  0.20863     0.20292  12539.69502   6820.15528  2.33222         3373.87936     16.67459    3e-05  58726.36386  2.57104  0.75729     396831.708  45.30527  17.74599   58752.1638    50.57725       44.02222    19.2127  24.48341   28.0    0.50333  -20.75995  0.86705 
   -5.83949   0.0542  7.57462     14.51916  1.65852  0.76973   3.94449  0.11778      0.0833  11698.04957   6230.96962  3.09963         3663.24985     16.11981    1e-05  58724.56679  3.21992  0.21377    808987.0162   44.8219  17.81249  58753.36601    50.51247       43.93892   19.58673  27.46954   30.0    0.52684  -20.76115  0.93475 
   -6.19097   0.0524  5.39309     14.57601  1.61725  0.75738    3.7018   0.1486     0.13779  11362.64195   7429.70304  1.32664         2723.55442     16.22707    1e-05  58724.21531  2.85101  0.19398   307786.34065   45.5257  17.73512   58752.1638    50.65638       44.16546   14.83046  23.14501   27.0    0.48728  -20.66159  0.96805 
   -5.85049  0.07096  7.48122     14.44549  1.87519  1.26451   2.28182  0.19889     0.44025   14182.3932   5990.77444  4.03657         2203.60953     18.12063  0.00073  58724.55579  2.73784  0.16192  1252628.97288  44.69612  17.76105  58754.89027    50.65302       44.14793   12.40521  24.27652   29.5    0.56241  -20.76288  0.95893 
   -6.94765   0.0334  6.70373     14.51666  1.81113  0.86079   3.46903  0.13552     0.20409   12951.0061   7898.54128  1.21807         2155.89085     18.20755   0.0009  58723.45863   3.4709  0.11585    699969.7346  45.02908  17.72973  58751.31682    50.51815       43.91584   19.69908  27.83721   26.5    0.52511  -20.72536  0.97477 
   -5.75577  0.02791  6.20506     14.23885   1.3545  1.00087   1.86549  0.13786     0.27078   9547.82163   4220.97638   2.1118         3485.31919     17.64234  0.00024  58724.65051  1.01444  0.05207   1612102.9181  44.60774  17.75464  58753.36601    50.65656       44.12392   17.76366   23.4698   35.0    0.50274  -20.68045  0.98473 
   -6.29865  0.03186  6.37153     14.46576  1.66613  0.76765    1.8634  0.14775     0.13805  12595.75846   6379.34672  0.37233         2939.72137     17.79189  0.00034  58724.10763  1.76352  0.05937   735331.09756  45.01558  17.75406  58751.31682    50.56912       44.02544   14.94471  24.35391   31.0    0.57913  -20.74176  0.98658 
   -4.13867  0.18701  4.73078     14.73322   1.7418  0.70312   4.13414  0.12176     0.08232  12127.70439   5290.34234  2.25623         2055.83806     17.48345  0.00017  58726.26761  3.62718  0.77314   123663.99385  46.06774  17.73598  58751.31682    50.48431       43.92224   17.13839  26.46564   28.0    0.52036  -20.73387  0.91781 
   -4.81826  0.07703  4.80814     14.45554  1.37233  0.87084   8.59987  0.03464     0.04785   8925.63869   4177.51041  1.44221         3378.01874     17.56144   0.0002  58725.58802  4.08693  0.66242   361523.63119  45.48421   17.9023  58753.36601    50.65424       44.13044   16.43916  24.16185   32.5     0.5303  -20.67803  0.89729 
   -5.17797  0.03822  7.56688     14.47212  1.83704  0.97176    3.3961  0.10172      0.1114  13052.01257   6173.68614  4.10796         2373.12772     19.01419  0.00574  58725.22831  3.45114  0.12979  1110531.35272   44.7296  17.79693   58752.1638    50.56204       44.02105   17.01902  25.96938   31.0    0.54724  -20.73891  0.96498 
   -5.50528  0.01495  8.48799     14.63299  1.97585  0.85973    6.5721   0.0621     0.07467   8718.00206   6371.68057  4.89643         3719.00138     18.44908  0.00156    58724.901  2.97965  0.09825   716472.21257  44.85179  17.76303  58751.31682    50.50339       43.91748   17.66769  27.79429   30.5    0.47658  -20.71029  0.97002 
   -5.74773  0.01899  4.45805      14.8989   2.0038  0.45465   2.96565   0.1474     0.13649  10849.38908   6584.90639   0.1724         4133.74799     20.02473  0.05881  58724.65855  2.08237  0.05632    58904.91029  46.50226  17.77705   58752.1638    50.56484       44.03881   18.25113  24.27352   26.0    0.56469    -20.809  0.99532 
   -4.50344  0.08856  5.62684     14.51302  1.72218  1.31123   3.70456  0.14102     0.11043  11360.86161   6737.57086  1.87537         3365.53546     16.18951    1e-05  58725.90284  2.85224  0.32806   476849.09944  45.32601  17.68638  58753.36601     50.7822       44.35096    12.2417  19.58673   27.0    0.52287  -20.77986  0.94771 
   -5.07955  0.07685  4.16753     14.61998  1.46463  0.61859   4.66702   0.0924     0.06187   9658.35489   5600.08384  0.73037         3775.52601     16.56584    2e-05  58725.32673  2.59701  0.35865   135934.93412  46.06148  17.71432  58753.36601    50.67974       44.19204   12.38212  23.14501   29.0    0.50949  -20.69808  0.95969 
   -5.31679  0.02468  6.17756     14.59973  1.65725  0.58221   3.00227  0.11422     0.09335  13072.15985   7515.23056  2.59302          2150.5737      19.8659   0.0408  58725.08949  3.06035   0.0741   371007.55403  45.33722  17.74071   58752.1638     50.4499       43.84582   22.76963  31.09387   27.0    0.57541  -20.79592   0.9842 
   -3.52052  0.08305  4.73609     14.58046  1.56781  0.81806   6.57299   0.0494     0.06325   8150.38485   3516.42589  1.70612         3379.72104     16.94665    5e-05  58726.88576  2.60463  0.54587   225439.92142  45.76027  17.70428  58753.36601    50.70465       44.23095   14.83046  23.14501   31.5    0.47446  -20.67504  0.93054 
   -4.11999  0.05557  6.36706     14.49205  2.00795  1.46043     5.876  0.06846     0.30864   9892.27242   6490.04956  3.96021         3409.00852     20.88332  0.42467  58726.28629  3.43006  0.32653   784061.40019  45.06937  17.74588  58750.25534    50.57447       44.07472   16.76436  23.46262   30.0    0.48403  -21.09794  0.94684 
    -5.4298  0.01443  6.28037     14.69271  1.74728  0.50976   4.39317  0.07885      0.1124  11417.49344   6730.95639  2.40201         2165.95079     18.63779  0.00241  58724.97648  3.41622  0.06339   263466.77588  45.49451   17.7874  58750.25534    50.51397       43.95182   18.25113  28.26735   30.5    0.51196  -20.69482  0.98707 
   -5.39844  0.18058  6.43822     14.66313  1.87798  0.90251   4.66558  0.08911     0.06245  11125.85796   6621.55654  1.02061          3503.4956     19.17603  0.00833  58725.00784  3.44508  0.84252    341017.0099  45.39223  17.82273  58753.36601    50.64682       44.16248   16.43916  21.57404   30.5    0.54003  -20.72728  0.85975 
   -6.59059  0.11507   7.7791     14.44626  1.78652  0.99869   2.86973  0.13936     0.16305  13164.83068   5069.18243  1.89872         2978.65277     18.36309  0.00128  58723.81569  2.96687  0.33022  1285789.54905  44.62982  17.76875  58751.31682    50.50968       43.93734    19.2127  26.46564   31.0    0.53473  -20.73554  0.90752 
   -4.78082  0.30063  4.71704      14.7367  1.96025  0.94697   2.41927  0.22341     0.16417  12912.30812   6654.23947  0.68744         2323.67295     17.99895  0.00055  58725.62546  2.40613  0.72731   136164.09667  46.07976  17.72237  58753.36601    50.77527       44.32513    13.8764  20.40038   25.5    0.57969  -20.76049  0.93503 
   -6.26087  0.01622   6.8616     14.54345  1.55926  0.60439   3.14337  0.16356     0.23218  14210.52807   7961.12943  2.77051         2922.97977     16.44617    2e-05  58724.14541  3.78655  0.05099   558059.72383  45.04223  17.73776  58751.31682    50.58537       44.08638   14.69004  22.77057   26.5    0.52562  -20.75436  0.98523 
    -6.4262  0.01602  6.76637     14.30066  1.63379  1.12605   1.70458  0.18516     0.11905  13116.62102   6532.17068  1.22451         3104.40851     19.54858  0.01965  58723.98008   1.7494  0.02731  1739446.13358  44.58092  17.84793  58751.31682    50.60225       44.04608   15.80279  23.49583   30.0    0.54794  -20.80169  0.99275 
   -5.75137  0.05348  5.50228     14.51332  1.62417  0.81236   3.77103  0.11985     0.12213  12692.79324   7240.70064  1.49759         2017.31353     16.76239    3e-05  58724.65491  3.62411  0.20169    429437.4797  45.36549  17.72159  58753.36601    50.63548        44.1423   13.99081   22.7343   26.5    0.55121  -20.76721  0.96565 
   -3.57594  0.24056  6.45543     14.72885  2.00308  1.22381   2.78034  0.25815      0.2238  13235.21801   8550.62906  3.07581         3522.35158     16.13035    1e-05  58726.83034  2.90527  0.66885   270183.38963  45.51903  17.74299  58753.36601    50.63059       44.09898   16.76436  24.60857   26.0    0.50331  -20.78227  0.89507 
   -6.10801  0.03043  5.95247     14.51438  1.62243  0.69187   2.12515  0.14189     0.15283  13579.16812   6401.75759  0.04485         2425.43752     18.22799  0.00094  58724.29827  2.33756  0.06467   499584.82489  45.23101  17.81697  58753.36601    50.59672       44.03729   18.46289  26.22404   29.0    0.63508  -20.78667  0.98675 
    -5.0334  0.14381  8.38968     14.50637   1.7716  0.94622    2.5331  0.17427     0.36698  11517.09054   4836.69055  3.99893         3480.81739     16.76477    3e-05  58725.37288  2.00431  0.36429  1124426.04108  44.61879  17.85238  58754.89027    50.54957       43.97663    19.2127  26.55151   30.5     0.5146  -20.71487  0.88317 
   -6.86359  0.22934  7.52273     14.48218  1.88534  0.94692   1.19633  0.29428     0.30818  10574.75271      3733.17  3.35611         2814.17483     19.92238  0.04646  58723.54269  0.79803  0.27437  1075466.51989  44.75989  17.76622  58751.31682    50.50976       43.93041   19.58673  26.46564   34.5    0.46049  -20.71794  0.93201 
   -7.44343  0.03936   7.3518     14.56624  1.71863   0.7028   2.72526  0.22372      0.3417  12109.02117    5538.5847  2.41866         3728.48764     17.70944  0.00028  58722.96285  2.38371  0.10728   635784.50331  44.96793  17.68637  58751.31682    50.60424       44.08271   14.94471  23.20795   30.0    0.45822  -20.72181   0.9697 
    -5.2646  0.04832  6.44794     14.45714   1.8193  1.54767   3.48143   0.1391      0.1756  12659.96342   6320.59784  3.30162          2299.9331      19.0594  0.00637  58725.14168  3.32851  0.16823   855616.15342  44.97763  17.78483  58753.36601    50.63143       44.10637   17.13839  24.48341   28.0    0.52054  -20.74535  0.96674 
   -5.49608  0.04238  4.97298      14.5245  1.65443  0.99256   5.18698  0.09627     0.27643  11144.47118   6531.02425  0.94763         3501.39457     16.99608    6e-05   58724.9102  3.84291  0.21984   339390.20897  45.56356  17.72568   58752.1638    50.61978       44.12008   16.06513   23.4698   27.0     0.5379  -20.77005  0.97027 
   -4.89696  0.10097  6.74746     14.56157  1.63969  0.81764   3.51392  0.13301     0.14638  11855.38634   5983.46452   2.3276         3293.86663     16.41422    1e-05  58725.50932  2.94612   0.3548   522069.17105   45.1076  17.82871  58751.31682     50.5052       43.93856   18.25113  28.80514   28.5    0.52669  -20.72522  0.91496 
   -4.92992  0.18363  4.39094     14.62224  1.72588   0.9102   3.92837  0.12812     0.08376  12336.88211   6322.76916  0.52902         2334.55541     19.34089  0.01218  58725.47636  3.56656  0.72136   175981.19001  45.97527  17.74011  58753.36601    50.65347       44.17005   13.99081  21.57404   27.0    0.54572  -20.77903  0.93207 
   -6.80914  0.01603  7.06726     14.24325  1.70007  1.51334   2.38551  0.15657     0.27872  13904.98161   5472.63612  1.79398         3249.64671     20.37928  0.13305  58723.59714  2.75137  0.03824  2572112.70339  44.39052  17.76758   58752.1638    50.48059         43.933   17.62477   25.9858   33.0    0.54344  -20.88271  0.98956 
   -4.98567  0.03334  4.67189     14.45364  1.44211  0.95909    4.3056   0.1179     0.29183   8752.98253   5956.00688    4.304         2741.62029     17.52068  0.00018  58725.42061  1.96776  0.14353   361838.29524  45.53034  17.71993   58752.1638    50.67387       44.16563   17.76366  21.57404   31.5    0.38994   -20.5925  0.97875 
   -6.00735  0.01545  7.30789     14.50751  1.78706  1.03835   5.06749  0.10501     0.15487  10290.71343   6238.31002  2.79188         3730.74067     17.92589  0.00047  58724.39893  3.20119   0.0783   856084.54756  44.86088  17.88113   58752.1638    50.49107       43.90212   20.91124  28.32359   30.0    0.44862  -20.69483  0.97925 
   -6.31771  0.06207  5.87903     14.61697  1.58955  0.53457   2.13856  0.15726     0.39199  11827.32041   5410.10443   2.1796         2073.64854     17.16929    8e-05  58724.08857  1.78452  0.13274   297683.90637  45.45775  17.74663  58753.36601    50.64447       44.15512   14.83046  23.18274   31.0    0.53423  -20.70501  0.97305 
   -6.24732  0.02841  5.28968      14.5668  1.66336  0.76597   3.54888   0.1417     0.27845  12697.79213   6825.27919  1.04048         2321.86497     16.04639    1e-05  58724.15896  3.41331  0.10081   317732.48148  45.54091  17.70645   58752.1638    50.66858       44.19926   13.99081  21.53631   26.0    0.54752  -20.77443  0.98442 
   -7.24606  0.07238   6.6059     14.26291   1.5109  1.19388   2.54883  0.15365     0.10328  12807.31368   5860.19171  2.70831          2009.4581      18.3048  0.00112  58723.16022  2.49393  0.18449  1824322.62774  44.54712  17.76752  58751.31682    50.61763       44.07805   17.13839  23.46262   32.0    0.49414  -20.65287  0.94981 
   -4.15878  0.42583  7.17887       14.589  1.83894  1.15922   2.71673  0.10398     0.29953  11292.51061   3480.97214  4.12368         2352.02411     19.83898  0.03835   58726.2475  2.06659  1.15687   584098.85855  45.05481  17.86029   58752.1638    50.54712       43.97721   19.58673  25.66581   35.5     0.5544   -20.7012  0.77637 
   -5.31964  0.04496  7.41551     14.68241  1.82915  0.73728   6.51589  0.05198        0.04   7697.86582   8615.16949  2.04517         4570.74911     16.46966    2e-05  58725.08664  2.30325  0.29295   403196.28156  45.18529  17.80446   58752.1638     50.5514       43.99889   18.25113   25.1113   29.0     0.4668  -20.72628  0.92709 
   -5.97139  0.03486  5.36135     14.50248  1.42062  0.63679   3.77931  0.14486     0.43015  12448.82218   8756.62623  3.41042         2244.61822     17.94381  0.00049  58724.43489  3.49379  0.13173   374870.17424  45.38889  17.78793  58754.89027     50.6076        44.0826   17.13839  25.38626   24.5    0.48715  -20.72167  0.97369 
   -7.17805  0.21462  6.68701     14.46707  1.75876  1.26338   2.54882  0.17945     0.10974  12218.29374   6847.84305  0.26519         3916.30066     16.42695    1e-05  58723.22823   2.2698  0.54703    849872.8213  44.93423  17.76644  58753.36601    50.67362       44.20084   14.83046  23.14501   29.5    0.54243   -20.6677  0.88756 
   -5.67962  0.02811   5.4288     14.29839  1.32982  0.99624    2.9317  0.15043     0.23927  11568.61872   7025.68067  3.56042         2459.31091     18.70223   0.0028  58724.72666  2.34051  0.08242   920959.23938  44.95899  17.77425  58753.36601    50.56825       44.00715   15.80279  27.80124   29.0     0.4853  -20.68121  0.98119 
   -5.29148  0.17855  6.37601     14.74382  1.78272  0.62423   5.09241  0.06862     0.03172  10729.79511   6622.76723  1.47214         2948.86579     17.04261    6e-05   58725.1148   3.4973  0.90923    218952.6937  45.57048  17.79646   58752.1638    50.46927       43.88464   20.11603  28.85078   31.0     0.5082  -20.69514  0.84252 
   -1.23624  0.45473  1.95532     14.90105  1.70199  1.06396   5.02004  0.16367     0.02943  16219.68121   6490.34459  4.86549         2292.90085      19.5157  0.01821  58729.17004  7.87805  2.28275     9530.45528  47.93825  17.70187  58753.36601    50.61511        44.1014    17.8771  23.49583   25.0    0.53044  -20.82452  0.98613 
   -3.13201   0.2755  5.47453     14.87886  1.88253  0.67942   3.68405   0.1732     0.07419  12006.26686    5815.9055  3.63796         3065.33885     19.71695  0.02895  58727.27427  3.16788  1.01497    91521.44141  46.10537  17.78576  58753.36601    50.62249       44.11439   17.01902  23.20795   30.0    0.44764  -20.75547  0.87776 
    -5.2972  0.02374  5.36024     14.41311  1.77745  1.46501    8.6046  0.04259     0.06367    9580.3029   6133.69699   1.6334         3420.51655     20.58462  0.21347  58725.10908  4.71103   0.2043    707558.1077  45.21051   17.7672  58753.36601    50.72244       44.25968   14.83046  21.89465   31.0     0.5019  -20.90135  0.97102 
   -5.42862  0.00438   5.6978      14.4066  1.74171  1.41194   2.31429  0.13985     0.18161  11405.08437   6831.25126  0.82726         2772.06511     16.79893    3e-05  58724.97766  1.79574  0.01014   807246.67141   45.0914  17.72094  58751.31682    50.65168       44.18439   16.06513  20.28596   28.5    0.57703  -20.75325  0.99828 
   -5.90067  0.00443  4.61045     14.38291  1.57469  1.05457   3.48039   0.0898     0.08206  10013.52667   8407.13499  0.91787         2176.07211     16.83819    4e-05  58724.50561  2.08175  0.01541   532936.37887  45.41188   17.7696  58751.31682    50.69416        44.1694   17.01902  24.22874   27.0    0.50809  -20.69772  0.99801 
   -4.80333  0.03714  7.33425     14.66261  2.12097  0.86837   3.01136  0.11785      0.4696  11288.96513   5425.76913  1.16363         3626.62245     19.24246  0.00971  58725.60295  2.28927  0.11183     500994.676  45.16484  17.76325  58753.36601    50.61659       44.07094   17.39305   25.1316   28.0    0.57077  -20.79996  0.97701 
    -5.6623  0.01827  5.77152     14.45456  1.81984  1.23261   3.42658  0.11914     0.31554  12720.29967   7741.31743  0.06742         2841.09601     16.10018    1e-05  58724.74398  3.30737  0.06259   693902.08465    45.165  17.71058   58752.1638    50.57379       44.02006   18.25113  27.00141   25.0    0.59695  -20.78826  0.98986 
   -5.91821  0.01982  8.57611     14.59459  1.70061  0.48738    2.9988  0.11607      0.0596   11385.9722   6754.49271  4.18063          3938.6839     16.27683    1e-05  58724.48807  2.31908  0.05943   751307.04656  44.75705  17.69278  58751.31682    50.54414       44.02722   17.13839  22.93792   31.5    0.53518  -20.74556  0.97627 
   -3.24374  0.09486  4.17099     14.50073  1.41003  1.37701  10.86746  0.03138     0.02806   8208.56672   3781.84117  1.49316          4637.4769     18.55768  0.00201  58727.16254  4.36807  1.03083    227019.7581  45.82153  17.72568  58751.31682    50.59037        44.0482   17.39305  24.35391   30.0    0.50372  -20.80161  0.88806 
   -7.86408  0.19957  7.14193     14.53438  1.86155  0.78179   2.08603  0.18878     0.09325  13385.98884   6044.00122  0.12663         2800.14222     19.15545  0.00795   58722.5422  2.22971  0.41632   752597.23899  44.95453   17.7768   58752.1638    50.55443       44.03385   18.25113  24.27352   29.0    0.55982  -20.76471  0.90779 
   -5.95935   0.1071  6.02437     14.35658  1.54821  1.44866   3.22412  0.16265      0.1322  13559.66244   6561.86354  1.63769         2682.32415       16.066    1e-05  58724.44693  3.53619   0.3453  1009952.79272  44.89455  17.78043  58753.36601    50.62345       44.11043   17.13839  23.57729   28.0    0.55383  -20.77152  0.92712 
   -4.65819  0.05325    7.017     14.63541  1.88186  0.82594    7.0251  0.04527     0.04467   8921.62499    5694.6388  2.74786          3114.6878      18.7059  0.00282  58725.74809  3.33555  0.37408   461189.51225  45.18725  17.73609  58751.31682    50.52882       43.95421   17.13839  25.66581   32.5    0.49594  -20.66245  0.92069 
   -4.08051  0.43632  3.93661     14.62897   1.5972  0.84426   3.16055  0.09941     0.04789  11318.05555   6664.80147  0.56444         3374.44416     20.06814  0.06499  58726.32577  2.41509  1.37901   126904.94522  46.17848  17.74049  58751.31682     50.4616       43.87245   20.11603  28.85078   29.0    0.62254   -20.8343  0.88912 
   -5.13149     0.03  7.31307     14.51081   1.9315   1.0135   3.46965  0.11112     0.17933  11362.97022   4857.58815  4.82394         2523.12414      16.3051    1e-05  58725.27479  2.67237  0.10409   912614.36438  44.86625  17.83301  58753.36601    50.57277       44.02313   18.25113  25.81901   31.5    0.50943  -20.73875  0.97547 
   -5.90413  0.03118  6.83181     14.65041  2.04579   0.9882   2.43448  0.28523     0.31253  12511.48125   5945.48877  3.77968         2710.71383     19.15256  0.00789  58724.50215  2.27327   0.0759   443538.86204   45.2637  17.75175   58752.1638    50.56229       44.00279   18.25113  25.81901   28.5     0.4692  -20.70373  0.98563 
   -6.12813   0.0355  5.00521     14.39965  1.60765   1.3497   2.99015  0.14379     0.38239  12424.02308   6345.13683  0.30177         2364.80854     16.40438    1e-05  58724.27815  2.75324  0.10615   593689.94043  45.30263  17.78182  58753.36601    50.59268       44.03739   18.25113  25.22999   26.5    0.58596   -20.7547  0.98455 
   -2.47165  0.27405  3.17795     14.70738  1.63875  0.91495   4.15828  0.13496     0.05158  12046.17621   7067.12718  3.43027         2029.86125     17.34125  0.00012  58727.93463  3.59947  1.13959    59136.67623  46.70721  17.79117  58750.25534    50.55225       43.97992   18.25113  27.00141   27.5    0.51206  -20.71479  0.94385 
   -5.19367  0.02272  6.71692     14.58997  1.91661  1.18599  11.42465  0.03581     0.06624   7381.04932    6684.9493  2.46533         4568.77891     20.30609  0.11241  58725.21261  3.71284  0.25958   530576.24784  45.17229  17.74826  58751.31682     50.6164       44.13999   16.43916  21.53631   30.0    0.42273  -20.83663  0.94956 
   -7.64643  0.03569  6.74111     14.59648  2.07977  0.91546   3.27832   0.1279     0.36986  12285.75395   8330.76597  0.16675         2404.90135     18.09827   0.0007  58722.75985  2.95177  0.11701   562779.58086  45.17906  17.75599  58753.36601    50.64511        44.1349   13.99081  24.16185   25.0    0.53343  -20.73293  0.97903 
   -4.56027  0.17844  6.31731     14.85371   1.9378  0.66062   4.77019  0.09445     0.07348  11103.40838   6733.84452  1.33956         3667.38498     17.27395   0.0001  58725.84601  3.50813  0.85121   140855.25124  45.80632  17.77512  58751.31682    50.64435       44.12566   13.99081   22.7343   29.0    0.54347  -20.72666  0.86906 
     -3.994  0.20186  6.82657     14.55151  1.73706  1.26348   2.44151  0.19896     0.15167   11088.2162   6246.94409  2.64154         3662.67428     17.01441    6e-05  58726.41228  1.79065  0.49283   592948.36701  45.06724   17.7752  58751.31682    50.60327       44.05874   14.94471  24.22874   28.0    0.53436   -20.7473  0.89225 
   -5.09876  0.06378  6.00044     14.55933  2.04938  1.09766   2.80424  0.10716     0.08753  11702.42487   7108.47577  0.23166         2127.59681     18.74139  0.00306  58725.30752  2.29083  0.17885   521358.38692  45.30697  17.76408  58751.31682    50.54745        44.0198    17.8771   25.1113   27.5    0.59657  -20.75366  0.97424 
   -5.86725  0.02247  6.36076     14.51635  1.63314  0.78599   6.01132  0.06032       0.061    9687.8085   8158.37509  1.45729         3802.17633     16.95922    5e-05  58724.53903  3.36549  0.13507   569049.20465   45.1197  17.71533   58752.1638     50.6209       44.10164   17.13839  23.46262   28.0     0.5105  -20.71169  0.96929 
   -4.52803  0.08605  6.07236     14.53139  1.89803  1.42996   2.92824  0.17453     0.46153  12985.76547   6341.14987  2.84207         2221.20342     16.86459    4e-05  58725.87825  2.94556  0.25197   562411.91219  45.23038  17.71385  58754.89027    50.67659       44.19378   14.83046  24.22327   27.0    0.55755  -20.76939  0.95902 
   -5.51214  0.02024  5.36732     14.50463  1.64591  0.83752   5.44091   0.0592     0.05978  10805.18397   7448.25812  0.61634         3043.34628     17.44417  0.00015  58724.89414  3.78934  0.11012   430997.59398  45.39126   17.7988   58752.1638    50.50325       43.93706   19.58673  27.46954   28.0     0.5611  -20.71556  0.98221 
   -4.63756  0.16576  4.46199     14.68735  1.78429  0.85804   4.60319  0.10738     0.08338  11789.73178   6821.94153  1.01539         3037.56054     20.03204  0.05981  58725.76872  3.81675  0.76303    139200.1083  46.07762  17.81443   58752.1638    50.51363       43.94777   19.58673  26.55151   27.5    0.54172  -20.80839  0.92986 
   -6.04472  0.01468  5.18027     14.38031  1.62222  1.36057    3.6671  0.12582     0.35533  12300.61935   6521.52358  0.89743         2352.44163      16.4819    2e-05  58724.36156  3.30982  0.05383   701480.60953  45.20423  17.75921   58752.1638    50.57186       44.02998   13.99081  26.92327   27.5    0.55289  -20.77904  0.99165 
   -5.60166  0.05412  5.34226     14.55001  1.55194  0.72056   4.83078  0.10334     0.08519   11785.3122   6485.84348  1.73985         2650.93838     16.15295    1e-05  58724.80462  4.00246  0.26144    326685.4422  45.49014  17.69827  58753.36601    50.70381       44.22819   14.45643  21.89465   29.0    0.50534   -20.7403  0.95557 
   -6.67552  0.06604  5.65633     14.37347   1.4003   0.9671   3.18216  0.17157     0.19443   12565.5535   7092.84015  1.78264         3180.34065     17.02918    6e-05  58723.73076  2.99718  0.21015   745023.93359  45.03783   17.7602   58752.1638    50.54122       43.93425   19.69908  26.98316   28.0    0.52818  -20.74169  0.95326 
   -5.47807  0.07911  5.60772     14.72296  1.76254   0.5431   3.95688   0.0938     0.24293  11176.29427   5124.75556  0.40911         2672.02875     18.28358  0.00107  58724.92821  2.94833  0.31303   184337.54873   45.7518  17.79581   58752.1638    50.50554       43.90293   17.66769  28.85078   30.0    0.53129   -20.6938  0.95177 
   -5.57153  0.04703  6.59023     14.55596  1.68749  0.60386    2.3189  0.13155     0.10775  13303.80406   5744.91189   0.2423         3441.28266     17.66367  0.00026  58724.83475  2.44828  0.10907   525934.43335  45.13735  17.76767  58753.36601    50.44163       43.85923   22.03507   29.4044   30.0    0.58686  -20.77614  0.97441 
   -5.41584  0.01404  6.85411     14.66817  1.76263  0.64647   9.78545  0.01708     0.15684   4536.12231   6462.70452  1.91019         5165.16899     17.90002  0.00044  58724.99044   1.2011  0.13734   354442.83415  45.29356  17.78587   58752.1638    50.53488       43.97648   17.13839  25.66581   31.5    0.46459   -20.7279  0.96774 
   -4.44714  0.01971  6.06944     14.52801  1.94377  1.35206   3.59843  0.11478     0.11944  11696.01106   6842.97443   1.3992          2625.7218     16.44682    2e-05  58725.95914  2.93641  0.07092   584426.13981  45.22446  17.74614  58751.31682    50.44773       43.81311   21.63721  29.40392   26.5    0.56312  -20.74661  0.98853 
    -5.4728  0.01708  7.20016     14.52611  1.83481  1.01929    6.4297  0.06481     0.04635   9149.41424   6148.90386  3.25017         3278.63372     18.66669  0.00258  58724.93348  3.21073  0.10979   783186.49379  44.92389  17.77121  58753.36601    50.70612       44.19978   13.99081  22.61457   31.5    0.46418   -20.6435  0.97303 
   -5.36447  0.07331  6.79034     14.62043  1.68062  0.61678   3.21461  0.15018     0.16346  13200.27331   5838.96503  4.49674         2499.23122     17.86949  0.00041  58725.04181  3.34135  0.23567   413252.38902  45.21432  17.74814   58752.1638    50.56528        44.0006   17.13839  24.48341   29.0    0.51741  -20.75639  0.94304 
    -5.9791  0.03457  6.45169     14.58354  1.95897  0.99662   2.75912  0.16666     0.34773   13467.5141   7541.21668  2.22381         2083.49323     17.77081  0.00033  58724.42718  2.98519  0.09539   515367.05866  45.22941  17.74816   58752.1638    50.66813       44.19747   16.06513  20.28596   25.0    0.57993  -20.79296  0.98284 
   -5.71029  0.02603  6.04254     14.44027  1.56523  0.80587   2.40085  0.13655     0.14167  11851.68671   6150.82092    2.079         2506.74042     16.16343    1e-05  58724.69599  2.01165   0.0625   698714.18422  45.05669  17.73064  58753.36601    50.69497       44.20576   16.06513  21.57404   31.0    0.54689  -20.74236  0.98608 
   -6.40902  0.02415  5.22479     14.44621  1.49543  0.80445   2.92798  0.17614     0.35112  12743.85874   5885.85211  1.11482         2204.92094     17.96467  0.00051  58723.99726  2.83659  0.07071    485613.3376  45.32118  17.69465  58753.36601    50.69435       44.20957   14.45643  21.89465   28.0     0.5364  -20.75943  0.98742 
   -6.21827   0.0384  6.06952     14.45994  1.68463  0.98265   4.02258  0.11553     0.08329   12186.7937   6468.92992  1.01474         2669.61785     17.36454  0.00013  58724.18801  3.56378  0.15445    693032.1913  45.08829  17.75122  58753.36601    50.66466       44.16984   16.43916  22.61457   28.5    0.51096  -20.72518  0.96951 
   -5.61424  0.07131  4.46146     14.54647  1.69356  1.09534    5.9577  0.07321     0.08497   9393.26431   7373.47395  2.39267         2146.55683     17.77064  0.00033  58724.79204  3.13573  0.42485   252715.91036  45.79606  17.72007   58752.1638    50.64419       44.14618   13.99081   22.7343   28.5    0.43347  -20.56817  0.95628 
   -5.10953  0.25896  5.55744     14.52352   1.5887  1.16728   3.38206  0.15294     0.07709  12202.78107   7746.75336  1.49825         2904.08404     17.39567  0.00014  58725.29675  3.00418  0.87582   408860.57899  45.36856  17.75787  58753.36601    50.63103       44.12609   17.13839  23.46262   27.5    0.51992  -20.69964   0.8606 
   -5.08404  0.03921  7.65815     14.37085  1.69717  1.12158    2.5483  0.14131     0.18151  11478.73586   5934.72687  4.81354         3051.86111     16.65336    3e-05  58725.32224  2.00293  0.09992  1675270.96932  44.50624  17.76608  58751.31682    50.44271       43.83294   21.63721  29.40392   32.0    0.51829  -20.72995  0.96869 
   -5.59517  0.03167  5.26849     14.39496   1.3309  0.76809   2.83349  0.13436     0.13516  10705.22865   5722.49299  1.18184          3451.0984      16.7254    3e-05  58724.81111  1.93705  0.08975   556424.65432  45.20421   17.7037   58752.1638    50.55595       44.02042   15.80279  25.81901   29.0    0.52516  -20.70474  0.98077 
   -6.95042   0.0699  9.04367     14.62953  2.09888  0.66017   2.43214  0.12813     0.08644  11637.58315   6829.91733  1.49982         3524.40099     19.35155  0.01248  58723.45586   1.9649  0.17001   877864.90387  44.73472  17.72289  58753.36601    50.67968       44.18387   13.99081  22.61457   33.5    0.50248  -20.68149  0.94696 
    -5.0655  0.00851  5.70174     14.43799  1.79749  1.41506   3.28664   0.1129     0.21196  11741.76397   6891.39785  1.37937         2140.20463     16.78136    3e-05  58725.34078    2.703  0.02796   721951.48127  45.15299   17.7584  58751.31682    50.59351       44.00234   18.25113  28.80514   27.5    0.56698  -20.74222  0.99547 
    -4.9715  0.05368   7.3074     14.40698   1.6715  1.19652   3.01312  0.13959     0.09991  12187.40293     8290.607  1.73032         3631.63008      17.2115    9e-05  58725.43478  2.66972  0.16174  1271991.72226  44.65994  17.87463  58753.36601    50.56278       43.98416   17.13839  27.46954   26.5    0.55809  -20.73251  0.95374 
   -7.08919  0.00694  4.67437     14.26106  1.30889  0.96547   3.14547  0.11954     0.27045  12347.70628   5547.46757  0.15428         2214.18178     16.52348    2e-05  58723.31709  2.86079  0.02183   798070.07085  45.14426  17.79962   58752.1638    50.47529        43.8626   22.01124  29.40392   29.0    0.55118  -20.76839  0.99616 
   -7.07901  0.00836  5.96577     14.35678  1.24774  0.61614   3.15543   0.1192      0.1005  10592.71118   5821.84453  1.53104         3635.53316     16.21224    1e-05  58723.32727  2.11203  0.02638   797453.20431  44.91193  17.77886  58751.31682    50.63322       44.11982   16.43916  22.61457   33.0    0.47522  -20.61365  0.99185 
   -5.78056  0.18935  5.77052     14.74903  2.04836  0.80025   2.79472  0.16181     0.12531  12290.11804   5948.60674  0.19351         3460.80254     16.84459    4e-05  58724.62572  2.51813  0.52918   201181.40082  45.75423     17.72  58753.36601    50.62827       44.11197   16.43916  24.16185   27.0    0.60445  -20.74462  0.93284 
   -4.45587  0.00469  3.99869     14.20845  1.17902  1.13829   3.80186  0.09046     0.17722  11194.82028   6518.74781  2.52254         2164.77554     17.94526  0.00049  58725.95041  2.84222  0.01785   670317.54439  45.31025  17.86092  58753.36601    50.53587       43.98199   19.57564  27.00141   28.5     0.5666  -20.76181  0.99733 
   -6.10688  0.06456  6.95573     14.50683  1.90337  1.11653   3.60147  0.10638     0.45822  12462.85037   7555.89382  2.06974         2257.37856      16.0586    1e-05   58724.2994  3.33689  0.23252   828617.05634  44.94533  17.80246  58749.43732     50.6523       44.11125   13.99081  21.57404   27.5    0.53588  -20.72498  0.95074 
   -5.99567  0.01863  6.92835     14.51737  1.77045  0.87778   3.77904   0.1047     0.18202  10256.56191   6664.86111  2.63947         2832.77609     16.14546    1e-05  58724.41061  2.37144   0.0704   728497.69347  44.97324  17.73213  58751.31682    50.48143       43.90461    19.2127  26.93175   31.5    0.46681  -20.62423  0.98292 
   -6.30208   0.0332  7.57773     14.60684  1.96201  0.83556   3.72237  0.10402     0.19112  11342.35428   6912.44528  0.93776         3707.21186     18.06287  0.00064   58724.1042  2.85663  0.12357   639606.73643  44.99656  17.78535  58753.36601    50.58714       44.01068   19.58673  25.66581   29.0     0.5272   -20.6872  0.96967 
   -5.73571  0.03563  5.14576     14.75426  1.91267  0.67835   4.99417  0.11828     0.08424  11494.03166   6282.70101  0.66835          3179.1253     19.53874  0.01921  58724.67057  3.93582  0.17795    145822.8613  45.96376  17.82978  58753.36601    50.56634       44.02452   18.46289  25.38626   27.0    0.48348  -20.72543  0.97914 
   -5.90871  0.06632  5.51805     14.54857  1.77206  0.85306   3.87997  0.09067      0.0707  11470.86694   5863.41985  0.26155         2614.75191     19.35326  0.01253  58724.49757  3.04543  0.25732   400610.00867  45.43103  17.81622   58752.1638    50.55884       44.00189   19.58673  24.48341   29.5      0.558  -20.72848  0.96152 
   -4.75593  0.04674  4.86305      14.6345   1.6447  0.77237    5.5377  0.09937     0.09562   9687.43222   7277.28158  1.34024         3854.16595     18.57614  0.00209  58725.65035  3.10009  0.25885   194409.83069   45.8224  17.77812  58751.31682    50.59984       44.09475   16.06513   23.4698   28.0    0.43445  -20.70631  0.96645 
   -6.34316  0.01556  8.13499     14.60304   1.9256  0.74666   4.58274  0.09381     0.05077  10342.35941   5840.36652  2.59695         3640.72577     17.34046  0.00012  58724.06312  2.92409  0.07129   736249.69231  44.86567  17.72515  58754.89027     50.5641       44.02054   13.35911  27.85949   31.0    0.47457   -20.6952  0.97898 
   -5.26719  0.08349  6.56771     14.51078  1.88972  1.02138   2.46653  0.17649     0.15859  13188.87184   5959.09069  1.98134         2085.51632     18.73025  0.00299  58725.13909  2.55935  0.20592   720240.92468  45.05294  17.76378   58752.1638    50.53837       43.96515   17.13839  27.46954   29.0    0.53646  -20.80167   0.9603 
    -5.2887  0.14498    5.146     14.53793  1.78218  1.37425   3.38815  0.15627     0.11401  13037.75484   6557.05884  1.52902         2147.47786     17.95431   0.0005  58725.11758  3.43554  0.49123   367992.15717  45.53102  17.76869  58751.31682    50.51243       43.95011   17.13839  25.66581   26.0    0.56608  -20.77144  0.93862 
   -5.18633  0.00965  6.12246      14.4997  1.82137  1.04788   5.28415  0.06962     0.12393  10974.47878   7001.64053  1.53738         2506.07417      16.0106    1e-05  58725.21995  3.79639  0.05099    634848.4057  45.15272  17.72415  58753.36601    50.74051       44.27686   14.83046  21.89465   28.5    0.53128  -20.69401   0.9907 
   -6.15552   0.0278  4.94753     14.50969  1.56938  0.82043    4.6272  0.10632     0.17559  11590.51995   6761.53224  0.69306         2516.65795     18.00315  0.00056  58724.25076  3.70809  0.12865   341140.56318  45.54286  17.71151   58752.1638    50.62417       44.09157   16.76436  24.48341   27.0    0.51255  -20.70747   0.9811 
   -5.92314  0.01815    5.774     14.20953  1.20635  0.97467   2.64426  0.13473     0.26673  10942.41154     5128.197  2.08505         3663.10152      16.1528    1e-05  58724.48314  1.88868  0.04799  1422962.67599  44.67417  17.78223   58752.1638    50.48772       43.85438   21.44054  31.32343   30.5    0.52826  -20.72265  0.98552 
   -4.20325  0.06158  3.95533     14.68663  1.93062  0.80076   4.66172  0.08053     0.05986  10754.18758   7041.44893  0.76489         2177.50375     19.67429  0.02624  58726.20303   3.2161  0.28706   118744.69423  46.28556  17.77265  58753.36601    50.64278       44.13308   13.99081  24.27652   26.5     0.5539  -20.80302  0.98058 
   -4.74825   0.1028  4.78978     14.64233  1.74153  0.81639   4.84339  0.09093     0.15317   12333.6467    6214.7851  1.00841         2161.02999     18.18748  0.00086  58725.65803  4.39501  0.49791   192630.80038  45.86442  17.73408  58751.31682    50.60129       44.12306   16.76436  22.03507   26.5    0.59724  -20.77164  0.94395 
   -6.29864  0.15164  7.82886     14.23783  1.56096  1.29764    3.3954  0.14382     0.05671  13652.65926   5270.62811  4.77254         3371.47002     18.78116  0.00336  58724.10764  3.77531  0.51489  2971327.67457  44.20189  17.77212   58752.1638     50.6452       44.12215   14.94471  24.22874   29.5    0.49464  -20.79135  0.83407 
   -5.59065  0.01595  3.88995     14.40136  1.37071   0.8669   4.55591  0.09194     0.14261  11453.82372   6299.86579  0.53006         2307.65562     17.74353  0.00031  58724.81563  3.56536  0.07265   303343.55719  45.74397   17.7833  58750.25534    50.67777       44.10539   17.13839  25.66581   26.5    0.57367  -20.77566  0.99185 
   -5.49573  0.01411  5.58677     14.12391  1.27445  1.51697   2.07583  0.14132     0.15793  13374.05431   5426.58057  3.50471         2108.02124      16.1453    1e-05  58724.91055  2.21485  0.02928  2087564.65929  44.56021  17.79163   58752.1638    50.61694       44.10558   17.01902  23.20795   31.0    0.55919  -20.74959  0.99233 
   -5.66451  0.11232  7.24822     14.50528  1.51927  0.53582   2.11676  0.14408      0.1431  13100.24315   4711.82508  2.83679         2880.74892     16.57799    2e-05  58724.74177  2.16699  0.23775   723373.08922  44.87066  17.76284   58752.1638    50.60087       44.06481   16.76436  24.48341   32.5    0.52704  -20.71736  0.92445 
   -6.38409  0.01548  4.59327     14.35224  1.34866  0.88971   4.05359  0.08908     0.08564  11011.41089   6812.36892  0.68006         2011.99586     17.66802  0.00026  58724.02219  2.93192  0.06273   521767.14669  45.35703  17.77295  58751.31682    50.53956       43.96438   18.25113  27.80124   28.5    0.53793   -20.6583  0.98991 
   -5.30875  0.04414   7.0964     14.50847  1.72393  0.99339   4.55835  0.08383     0.12207   9667.59346   5990.90627  2.19612         3770.99157     18.38671  0.00135  58725.09753  2.54139   0.2012   775288.90544  44.91382  17.73523  58753.36601    50.64738       44.15008   12.38212  24.22327   29.5    0.50456  -20.70816  0.94862 
   -6.54046  0.01349  4.45291     15.01187  2.04024  0.34067   2.63984  0.15449      0.1803  11117.38442   6758.47216  0.07624         4530.04134     20.20317  0.08869  58723.86582   1.9463  0.03561    35566.20812   46.7302  17.76561  58751.31682    50.50086        43.9245   19.58673  27.46954   26.0    0.56906  -20.82557  0.99712 
    -5.0858  0.06716  6.80423     14.37511  1.68836    1.207   2.20171  0.13951     0.19996  13221.01638   6122.24259  1.87955         2390.21309     17.32108  0.00012  58725.32048  2.29571  0.14787  1290076.56404  44.72014  17.71582  58750.25534    50.55601       44.04597   17.39305   25.1316   31.0     0.5974  -20.75473  0.96351 
    -4.7374  0.04184  6.92878     14.69561  1.96918  0.77681   8.32681  0.02979     0.17405   6865.43332   6492.02968   1.9511         3776.11064     19.87941  0.04209  58725.66888  2.34122   0.3484   356604.39138  45.32963  17.73013  58753.36601    50.62476       44.11646   17.13839  23.46262   32.5    0.47559  -20.63306  0.93199 
   -4.66364  0.07963  5.03524     14.61475  1.81229  0.95673    3.7271  0.11088     0.10585  10275.20217   7098.52794  0.68102          4087.3773      17.9273  0.00047  58725.74264  2.34736  0.29679   251522.32103  45.72246  17.72089  58751.31682    50.48925       43.90309   17.13839  27.46954   26.5    0.53515  -20.75012  0.96443 
   -5.11784  0.06468  5.14987     14.81421  1.82624  0.53158   3.88581  0.13948      0.3081  11677.34339   6549.86971  1.47241         2602.81751     18.08616  0.00068  58725.28844   3.1608  0.25134   105816.77673  46.08226  17.70857  58751.31682    50.63384       44.17821   14.83046  21.89465   27.5     0.5215  -20.74636  0.96867 
   -7.41048  0.01524  5.25631     14.54845  1.52973  0.67014   4.19478  0.13307     0.38104  12056.19128   6593.12448  0.34392         3096.61038     18.02818  0.00059   58722.9958  3.63711  0.06393   313971.47019  45.51521  17.78712   58752.1638    50.48564       43.85223    19.5629  29.40392   27.5    0.51323  -20.67406  0.98887 
   -5.31743  0.03482  6.38417     14.58047  1.97239  1.24499   4.20084  0.14231     0.31968  11337.93284   6494.23349  1.89627         2822.42012     17.86079   0.0004  58725.08885   3.2213  0.14628   515329.71324  45.24154  17.80717  58751.31682    50.58193       44.00205   18.25113  27.80124   28.0    0.45039  -20.64805  0.97476 
   -5.75704  0.01334  5.11907     14.42662  1.58497  1.02594   3.62299  0.12373     0.13324  11724.50604   7073.34098  1.34357         2179.60113     16.33197    1e-05  58724.64924  2.97087  0.04834   540733.67181   45.3175  17.75961   58752.1638    50.57599       44.04261    17.8771   25.1113   27.0    0.53941  -20.73199  0.99241 
   -7.47794  0.29072  6.74915     14.75501  1.78224  0.60395   4.23365  0.10186     0.20061   12726.9287   3593.64896  0.11393          2432.9322     18.05068  0.00062  58722.92834  4.09062  1.23079   232950.73146  45.49405  17.82181   58752.1638    50.65595        44.0694   17.76366  24.27652   33.5     0.5382  -20.67268  0.77885 
