 log(Bfield)      Mns    Pspin  cutoff_power  cutoff_wavelength  fnickel    kappa  kappagamma  mejecta  log(nhhost)  temperature  texplosion  thetaPB     vejecta      A_V        MJD_0   log(KE)      M_Ni  Peak_mag     Peak_MJD 
    14.23301  1.94877    5.005       0.88727         4357.06597  0.00569  0.29814     0.06929  0.43324      17.7322   5659.38621    -6.34728  1.31182  7015.78622   0.0003  56418.85272  51.79622   0.12132  18.97674  56444.24561 
    14.33784  1.74035   3.0923       0.28102         5215.57921  0.05651  0.09554     0.02175  2.49179     19.59406   4721.45648   -10.72407  0.91131  6772.59964  0.02182  56414.47593  52.10556   2.63381   19.0471  56447.61604 
    14.39213  2.03724  3.71081       0.52518         4531.71499  0.09316  0.09778     0.02084  2.95132     16.93333   4856.75566   -11.04358  1.40013  6493.36349    5e-05  56414.15642  52.09122   4.56969  19.08792  56447.61604 
    14.21983  1.76573  5.88453       3.01329         3400.45993   0.3863   0.1289     0.01996  2.05747     16.80698   5800.33252   -11.53707  1.07428  7219.02237    4e-05  56413.66293   52.1344  16.93293   19.1006  56447.61604 
    14.41903  1.79986  3.73455       0.76295         4322.14797  0.13159  0.08868     0.01976  3.40646     17.48025   5953.93396    -8.91505  1.01479  6573.51549  0.00017  56416.28495  52.11986    6.7278  19.09313  56447.61604 
     14.3697  2.00439  5.74252       1.67224         3711.62278  0.07589  0.08415     0.01157  2.72041     16.01935   5068.84925   -11.29779   0.7702  6561.12934    1e-05  56413.90221  52.08968   3.63304  19.08608  56447.61604 
    14.34977  1.64868  2.57212       0.11759         4760.86787  0.13315  0.05394     0.01121  5.57754     16.17718   5185.68431   -12.79056  0.88516    7370.911    1e-05  56412.40944  52.27601   7.75696  19.08811  56447.61604 
    14.21251   1.5844   3.4034       0.28645         4334.50635   0.0164  0.13737     0.04633  2.15335     16.03645   4635.75149    -8.76752  1.39129  7927.21138    1e-05  56416.43248  52.22216   0.72977  19.04739  56444.24561 
    14.37308   1.6077    3.793       0.49802         4262.48186  0.01408  0.06538     0.01591  3.99383     19.25787   5739.54925   -10.25415  0.66655  7291.85105  0.01006  56414.94585  52.22906   0.75234  19.10637  56447.61604 
    14.38463  1.88917  4.35399       1.12753         3981.45041  0.05101  0.07429     0.02413  4.26834     16.23109   4673.64441    -6.84469  1.53608  7146.31888    1e-05  56418.35531  52.21929    2.7743  19.07638  56447.61604 
    14.35585  1.77806  3.03053       0.43578         4604.60113  0.03631  0.05805     0.01675  5.23462     18.04475   3777.51875   -10.22267  1.19169  6801.26695  0.00062  56414.97733  52.19926   2.08179   19.0619  56447.61604 
    14.25618  1.59714  3.68407       0.61437          4194.0738  0.01891  0.07357     0.01619  2.21932     16.04051   4352.63504   -12.48544  0.70774  6999.50964    1e-05  56412.71456  52.11829   0.84969  19.06854  56444.24561 
     14.3636  1.85001  3.02278       0.42439         4800.21499  0.20974  0.07463     0.01335  3.71811     19.45883   4825.93868   -11.49294  1.19925  6518.87504  0.01598  56413.70706  52.12324  10.98878  19.02737  56444.24561 
    14.15915  1.48332  2.73329       0.28887         4613.14813  0.01515  0.16959     0.04102  1.56962      17.4156   4325.36676   -11.82255  1.31136    6957.685  0.00014  56413.37745  52.06175   0.60472  19.06398  56444.24561 
    14.21462  1.58947  2.67381       0.25712         4300.69266  0.37069  0.10688     0.01712  2.78791     18.58003   4921.91974   -13.99921  1.49506  6830.20654  0.00211  56411.20079  52.12779  17.87774  19.09997  56447.61604 
    14.35026   1.6828  4.70506       1.09619          4050.5298   0.0678  0.08774     0.01899  2.38928     16.87563   5555.76423    -8.30354  0.74034  7002.54792    4e-05  56416.89646  52.12886    3.1184  19.07631  56447.61604 
    14.22855  1.57092   3.2384       0.53381         4082.99518  0.02752  0.12459     0.03421  2.69501     18.65233   4385.79251   -11.75767  1.23054  7092.82918  0.00249  56413.44233  52.15613   1.31367  19.09085  56447.61604 
      14.352  1.64532  4.02583       0.83893         4035.14966  0.00126  0.14711     0.02082  1.47298     16.33214    6755.2696   -13.06422  0.60059  6268.86173    1e-05  56412.13578  51.96108   0.04907  19.10519  56447.61604 
    14.32587  1.82905   3.4992       0.53652         4674.60168  0.03541  0.09917     0.01997  2.69565     17.90413   4750.05859    -9.04503  1.44895  6263.78697  0.00045  56416.15497  52.04819   1.69037  19.14921  56447.61604 
    14.32024  1.96349  3.97266       0.25607         4479.16973  0.02539  0.09575     0.02817    2.912     16.54404   5305.23517    -9.84119  1.51257   7859.9381    2e-05  56415.35881   52.2554   1.24055  19.03286  56444.24561 
    14.51358  1.68669  4.09915       0.79231         3769.12582  0.05378  0.07151     0.02534  3.99801     16.18283   5151.66631    -7.10468  0.60639  7945.16454    1e-05  56418.09532  52.30371   2.87396  19.07168  56447.61604 
    14.24503  1.68923  3.35456       0.45058         4887.84885    0.096  0.08191     0.01553  3.51617     19.88875   4720.70583    -12.0098  1.30585  6433.83407    0.043   56413.1902  52.10508   4.95227  19.07319  56447.61604 
    14.08781  1.44588  3.56518       0.46708          4691.7234  0.10983   0.0862     0.02139  1.93035     16.87644   5809.47245    -8.30504  1.23664  7386.30037    4e-05  56416.89496  52.14506    4.7131  19.07217  56447.61604 
    14.33184  1.65987  4.85162       0.73059         3550.53536  0.00292   0.1334     0.04456   1.2996     18.60154   4774.18127    -5.93028  0.63169  9138.52158  0.00222  56419.26972   52.2678   0.10841  19.10394  56447.61604 
    14.11362  1.55227  3.16159       0.29151         4394.22995  0.33204  0.09776     0.01806  2.42037     19.24578   7389.14957   -13.61231  1.55747  7399.57456  0.00978  56411.58769  52.17853  15.33481  19.16035      56449.2 
    14.32036  1.57642  3.10706        0.5309          4145.5215  0.01443  0.11942     0.02763  2.76976     17.54107   3948.61339   -13.62967  0.84598  6736.49919  0.00019  56411.57033  52.11494   0.69439  19.12014  56447.61604 
    14.30032  1.83785  3.39303       0.27924         4735.65733  0.00126  0.10213     0.02249  2.68383     17.38248   4353.80196   -12.53298  1.15858  6994.77093  0.00013  56412.66702  52.14349   0.05999  19.13316  56447.61604 
    14.46609  1.68668  4.12098       0.53258         4331.61141  0.44368   0.0973     0.01262  2.40609     16.26069   6171.16432   -11.85546   0.5171  6824.61088    1e-05  56413.34454  52.10746  20.45256  19.09647  56447.61604 
    14.43553  1.81668   4.1725        1.2363         3696.27437  0.03079  0.12858     0.05883  2.93816     18.62205   4626.95314     -8.3174  0.98797  7399.73164  0.00233   56416.8826  52.20414   1.50831  19.11233  56447.61604 
    14.43116  1.85919  2.79753       0.25741         4624.27587   0.0331  0.06308     0.02416  5.22499     20.18463   4773.38996    -8.50014  0.97237   7540.1652  0.08499  56416.69986  52.28864   1.89702  19.09585  56447.61604 
    14.28162  1.81906  4.58538       0.74559         4255.01661  0.11369  0.13665     0.02714  2.01183     16.47236   4617.98863     -8.4086  1.41506  7086.68875    2e-05   56416.7914   52.1151   4.94647  19.07433  56444.24561 
     14.3987  1.89118   3.5613        0.1893         4627.14811  0.00399  0.05634     0.01092   6.0895     16.56935   6608.40785   -15.08034  0.84224  7115.23921    2e-05  56410.11966  52.25472   0.23741  19.08773  56447.61604 
    14.47392  1.87021  3.55246       0.50064           4148.159  0.00451  0.09537     0.02871  3.36889     16.97478    5223.4047    -9.65214  0.84196  6975.63408    5e-05  56415.54786  52.17007   0.22972  18.97732  56444.24561 
    14.42437  1.68079  3.36018       0.48849         4716.96626  0.13138  0.07511     0.01115  3.45504     16.55146   7377.49265   -12.99892  0.65001   6294.7865    2e-05  56412.20108  52.08396   6.74369  19.09669  56447.61604 
    14.16529  1.35386  3.53077       1.00876          3496.2522  0.00886  0.05095     0.01764  7.01535     18.87817    4404.3865    -9.64835   1.0949  7752.52986   0.0042  56415.55165  52.34391   0.54567  19.12242  56447.61604 
    14.32904  1.90335  3.53238       0.43751         4342.54198  0.01965  0.07821     0.01655  4.16605     18.04394   4544.37823   -12.50224  1.36203  6811.85496  0.00061  56412.69776  52.17485   1.06191  19.06828  56444.24561 
    14.21121  1.77113  3.33749       0.44711         4521.28551  0.07733  0.07243     0.01557  2.55312     20.40514   5935.57685    -8.86877  1.20286  6976.13451  0.14121  56416.33123  52.13454   3.63106  19.05413  56444.24561 
    14.45878  1.82135  2.08016       0.26649         5180.65757  0.29222  0.12152     0.03315  2.55718     18.85994   3902.17404    -8.10502  1.12568  6785.31962  0.00402  56417.09498  52.11067  13.72818  19.10982  56447.61604 
     14.0916  1.23734  2.22581       0.34301         4053.36993  0.00207  0.12886      0.0469  2.62428     16.28943   3484.73653   -11.65011   1.2857  7153.69518    1e-05  56413.54989  52.16004   0.09817   19.0563  56447.61604 
    14.57145  2.01706  4.58842       0.88047         3779.44588  0.05909  0.12152     0.02859  2.57723     16.51674   5579.31897    -11.4872  0.63803  7164.67843    2e-05   56413.7128  52.15896   2.78242  19.06181  56447.61604 
    14.29592  1.81767  4.94076       1.53104         3513.22518  0.00424  0.12933     0.01199   2.6988      18.4007   5388.14074    -16.9143  0.62518  7009.04245   0.0014   56408.2857  52.14599   0.20258  19.05817  56447.61604 
    14.48565  1.79668  3.39811       0.63572         4402.39909  0.11019  0.08193     0.01673  3.58659     16.87633   5821.27081   -10.04677  0.77445   6466.7765    4e-05  56415.15323  52.11193   5.71565  19.03963  56444.24561 
    14.27011  1.57891  4.17512       1.86708          3327.3736  0.00171  0.09996      0.0292  3.92926     18.08893   4295.05002   -12.62809  0.94218  7795.76356  0.00068  56412.57191  52.28518   0.09077  19.12897  56447.61604 
    14.32286  1.80257  2.35011       0.09482         4779.27511  0.03759   0.0644      0.0135  5.18919     19.30791   5404.21769   -16.10777  1.10897  6644.42081  0.01129  56409.09223  52.17803   2.15055  19.07464  56447.61604 
    14.31972  1.85725   4.1632       0.70585         3847.00361  0.01588   0.0979     0.02358  2.88792     19.25136   4865.56151    -8.98732  1.28514  7007.57663  0.00991  56416.21268  52.15463   0.77372  18.99743  56444.24561 
    14.18166  1.70652  4.41058       0.51446         3881.19345  0.00465  0.08292     0.03452   2.4253     18.02255   6549.97354    -7.31633  1.44223  9063.04874  0.00059  56417.88367  52.35494   0.21487  19.08523  56447.61604 
    14.24753  1.69773  3.64428       0.44489         3756.38578  0.06811  0.08315     0.01676  3.99595     19.05274   5628.41159   -12.44476  1.23343  7485.15157  0.00627  56412.75524  52.25185   3.63941  19.07788  56447.61604 
     14.1921  1.66447   3.6723       0.20315          5028.5633  0.21399  0.13609     0.03314   1.8508     18.83492   6269.12874    -9.80795  1.57045  7986.00254   0.0038  56415.39205  52.20666   9.05259  19.09319  56447.61604 
    14.39234  1.97482  2.31108       0.17393         4673.80563  0.03503  0.10231     0.02705  3.20466     20.23269   4613.32996   -12.90848  1.12738  6840.33513  0.09493  56412.29152  52.14685   1.76014  19.09954  56447.61604 
    14.20421  1.65011  4.39044       0.79062         4114.31924  0.00175  0.13459     0.04168  1.52401      17.7488   6338.30875    -6.49124  1.31899  7651.17121  0.00031  56418.70876  52.13961   0.06905  19.11871  56447.61604 
    14.50847  1.81633  2.46056       0.07615         4875.44592  0.01023  0.06568     0.02248  5.01807     19.10521   6655.70383   -11.06386  0.72608  7401.67313  0.00708  56414.13614  52.26808   0.58037  19.07213  56447.61604 
    14.11346  1.49994  3.41435       0.52438         4590.11376  0.00118  0.21395      0.0483   1.0478     18.27677   5114.22346   -11.20432   1.3775  6879.14039  0.00105  56413.99568  51.98314   0.04024  19.03849  56447.61604 
    14.31278  1.59745  2.99967       0.38846         4886.43125  0.00719  0.05986     0.01269  4.15996     17.91152   5317.20518   -11.37069  0.84212  6573.34389  0.00045  56413.82931  52.14372   0.38852  19.06988  56447.61604 
    14.39725  1.82753   3.6935       0.63151         4451.90356  0.00785  0.11534     0.02862  2.42927     16.50775   6123.13172    -9.77097  0.96514  6518.38975    2e-05  56415.42903  52.06889   0.36277  19.08619  56447.61604 
    14.36733  1.94795  3.02811       0.47106         4540.19437  0.00181   0.0805     0.02796  4.05496     20.23574   5089.70205   -10.17885  1.33639  7022.53437   0.0956  56415.02115  52.19815   0.09731  19.12653  56447.61604 
    14.19034  1.66611  5.05202       2.02013         3637.86393   0.0017  0.08854     0.01744  2.77939     17.05862   5622.61246   -11.44338  0.97047  7365.49847    6e-05  56413.75662  52.19293   0.08175  19.10096  56447.61604 
     14.2831  1.61835  3.26143       0.40869         4494.86854  0.01596  0.12679     0.03664  2.45207     17.47292   3491.18143    -9.66959  1.12131  7111.92126  0.00017  56415.53041  52.14585   0.74001  19.10733  56444.24561 
    14.28926  1.83118  4.29865       0.27671         4884.09742  0.12476  0.07228     0.01102  2.57442     16.92762   4388.02439    -11.0751  0.73015  7431.03459    5e-05   56414.1249  52.19052   5.87338  19.11095  56444.24561 
    14.34258  1.86511  4.91761       2.08932         3314.33698  0.01179  0.12543     0.04979  2.86384     18.08272   3739.68577    -9.24117   1.2808  7690.60717  0.00067  56415.95883  52.23433   0.57329  19.08291  56447.61604 
    14.36795  2.07577  4.64814       0.38762         4532.12356  0.01736  0.06941     0.02051  2.85798     16.09255   6605.55959    -7.35855  1.14771  7817.26332    1e-05  56417.84145  52.24825   0.84357  19.06154  56444.24561 
    14.52764  1.75645  4.83769       1.83521         3412.30292  0.01569  0.11307     0.05381  3.02317     16.53677    4450.5844    -8.06647  0.60533  8048.22711    2e-05  56417.13353  52.28075   0.77529  18.96294      56442.2 
     14.2821  1.67035  3.23018       0.38436         4812.19041  0.26947  0.09795     0.01882  2.68984     16.19551   5412.81262    -7.76019  1.51973   7008.2731    1e-05  56417.43981  52.14546  12.85641  19.11221  56447.61604 
    14.26521  1.64298  2.96856       0.26102          4672.6807  0.41648  0.12567     0.02024  2.30494     16.05811   4606.04108   -11.44306  1.24799  6980.43654    1e-05  56413.75694  52.12118  18.94024  19.10767  56447.61604 
    14.20069  1.87404   5.1693       1.59319         3253.97065  0.00259  0.09125      0.0156  2.69961     19.32958   5021.84614   -12.88005  0.93312  7963.56358  0.01187  56412.31995  52.25693    0.1239  19.08998  56444.24561 
    14.21824  1.71591  3.81886       0.40448         4700.42133  0.00367  0.07831     0.02274  2.10143     16.02877   6443.37644    -6.37189  1.31924  7507.11668    1e-05  56418.82811   52.1714   0.16204  19.09876  56447.61604 
    14.08961  1.43439  3.05126        0.1271         3786.77405  0.00877  0.11484     0.03155  2.32408     16.96789   5896.59576   -11.35301  1.41217  8139.90609    5e-05  56413.84699  52.25579   0.39982  19.11242  56447.61604 
    14.25064  1.68066  4.33364       1.45284         3607.88542  0.00121  0.09756     0.02619  3.49298     17.58948     5025.003   -10.58488  1.40703  7104.13227  0.00022  56414.61512  52.19036   0.06234   19.0795  56447.61604 
    14.31956  1.66577  4.32633       1.18304         4049.37373   0.0239  0.09343     0.02362  3.22116     16.20012   3861.89733    -8.17575  1.03825  6844.92866    1e-05  56417.02425  52.14808   1.20273  19.08672  56447.61604 
    14.19726  1.57542  4.73941       2.03747         3582.77887  0.04264  0.08936     0.02183  3.29757     17.63069   4746.04128    -9.67669  1.24635  7224.55549  0.00024  56415.52331  52.19788   2.15982  19.00885  56444.24561 
    14.26864  1.66132  3.50124       0.59466         4056.92752  0.00573  0.15323     0.04853  2.22211     16.84304   4429.57182    -9.36601   1.4629  7186.50826    4e-05  56415.83399  52.14137   0.25761  19.06533  56447.61604 
    14.35283   1.5173  4.36671       1.79965         3792.03614  0.00393  0.12881     0.03739  2.27053      17.0968   6022.23506    -6.16821  0.81898  6757.27492    7e-05  56419.03179  52.09088    0.1777  19.08544  56447.61604 
    14.29778  1.84196  3.20747       0.56378         4905.84135  0.00146  0.06947     0.01668  3.06542     20.17923   5888.21514    -7.92126  1.42114  6182.22786  0.08394  56417.27874   52.0534    0.0726  19.16003      56449.2 
    14.11339  1.43057  3.05133        0.4701         4904.19334  0.01725  0.08603      0.0187  2.30437     17.48481    3947.6902    -8.87972  1.29827  6666.98861  0.00017  56416.32028  52.08124   0.78438  18.99866  56444.24561 
    14.19321  1.65714   3.9399       0.42428         5078.41267  0.39595  0.09051     0.01916  1.97063     16.05661   5654.97095    -7.68575  1.35309  7440.97082    1e-05  56417.51425  52.15447  17.10894  19.03112  56447.61604 
    14.42468  1.76443  3.84558       0.60025         4090.76707  0.13575  0.12626     0.02349  2.23645     17.66832   4354.50999   -13.43519  0.68987  6827.00066  0.00026  56411.76481  52.09769   6.11437  19.06194  56444.24561 
    14.18953  1.73596   4.2137       0.67145         4398.55772   0.0087  0.07013     0.01656  2.52122     19.87403   6985.18089    -6.82704  1.39501  7377.65123  0.04157  56418.37296  52.18146   0.40697  19.05677  56447.61604 
    14.31399  1.74517  3.16695       0.43767         4593.87954  0.01473  0.09492     0.02582  3.31447       19.907    4172.4002    -9.09666   1.2894  6925.68984  0.04485  56416.10334  52.16182   0.74732  19.08023  56447.61604 
    14.35188  1.75897  3.65019       0.51834         4502.99807  0.11261  0.09831     0.02118  2.23708     20.11689   6909.65354   -11.37043  0.76473  7059.65068  0.07271  56413.82957  52.12683   5.07263  19.13377  56447.61604 
    14.19492  1.57118  3.81118       0.87576         3920.86233  0.28893  0.16152     0.02794  2.04355     17.00097   5282.66109   -12.21726   1.5683  7036.59144    6e-05  56412.98274  52.11119  12.63646  19.04953  56444.24561 
    14.38678  1.92597  3.60792       0.51499         4632.28075  0.21191  0.09642     0.01356  2.90206     16.87865   3874.78819   -12.73736  1.05573  6182.02331    4e-05  56412.46264  52.04638  10.34308  19.12112  56447.61604 
     14.3796  1.55633  3.38589       0.59129         3801.09218  0.22601  0.09521     0.02127  2.41254     17.76995   6131.86794     -8.2811  0.71437  7156.40225  0.00033   56416.9189  52.14906   10.4271  19.01925  56444.24561 
    14.22942  1.61248  2.57737       0.20516         4616.72263  0.00278  0.10305      0.0344  3.09109     19.43712   3986.31422   -11.68445  1.53423  7139.32496   0.0152  56413.51555  52.17948   0.13835  19.07649  56444.24561 
    14.39384  1.79337  2.97011       0.21899         5035.49665  0.02048  0.08765     0.03087  3.78414     18.34182   4589.40281    -7.90293  1.11769  7336.83956  0.00122  56417.29707  52.22801   1.07828  19.07963  56447.61604 
    14.19461  1.59498  3.84235       0.78791          3949.4714  0.00381  0.26038     0.05053  1.21911     17.82315   5784.88576   -11.27199  1.35843  6829.80556  0.00037  56413.92801  52.00393   0.13816  19.08165  56447.61604 
    14.28162  1.80857  3.97933       0.24588         4226.00979  0.01922  0.09299     0.02382   2.9344     19.22603   5854.11159    -10.3705  1.11759   7966.4184  0.00935   56414.8295  52.26807   0.94135  19.09218  56447.61604 
     14.5297  2.01597  3.09329        0.3246         4636.32441  0.21244  0.10811     0.02745  3.07565     16.36101   5050.65846   -10.48722  0.92714  7105.06105    1e-05  56414.71278  52.17467  10.54717  19.13172      56449.2 
    14.44821   1.6645  2.83987       0.43246         4451.84865   0.2517  0.11111     0.02519  3.16897     16.67041   4790.04401   -10.35143  0.84013   6947.2576    3e-05  56414.84857  52.15892  12.60517  19.11798      56449.2 
    14.33512   1.9725   4.4393       0.77044         3940.75923  0.04907    0.088     0.01658   3.5673     16.59605    4696.9376     -12.468  1.27939  6832.20481    2e-05    56412.732  52.15902   2.54164  19.13137  56447.61604 
     14.0963  1.33213  2.28685       0.28465         4490.31399  0.03383  0.12585     0.02529   2.6396     16.59151   3573.97035   -15.10248  1.28868  6616.66044    2e-05  56410.09752  52.09302   1.60463  19.12377  56447.61604 
    14.38473  1.79453  3.71222       0.26559         4533.84208  0.00145  0.09222     0.02874   2.6866     16.99301   3175.68399    -9.63006  0.82333  7797.54246    5e-05  56415.56994  52.23799   0.06892  19.05266  56444.24561 
    14.33963  1.36887  2.68084        0.4485         4370.78666  0.02643  0.11627     0.02485  2.30818     19.64903   5492.08695   -14.62484  0.52996   6944.7345  0.02476  56410.57516  52.11692   1.20235  19.12939  56447.61604 
    14.32447  1.49939  2.95957       0.18608          4504.7629  0.26249   0.1073      0.0252  2.78221     19.17716   3579.13927   -11.24506  0.76229  7803.81547  0.00835  56413.95494  52.24327  12.65152  19.09956  56447.61604 
    14.21073  1.27981  2.62908       0.14795         4655.22509  0.00788  0.11893     0.02862  3.09817     18.60073   6164.31683   -12.82946   0.7649  7563.35558  0.00222  56412.37054  52.22988   0.39213  19.08651  56447.61604 
    14.40348  1.95958  4.58108       0.77554         3445.25384  0.06545  0.08246     0.02379  3.89391     16.58948   5924.68374    -8.96574  1.06227  8096.02662    2e-05  56416.23426  52.31694   3.47262  19.11016  56447.61604 
     14.3217   1.9274  3.19632       0.14677         4829.59979  0.00345  0.12969     0.03713  2.70314     16.11434   3863.28096   -14.71431  1.34795  7347.40325    1e-05  56410.48569  52.18715   0.16502  19.08862  56447.61604 
    14.19268  1.91647  4.38406       0.42608         3890.73842  0.17908  0.07526     0.01369  3.01948     18.61307   5360.65408    -13.8391  1.52663   7657.8661  0.00228   56411.3609  52.23741   8.84308  19.09944  56447.61604 
    14.29391  1.75535  5.05894       1.81855         3780.53164  0.00193  0.06766     0.01434  4.31225     16.46091   6069.79614    -9.37097  1.06318   6945.6695    2e-05  56415.82903  52.19574   0.10512  19.07366  56447.61604 
    14.25874  1.61758  4.20926       1.61549         3666.49911  0.00441  0.04538      0.0141  7.29037     16.42266   4892.79633    -8.59998  1.45821  6828.26926    1e-05  56416.60002  52.23755   0.27392  19.08088  56444.24561 
    14.46012  1.84825  3.07081       0.19437         4522.24992  0.00151  0.09563     0.02727  3.56442     18.03329   5335.22814   -13.38549  0.76391  7217.53226   0.0006  56411.81451  52.20658   0.07809  19.08833  56447.61604 
    14.53455  2.02103  3.95403       0.40108         4193.84517  0.11328  0.12811     0.02794  2.15416     16.02147   5857.33991   -11.28838  0.69701  7123.43059    1e-05  56413.91162  52.12935   5.04087  19.07473  56447.61604 
    14.17666  1.49613   3.2026       0.36194         4485.14927  0.35948  0.08081     0.01192  3.69701     16.65652   5274.63791   -11.50813  1.49744  7255.86195    3e-05  56413.69187  52.21559  18.80407  19.07983  56447.61604 
    14.23587  1.40716  3.08207       0.40083         4656.97837  0.23793  0.11586     0.02808  2.20172      16.2642   6101.59597    -7.90024     0.96  7378.91579    1e-05  56417.29976  52.16303  10.66248  19.12231  56447.61604 
    14.55207  2.17671  4.44618        0.2518         4558.49804  0.04212  0.10981     0.02035  2.14075     17.83848    6227.3109   -11.32873  0.62843  7386.62484  0.00038  56413.87127  52.15998    1.8703   19.1064  56447.61604 
    14.26092  1.81164  4.35937       0.91644         4094.18938   0.0424  0.07786     0.01372   3.0574     18.41709   4353.82284   -10.17916  1.36326  6277.39399  0.00145  56415.02084  52.06634   2.10147  19.05371  56447.61604 
    14.25906  1.62666  5.02713       2.35489         3677.38373  0.00275  0.11937     0.02379  2.27155     19.07307   5680.81349    -9.77522  0.97388  6470.89735  0.00657  56415.42478  52.05332   0.12455  19.07142  56447.61604 
    14.30599  1.62194  3.81717       0.81238         4092.30005  0.05896  0.08519     0.02159  3.08467     19.24027   5345.01888    -9.19151  0.95178  6906.35856  0.00966  56416.00849   52.1504   2.92972  18.96308      56442.2 
     14.4337  1.76192  4.82036       1.24849         3439.85851  0.01944   0.0562     0.01433  5.20818     18.88957   4546.55981   -11.36331   0.6126  8023.45134  0.00431  56413.83669  52.34224   1.11329  19.05263  56444.24561 
    14.28234  1.67385  3.03241       0.11894         4965.17817  0.30104   0.1192     0.02481  2.22687     16.31656   3446.69266   -14.77154  0.89133  7685.52868    1e-05  56410.42846  52.19998  13.54019   19.0761  56444.24561 
    14.31925  1.84045  2.72877       0.03298         5053.84687  0.00149  0.08791     0.02068   3.3541      20.0216   5981.80239   -15.59925  0.92625  7585.62412  0.05839  56409.60075  52.24234   0.07565  19.08988  56444.24561 
    14.30005  1.85779  5.72184       2.75482         3300.85662  0.25879  0.10467     0.01711  2.88521     16.73562    4149.6266    -9.21331  1.33806  7130.45705    3e-05  56415.98669   52.1696  12.60922  19.04292  56447.61604 
    14.28571  1.60987  2.06817       0.18798         4367.79411  0.21521  0.13551     0.03945  2.76442     20.03239   5320.74148   -11.35578  1.41267  7363.36516  0.05986  56413.84422  52.19197  10.35269  19.04035  56444.24561 
     14.4345  1.81521  3.05989       0.30719         4703.12834  0.13331  0.06055     0.01109  5.18825     17.15448   4929.76133   -13.89579  0.82498  6835.04919    8e-05  56411.30421  52.20258   7.62648  19.17624  56447.61604 
    14.31327  1.88189  3.35272       0.53076         4229.78447  0.00908  0.07705     0.01822  3.90258      16.4795   4136.87609   -13.30871  1.50934  6469.86888    2e-05  56411.89129  52.12245   0.48216  19.08236  56447.61604 
    14.58275  1.97461  2.77643       0.07152         4864.59944  0.19675  0.09598      0.0216  3.58183      17.2345     5434.652   -13.14683   0.6822  7476.37344   0.0001  56412.05317  52.23777  10.20198  19.09079  56447.61604 
    14.35935  1.82032  4.68032       1.54337         3192.68073  0.16938    0.113     0.01888  3.08852     17.83368   5107.24953   -13.97276   0.9051  7136.00315  0.00038  56411.22724  52.17897    8.4196  19.06656  56447.61604 
    14.55492  1.94556  3.48319       0.40431         5207.28961  0.02633  0.07352     0.01397  3.19743     16.64216   6410.56573   -10.44797  0.62459  6313.03597    2e-05  56414.75203  52.07689   1.32193  19.08604  56447.61604 
    14.08975  1.47523  3.56075       0.76602         3678.45023  0.08167  0.14823     0.02821  2.14726     18.06257   4854.90075   -14.86732  1.56545  7133.51382  0.00064  56410.33268  52.13012   3.63036  19.06298  56447.61604 
    14.26086  1.80499  3.59361       0.22876         5179.31286  0.00448  0.09253      0.0184  1.63792     17.99205   7353.53516   -13.52921  0.73167  7763.28816  0.00055  56411.67079  52.16356   0.18159  19.10361      56449.2 
     14.2961  1.68191  3.77499       1.50689          2991.0593  0.04909  0.13912      0.0516  3.18174     18.75558   3496.96107   -11.19277   1.3092  7860.33722  0.00316  56414.00723  52.26668   2.46108  19.10448  56447.61604 
    14.20604    1.387  2.91871       0.34492         4555.65173  0.20184  0.11554     0.02504  2.29546     17.72405   3553.74223    -9.87692  0.96344  7113.24488  0.00029  56415.32308  52.13698   9.16714  19.05038  56444.24561 
    14.21082  1.62616  4.32545       1.62471         3279.65007  0.00557   0.1487     0.04339  2.24887     17.51058   5879.96783   -10.86935  1.36819  7489.67363  0.00018  56414.33065  52.17893   0.25116  19.05958  56447.61604 
     14.3472  2.14208  6.79791       3.43282         3318.34654  0.14046  0.12819     0.02274  2.07603     17.33929   5396.16267    -8.59418  1.13009  7454.12673  0.00012  56416.60582  52.16352   6.17533  19.11519  56447.61604 
    14.14358  1.36986  3.04603       0.15982         4889.74593  0.00143  0.05716     0.01315  4.83517     17.67604   4885.16469   -12.36235  0.90288  7758.93069  0.00026  56412.83765   52.3049   0.08025  19.08451  56447.61604 
    14.23699  1.59956   3.1334       0.41665         4364.64835  0.18955  0.06817     0.01329  3.64893     18.52952   5909.89072    -9.88576   1.2868  6884.57688  0.00188  56415.31424  52.16839   9.87955  19.07593  56447.61604 
    14.47434  1.63416  2.34135       0.14406         4585.10903  0.04928  0.05305     0.01181  6.72505     18.33225   5071.93497   -14.65543   0.6248  7041.83535  0.00119  56410.54457  52.25606    3.0042    19.057  56444.24561 
    14.20725  1.75415  3.60193       0.24052          4993.5865  0.02841  0.03403      0.0102  5.06761     17.01984    4681.4329    -9.02981  1.28074  8199.88907    6e-05  56416.17019  52.35813   1.61542   19.1211  56447.61604 
    14.61883  2.12099  4.10365       0.27183         4793.36242  0.08701  0.08854     0.02205  2.24958     19.39043   4795.64044    -9.17268  0.54185  7584.93985  0.01365  56416.02732  52.18995   3.92648  19.08213  56447.61604 
     14.3214  1.78864  3.46597       0.20671         4403.36268  0.00774  0.08053     0.03098  2.99494     19.44614    4538.5112    -6.82781  1.14372   8380.5325  0.01552  56418.37219   52.3147   0.38144  19.06556  56447.61604 
    14.35832  1.87627  3.41785       0.13203         3620.36256   0.0273  0.10575     0.04285  3.48231     19.30262   6061.37745   -10.78182  1.21916  8155.42533  0.01115  56414.41818  52.30986   1.40455  19.03286  56447.61604 
    14.35453  2.15159  4.99285       1.56889         2365.34502  0.27658  0.08559     0.01513  3.77064     17.94398   6016.10233   -12.57929  1.46917  7996.88671  0.00049  56412.62071  52.30241   14.5465  19.10517  56447.61604 
     14.5244  1.97499  4.56367       0.81861         4067.67856  0.00276  0.19023     0.01424  1.36424     18.64954   5806.74827   -18.69195  0.33736  6396.88728  0.00248  56406.50805  51.96611   0.10452  19.10886  56447.61604 
    14.18489   1.5736  3.05883       0.34991         4235.16381  0.02645  0.11281     0.02617  2.87907     18.35493   4403.72476    -13.3046  1.48482  7021.88892  0.00126   56411.8954    52.156   1.28805  19.11776  56447.61604 
    14.47307  1.96997  5.66715       2.37791         3003.56508  0.46161  0.08522     0.01745  3.84827     16.29352    4371.1163    -7.10748  1.13171  8418.14349    1e-05  56418.09252  52.34943  24.41401  19.06397  56447.61604 
    14.04341  1.41551  3.81214       0.56066          4357.5065  0.24686  0.09661     0.01988  1.93219      16.9759   5884.06228    -9.22091  1.26988  7519.24702    5e-05  56415.97909  52.16069  10.59647  19.07975  56447.61604 
    14.21163  1.65633  2.94802       0.34184         4972.97184  0.00141  0.06239     0.01468  4.99309     19.89856    3177.0101   -12.74726  1.44491  7011.26643  0.04398  56412.45274  52.22046   0.08006  19.08793  56447.61604 
    14.37736  1.77459  3.65439       0.36667          4823.2913  0.34799  0.08062     0.01333  3.04473     16.32735   5616.50776   -10.73492  0.86394  7117.22057    1e-05  56414.46508  52.17487   17.2264  19.06711  56447.61604 
    14.38531   1.5379  3.78844       0.69501         4011.71625  0.23484  0.07081     0.01544  3.67332     17.91386   5277.29378   -11.01116  0.65232  7436.85594  0.00046  56414.18884  52.23621  12.26249  19.02798  56444.24561 
    14.00193  1.40736  4.06048         0.793         3964.74056  0.00371  0.25685     0.05276  0.85709     19.32742   4619.84521    -10.1555   1.5293  7348.62136  0.01181   56415.0445  52.00177   0.11551  19.10105  56444.24561 
     14.3054  1.58476  4.24396       0.71498         3680.11032  0.04727  0.08423     0.02045  2.95476      18.0171    3500.5937   -10.99402  0.67669  8101.15356  0.00058  56414.20598  52.28352   2.31953  19.13051  56447.61604 
    14.16674  1.93053  4.43894       0.49333         4548.58085  0.04034  0.06725     0.01455  2.06491     17.22378   5894.05593    -9.77581   1.4613  7456.10799    9e-05  56415.42419  52.16298   1.77022  19.04618  56447.61604 
     14.4063  1.80989  4.22829       0.33176         3876.17624  0.00113  0.13525     0.04646  1.75922     16.66802   7799.73535    -9.07552  0.71826  8592.72659    3e-05  56416.12448  52.26266   0.04703   19.1144  56447.61604 
    14.21501  1.63576  3.68499       0.64143         4099.34401  0.06621  0.07405     0.01506  3.64187      18.7465   5561.81429   -10.96762  1.31353  6857.10471   0.0031  56414.23238  52.16468   3.44922  19.11172  56447.61604 
    14.31968  1.88017  4.24737       0.45594          4089.1779  0.01041  0.10373     0.01804  2.89064     16.91007   7907.57052   -13.57087  0.92782  7286.02485    5e-05  56411.62913  52.18859    0.5075  19.10681  56447.61604 
    14.23513  1.45714  3.26147       0.37066         3778.28044  0.01372  0.13688     0.03993  2.32147     16.64667   5191.86323   -12.27763  0.84679  7786.44522    2e-05  56412.92237  52.21708   0.62527  19.05725  56447.61604 
    14.40973  1.78892  4.69345       1.77903         3507.55506  0.13307  0.10663     0.02964  3.40146     17.72341   5020.57264    -8.21859  1.06617  7314.98196  0.00029  56416.98141  52.21251    6.8004  19.12304  56447.61604 
     14.2147   1.7033  4.28735       0.74674         4308.62692   0.0024  0.14353     0.03344  1.49728     16.23909   4910.53933    -7.90301  1.40078  6921.65669    1e-05  56417.29699  52.04975    0.0941  19.03147  56444.24561 
    14.30679  1.83558  5.32584       1.87531         3634.21747  0.00112  0.13395     0.03704   2.1085     17.14901   5720.30807    -9.14717  1.09531   7513.9287    8e-05  56416.05283  52.17267   0.04952  19.05802  56447.61604 
    14.29107  1.57556  4.21468       1.59573         3846.23026  0.17755  0.13406     0.03477  2.45879     17.27229   4955.43144    -6.89851   1.2944  6969.83578   0.0001  56418.30149  52.12869   8.24032  19.07395  56447.61604 
     14.4509  2.18219  4.17964       1.36883         2148.32577  0.15511  0.11893     0.02654  3.59465     17.76858   3461.67965   -11.09349   1.4717  7993.65792  0.00033  56414.10651  52.29631   8.05073  18.99723  56444.24561 
    14.23677  1.73741  3.66464       0.47296         3821.19923  0.02088  0.07973     0.01878   3.4159     16.73214   5893.35069   -13.89174  1.12639  7493.17452    3e-05  56411.30826  52.23394   1.06858  19.02401  56444.24561 
