 texplosion  fnickel    Pspin  log(Bfield)      Mns  thetaPB  mejecta    kappa  kappagamma     vejecta  temperature    alpha  cutoff_wavelength  log(nhhost)      A_V         MJD0  kenergy  mnickel            TSD   log(L0)  Peak_mag     Peak_MJD  log(E_rad)  log(Peak_lum)  Rise_Time    E_fold  tau_1  delta_m15     r_peak     frac 
   -6.11879  0.00324  3.21881     14.22885  1.91855  1.53652  3.32719   0.1262     0.01031  7550.23596   6179.52477  0.36292         5512.26477     18.51387  0.00181  58693.26121  1.13143  0.01078   643407.81044  45.72794  18.32456   58732.0558    51.04446       44.54299   18.11579  25.15253   30.0    0.40531  -21.21084  0.99949 
   -7.18992  0.06331  3.23966     14.18336  1.72317  1.04855  3.44685  0.18791     0.01267  9375.61719   6077.40665  0.45065         2633.97597      18.8529  0.00396  58692.19008  1.80738  0.21823   721799.96792  45.62576  18.35134   58732.0558    50.98378       44.44744   22.99225  25.53406   29.5    0.38762  -21.20628  0.98791 
   -6.76737  0.43202  2.77842     14.27014  1.66535  0.89964  1.99995  0.27218     0.01519  7723.05852   6362.73382  0.40926         4614.00086     17.20117    9e-05  58692.61263  0.71158  0.86401   344058.64197  46.06612  18.33561   58732.0558    51.01551       44.49265   21.63416  24.92411   30.5    0.38944  -21.17938  0.96405 
   -7.45805   0.0049  2.26334     13.82018  1.04474  1.43678  2.20819  0.26048     0.02359  9061.35546   5980.10465  0.25326          4489.6089     17.61893  0.00023  58691.92195  1.08156  0.01081  1137540.17495  45.52239  18.33252   58732.0558    51.04318       44.53494   18.11579  25.21447   30.0    0.39458  -21.21954  0.99937 
   -6.87227  0.37048  2.57177     14.19882  1.65611  1.15138  3.14344  0.17705     0.01091  8225.85449   6007.48048  0.22831         5199.49396     19.54052  0.01929  58692.50773   1.2688  1.16457   407121.80856  46.05775  18.32766   58732.0558    51.04161       44.53431   18.88955  24.44071   30.0     0.4134  -21.21656  0.95845 
   -7.21262  0.08347  2.55724     14.19901  1.45428  0.79325  3.45072  0.14223     0.01082  7869.34592   6140.72699   0.2597         5540.81139     16.18993    1e-05  58692.16738  1.27472  0.28805   353170.75015  46.06797  18.31456  58730.51146    51.04647       44.54146   18.88955  24.37877   30.0    0.38495  -21.18931  0.98724 
   -6.37117   0.1625  3.26613     14.23932   1.8271  1.20369  1.92839  0.26472      0.0222  8412.80983    6175.4728  0.38574         4370.12291     19.09765  0.00696  58693.00883  0.81415  0.31336   601172.82834  45.72354  18.34853   58732.0558    51.08124       44.57658   16.82657  25.61218   30.0    0.40652  -21.21032  0.98396 
   -6.83152  0.02851  2.70579      14.2564  1.57431  0.86311  4.02975  0.14533     0.01747  9614.39809   6067.82801  0.24578         2277.66944     17.08169    7e-05  58692.54848  2.22203   0.1149   328617.28712  46.08466  18.32892  58730.51146    51.06348       44.55639   18.11579  24.32296   29.5    0.39546  -21.19801  0.99491 
   -6.81508  0.00205  3.50888     14.16585  1.86955  1.36863  1.66255   0.2746     0.01766  7832.02694   6471.22555  0.43501         4684.09048     17.43367  0.00015  58692.56492  0.60834  0.00342    995830.1401  45.45206   18.3429   58732.0558    51.03465       44.52306   21.63416  24.09989   30.0    0.40275  -21.20763   0.9998 
   -7.30287  0.03108  3.01543     14.10232  1.65385  1.43853  3.12338  0.16355     0.01019     7943.63   6448.69414  0.34091         5781.04404      18.9004  0.00442  58692.07713  1.17568  0.09707   871703.10876  45.58827  18.32529  58730.51146    51.00922       44.49633   22.35329  24.20498   29.5    0.41413  -21.24899  0.99502 
   -5.86928  0.11549  2.52771     14.14464   1.5457  1.42961   3.3238  0.13324     0.01136  7446.12875   6564.26163  0.42201         5517.89552     16.67342    3e-05  58693.51072  1.09932  0.38388   471111.62631  45.97939   18.3235  58730.51146     51.0124        44.4876   19.23036  25.67264   30.0    0.40161  -21.22348  0.98493 
   -5.84465  0.00184  2.56067        14.25  1.71068  1.22893  4.37254   0.1054     0.01126  7579.94831   6544.50147  0.36904          5793.3563     18.41863  0.00146  58693.53535  1.49863  0.00803   329367.57045  46.16763  18.33688   58732.0558    51.02955          44.51   21.63416  24.92411   30.0    0.37886  -21.21286  0.99972 
   -7.24662  0.04167  2.94679     14.29268  1.82696  0.88684  2.57564   0.1882     0.01081  7358.72996   6660.50075  0.31986         5937.09149     16.87783    4e-05  58692.13338  0.83199  0.10732   382723.42904  46.00899  18.34114   58732.0558    51.05445       44.54191   18.11579  25.21447   30.0    0.39076  -21.20115  0.99548 
   -6.68614  0.01605  2.42878     14.15046  1.52377  1.05319  3.14647  0.13972     0.01015  7140.70356   6641.66698  0.42745         5723.14345     19.88665  0.04279  58692.69386  0.95705  0.05051   417443.36697  46.06039  18.31882  58730.51146    51.01915       44.50783   18.88955  24.44071   30.0    0.37881   -21.2633   0.9981 
   -6.06951  0.16906  2.40878     14.24495  1.59798  0.93752  3.04828  0.14239     0.01141  7416.67975   6424.06743  0.34638         5858.35873     19.60679  0.02247  58693.31049  1.00023  0.51533   278665.99251  46.26374  18.33194   58732.0558    51.02459       44.51036   19.23036  24.85683   30.0    0.40478  -21.23277  0.98259 
   -6.45939  0.00428  2.46269      14.1823  1.64473  1.24558  2.65531   0.1754      0.0119  7185.31143   6679.84011  0.36107         5771.76871     17.48257  0.00017  58692.92061  0.81777  0.01136   400056.77165      46.1  18.33376   58732.0558    51.02618       44.50866   18.11579   25.9714   29.5    0.40616  -21.20617  0.99961 
   -7.38319  0.00333  3.23934       14.356  1.76804  0.68561  1.39158  0.33108     0.02277  7187.78575   6448.21263  0.47376         5922.69926     17.67633  0.00026  58691.99681  0.42887  0.00463   334363.20626  45.97121  18.32832   58732.0558    50.98366       44.45315   19.23036  26.44175   30.5    0.38819  -21.24264  0.99975 
   -6.67543  0.11324  3.14421     14.19632  1.80119  1.55077  1.96968  0.22075      0.0189  7698.88865   6075.01319  0.35094         5112.77019     17.79119  0.00034  58692.70457  0.69643  0.22305    669506.4411  45.70363  18.31653  58730.51146    51.07557       44.56419   16.82657  26.44175   30.0    0.38848  -21.18004  0.98913 
   -6.89924  0.02041   2.7517     14.17391  1.60515  1.09946  2.11277  0.22526     0.01675  7591.18859   6226.55006   0.3596         5726.36444     16.07402    1e-05  58692.48076  0.72627  0.04312   506660.11061  45.89044  18.32165  58730.51146    51.02479       44.51103   18.11579  25.21447   29.5    0.40118  -21.21971  0.99807 
    -6.9053  0.25687   2.5919     14.28298  1.80515  1.19402     3.68  0.15103     0.01169  8553.59232   6198.32911  0.18621         5023.04796     16.81226    4e-05   58692.4747   1.6061  0.94527   305919.07772  46.21252  18.35681   58732.0558     51.0146       44.49238   18.11579  26.03869   29.0    0.41931  -21.20504  0.96967 
   -6.28656  0.11809  3.30633     14.30552  1.92192  1.08856  2.26916  0.20107     0.01356  7187.11573   6457.40101  0.57795         4747.44381     17.96513  0.00051  58693.09344   0.6992  0.26797   477741.26121   45.8347  18.32743   58732.0558    51.04782       44.53847   18.11579  25.15253   30.5    0.40373   -21.1921  0.98694 
   -7.25121  0.29977   3.3297      14.3136  2.14953  1.26377  2.07486  0.23707     0.01271  7388.55807   6091.27171  0.33325         5762.72586      16.4658    2e-05  58692.12879  0.67567  0.62198    522122.5754  45.83861  18.34879   58732.0558    50.99679       44.46752   22.35329  25.33053   30.0    0.39782   -21.2085  0.97434 
   -7.00677  0.00266  3.27304     14.36856  1.91068  0.78322  2.78344  0.16702     0.01161   7489.0789   6406.44476  0.40392         5163.40794     17.85882   0.0004  58692.37323  0.93125  0.00742   348160.86242  45.97835  18.31494  58730.51146     51.0189       44.50909   19.80628  24.34819   30.0    0.40322  -21.19936  0.99964 
   -6.45857  0.06488  2.08291     14.34375  1.65382  0.84235  4.99121  0.11058     0.01487    8991.595   6316.64989  0.11062         4098.58289     19.92188  0.04641  58692.92143  2.40717  0.32385   136818.32991  46.71385  18.33306  58730.51146    51.03125        44.5149   18.88955  25.19765   29.5    0.38731   -21.2189  0.99225 
   -6.70085  0.00144  3.59581     14.35755  1.98071  0.85113  2.68345  0.17929     0.01517   8253.6371   6098.60467  0.38706         4300.76968     18.12072  0.00073  58692.67915  1.09047  0.00386    458285.1858  45.79294  18.33211   58732.0558    51.06902       44.55494   16.82657  25.61218   30.0    0.40965  -21.19329  0.99978 
   -6.98412  0.01222  3.35544     14.20375  1.77773   0.9897  4.37473  0.12923     0.01034  9419.59065   6527.93675  0.22215         4417.78535     19.82953  0.03752  58692.39588  2.31549  0.05347    727242.0923  45.60553  18.32674   58732.0558     51.0216       44.50261   18.88955  26.01346   29.0    0.41987  -21.27077  0.99694 
    -5.7422  0.25745  3.03622     14.07118  1.44544   1.3917   2.3517  0.26054     0.02165  9503.66978   6241.77085  0.83799         2810.55897     18.38707  0.00135   58693.6378  1.26705  0.60545   891521.81196  45.51405  18.35273   58732.0558    51.07979       44.56541   21.29334  24.44071   29.5    0.41071  -21.20505  0.96269 
   -6.16579  0.02183    2.139     14.28832  1.27432  0.60209   4.4284   0.1085     0.01368  8018.81687   6430.76881   0.3642         5602.13505     18.06762  0.00065  58693.21421  1.69861  0.09668   143510.08724  46.55682  18.32864   58732.0558    51.00728       44.48761   19.23036  24.92411   30.0    0.38486  -21.22456  0.99634 
   -6.85444  0.02135  2.80515     14.20121  1.74305  1.44559  2.43831  0.21254     0.02136    8521.464    6505.8067   0.2172         4965.92129     19.07793  0.00665  58692.52556   1.0562  0.05206   504227.47234  45.91161  18.34676   58732.0558    51.03502       44.52588   19.23036  24.85683   29.5    0.39872  -21.20406  0.99787 
   -7.47039  0.27706  3.56743     14.24319  2.11291  1.39349  2.07751  0.27376     0.01372  8366.51461     6575.874  0.23037         4418.91851     18.91952  0.00462  58691.90961  0.86748  0.57558   814767.19562  45.57798  18.34612   58732.0558    51.05501       44.53382   18.11579   25.9714   30.0     0.4006  -21.17819    0.972 
   -7.77398  0.02458  2.79161      14.0539  1.53029  1.47218  1.66114  0.30634     0.02138  8030.36857   6220.75318  0.21721          5934.8783     16.88887    4e-05  58691.60602    0.639  0.04084   863963.90581  45.62541  18.32822   58732.0558     51.0557       44.54789   16.82657  26.44175   30.0     0.3898  -21.18669  0.99798 
   -6.59611  0.11844  2.72127      14.1655  1.61225  1.31071  2.45866   0.2026     0.01509  7811.67547   6399.14535  0.36895         4815.27998     18.86381  0.00406  58692.78389  0.89498  0.29121   517354.40045  45.89295  18.34878   58732.0558    50.99465       44.47768   22.35329  24.95351   29.5    0.40351  -21.17616   0.9875 
   -8.02892  0.08609  3.30239     14.23281  1.83295  0.97197  2.54488  0.25232      0.0176  9493.57267   6112.28543  0.28913         2614.77059     19.56009  0.02018  58691.35108  1.36821  0.21908   635338.35077  45.69133  18.32625  58730.51146    51.05196       44.54672   18.11579  24.32296   29.5    0.41099  -21.22668   0.9885 
   -6.23581  0.00894  2.35845     14.05912   1.3873  1.36226  3.94556  0.11142     0.01084  7807.73365   6635.39351  0.30348         5971.55644     16.16851    1e-05  58693.14419  1.43478  0.03526    545744.6949  45.92877  18.33317   58732.0558    51.05153       44.54279   18.11579  25.15253   29.5    0.41236  -21.21813  0.99856 
   -6.76791  0.02359  3.41744     14.25944  2.02812  1.43994  2.45064  0.21232     0.02157  9255.71267   6076.09074  0.11029         3175.74562     18.41912  0.00146  58692.61209  1.25235  0.05781   665935.48851   45.6851  18.31509  58730.51146    51.05971       44.55752   16.82657  25.61218   29.5    0.42538  -21.19282  0.99719 
   -7.43518  0.06431  2.85354     13.99794  1.50273  1.40088  2.97716  0.19145     0.01329  9379.21569   6148.61029  0.17624         3117.21378     19.78429  0.03381  58691.94482  1.56229  0.19145  1147051.83388  45.47537   18.3387   58732.0558    51.00577       44.48836   22.21008  25.09672   29.5     0.4144  -21.24075  0.98986 
   -8.17228   0.0895  2.94252     14.09288   1.6436  1.16121  3.57988  0.16512     0.01033   9208.8621   6098.20649  0.06859         2249.48011     17.38147  0.00013  58691.20772  1.81096  0.32039   861553.09872  45.61192  18.33489   58732.0558    50.98238       44.45584   19.23036  26.03981   30.0    0.40695   -21.1961  0.98434 
   -6.31592  0.12326  2.38161     14.23313  1.38516  0.74182  4.22854  0.13227     0.01006  8237.80464   6261.24862  0.45991         4038.12833     19.92053  0.04627  58693.06408  1.71175  0.52122   249342.77752  46.25981  18.35361   58732.0558    51.02422       44.50823   18.11579   25.9714   29.5    0.38772  -21.21002   0.9787 
   -6.44931  0.02068  3.56719     14.20504  1.69912  0.95625  3.57236  0.18483      0.0122  9318.45222    6415.1053  1.09116         2844.79423     17.55598   0.0002  58692.93069  1.85042  0.07388   780947.41876  45.50179  18.33013   58732.0558    51.04656       44.53562   18.11579   25.9714   30.0    0.38895  -21.20889  0.99489 
   -6.27321  0.00224  3.05873     14.30796  1.86126  0.96468   2.7816  0.15838     0.01174  7285.34576   6550.34774  0.42119         5686.50302     18.71683  0.00289  58693.10679  0.88069  0.00623   391555.31506  45.97478  18.33442   58732.0558    51.03117       44.50831   18.88955  25.26493   29.5    0.39586  -21.22438  0.99972 
   -7.06884  0.00325  2.63686     14.01033  1.36718  1.25757  3.58714  0.15246     0.01259  8940.84593   6214.28897  0.19994         4684.17193     18.65791  0.00253  58692.31116  1.71054  0.01164    841693.1365  45.63735  18.33056   58732.0558    50.93945       44.40062   20.67256  26.97885   29.5    0.40741  -21.21652  0.99939 
   -7.02638  0.14839  3.34214     14.29704  2.09336  1.25326  2.30658  0.20364     0.01389  7808.85659   6305.32418   0.2756         5313.26094     16.19929    1e-05  58692.35362  0.83902  0.34228   552868.96248  45.79902  18.32479   58732.0558    51.04877       44.53976   18.11579  25.15253   30.0    0.41286  -21.19604  0.98503 
   -7.08473  0.03537  3.25576      14.2587  1.90849  0.96799  2.49219  0.18586     0.01094  7637.73312   6324.81218  0.34362         5469.58895     19.24497  0.00977  58692.29527  0.86724  0.08815   570702.38636  45.76782  18.36169   58732.0558    51.05589       44.53672   16.82657  26.50369   30.0     0.4182   -21.2342  0.99574 
    -5.8245   0.0171  2.50755      14.2887  1.73388  1.07119  3.38033  0.12741     0.01139  6919.84984    6416.2771  0.45243         5942.96081     16.30271    1e-05   58693.5555  0.96556   0.0578   267871.57496  46.28144  18.33813  58730.51146    50.91045       44.37225   21.64233  26.00908   30.0    0.37322  -21.21286   0.9981 
   -6.95523  0.01711  3.20923      14.2773  1.68391  0.81097  1.76251  0.26547     0.02505  8125.02006   5933.76103  0.36251         4789.54795     18.08902  0.00068  58692.42477  0.69408  0.03016   449097.68293  45.83002  18.30827  58730.51146    51.01771       44.51126   19.23036  24.09989   30.5    0.40327   -21.1914  0.99829 
   -6.81395  0.21967  2.56324     14.21425  1.55476  0.89459  3.41745  0.14954     0.01053  8179.12382   6155.13755   0.2201         5874.82067     18.65163  0.00249  58692.56605  1.36378   0.7507   353637.23133  46.09437  18.34285   58732.0558    51.06656       44.56241   18.11579  24.32296   29.5    0.40062  -21.22245  0.97034 
   -6.40613  0.39969  3.08431     14.35011  1.96636  0.99317  2.12138  0.21162     0.01358  7352.01245   6398.62576   0.3727         5212.14219     16.39423    1e-05  58692.97387    0.684   0.8479   346390.06866  46.04463  18.36082   58732.0558    51.06611        44.5559   18.11579  24.32296   30.0    0.40754  -21.17721  0.96606 
   -7.90008  0.02335   2.9322     14.12467  1.72416  1.56593  3.67732  0.15606     0.01134  8865.24559   6254.16914  0.11839         4874.95812     19.63332  0.02388  58691.47992  1.72401  0.08585   775260.99824  45.68159  18.34338     58732.37    51.03689       44.51402   16.82657  26.50369   29.5    0.39879  -21.21772  0.99608 
   -6.13475  0.06806  2.96568     14.27877  1.94461  1.31856  3.04952  0.13634     0.01097  7148.39439    6530.9266  0.38372         5850.57469     18.89374  0.00435  58693.24525  0.92955  0.20756   439895.94359  45.97008  18.33065   58732.0558    50.95485       44.42425    19.9495  26.17302   30.5    0.39033  -21.21201  0.99199 
   -6.64623   0.1872  2.63532     14.32305  1.50606  0.56341  2.18469  0.23662     0.01581  8269.93367   6311.74688  0.29315         4536.19511     19.80099  0.03513  58692.73377  0.89129  0.40898   219389.62099   46.2638  18.34128   58732.0558    51.00518       44.48028   22.21008  25.09672   29.5    0.41955  -21.22711  0.98182 
     -6.932  0.03487  2.70402     14.32214   1.6545    0.742  2.57703  0.18829     0.01696  8028.63814   6450.55822  0.24568         5614.30354      19.1875  0.00856    58692.448   0.9909  0.08987   254813.69816  46.21727   18.3324   58732.0558    51.06531       44.55519   18.11579  25.21447   30.0    0.39187  -21.20493   0.9963 
   -7.84162  0.01655  2.88848     14.28341  1.64191  0.69974  2.99218  0.18027     0.01223  8378.20022   6012.48899  0.21169         5071.45976     17.14804    8e-05  58691.53838   1.2529  0.04952    344890.7501  46.02518  18.32458   58732.0558    50.99506       44.47496   19.23036  25.67264   30.0    0.40778  -21.20746  0.99764 
   -5.50489  0.19703  2.16006     14.10535  1.48384  1.56228  3.02288  0.13778     0.01226  7591.64954     6200.731  0.30512         5947.46407     19.77277  0.03292  58693.87511  1.03925  0.59559   395762.26098  46.17387  18.32108  58730.51146    51.05812       44.55028   18.11579  25.21447   30.0    0.40482  -21.25004  0.98196 
   -7.28883  0.17375  2.56846     14.19407  1.46925  0.78994  2.88459  0.18057     0.01033  7834.52116    6485.5285  0.28471         5809.98434     16.59131    2e-05  58692.09117  1.05618  0.50121   368222.53328  46.05048  18.30866   58732.0558    50.99565       44.47768   22.99225  24.31455   29.5     0.4078  -21.21251  0.97813 
   -6.50887  0.00336  3.36732      14.2187  1.78925  1.30514  4.68009   0.1077     0.01138  8617.82192   6178.86933  0.42654         4162.16645     19.27201  0.01039  58692.87113  2.07337  0.01572   688115.17912  45.62929  18.33531   58732.0558    51.08112        44.5869   16.82657  24.78796   30.0    0.39467  -21.19802   0.9991 
   -7.16044  0.00162  2.58039     14.06126  1.38984  1.10245  1.84104  0.26615     0.02455   8367.3377   6208.22525  0.20938         5709.05668     16.77606    3e-05  58692.21956  0.76889  0.00298   648079.87415  45.77681  18.33411   58732.0558    51.05086        44.5391   18.11579  25.21447   30.0    0.39705  -21.20909  0.99985 
   -5.54556  0.07191  2.60715     14.18911  1.61477   1.2355  2.73487  0.14462     0.01154  6801.24578   6579.84358  0.52097         5930.52448     16.84374    4e-05  58693.83444  0.75464  0.19665   426621.77776  46.01458  18.34134  58730.51146    51.00018       44.48027   22.21008  24.34819   30.0    0.40472  -21.24387  0.99225 
    -6.9348  0.42169  3.12958     14.33219  2.12866  1.49448  3.44549  0.18079     0.01118  8952.51191   6282.27696  0.17017         4730.85211      19.6795  0.02656   58692.4452  1.64728  1.45293   419284.92657  45.98347  18.35959   58732.0558    51.04953       44.53791   16.82657  26.44175   29.5    0.40648  -21.23399  0.94791 
   -7.41418  0.01305  3.08316     14.34487  1.64052  0.57015  2.55859  0.17992      0.0134  8091.63084   6254.40907  0.28901         5058.78477     18.94207  0.00486  58691.96582  0.99931   0.0334   295832.07734  46.03479  18.33767  58730.51146    51.06946       44.56225   16.82657  25.61218   30.5    0.40002  -21.20579  0.99818 
    -7.8769  0.06381  2.52975     14.07613  1.43476  1.15204  4.18512  0.15105     0.01051  9021.34335   6314.85959  0.10879         5065.71078     18.31007  0.00113   58691.5031  2.03179  0.26705   600458.71985  45.84099  18.32703  58730.51146    51.03813       44.52939   18.88955  24.44071   29.0    0.39502  -21.19836  0.98817 
   -6.56347  0.00161  2.50522     14.33812  1.66487  0.74214  2.72503  0.16997     0.01812  8111.29672   6195.33678  0.21506         5363.56093     19.68223  0.02673  58692.81653   1.0695  0.00439   204476.43121  46.38189  18.30547   58732.0558    50.97612       44.45528   22.99225  24.68172   30.0    0.39757  -21.20801  0.99985 
   -8.02555  0.07982   2.8686     14.08771  1.43929   0.8177  2.88126  0.21683     0.01392  9798.42787   6109.54233  0.20562         2377.16201     18.71418  0.00288  58691.35445  1.65015  0.22998   734333.77977  45.64576  18.31275  58730.51146    51.01196       44.50183   19.23036  24.85683   29.5    0.41074  -21.23489  0.98689 
   -6.35642    0.007  2.82684     14.32796  1.95881  1.22259  3.37305  0.14018     0.01319  7602.10533   6340.34679  0.34771         5585.26839     16.62846    2e-05  58693.02358  1.16284   0.0236   320981.97245  46.15175  18.32216   58732.0558    51.04636       44.54291   18.88955  24.37877   30.0    0.39054  -21.20569  0.99918 
   -7.22045  0.04139  3.10304     14.11655  1.71673  1.37861  2.45764  0.17778     0.01072  7280.85038   6291.35426  0.37901         5676.40086     17.93322  0.00048  58692.15955  0.77716  0.10172   897400.73542  45.56699  18.33543   58732.0558    51.06429       44.55089   18.11579  25.15253   30.5    0.40519  -21.20987  0.99477 
   -5.55432  0.19615  2.79628     14.49379  2.08091  0.87742  4.42629   0.1161      0.0102  8140.10587   6320.19806  0.32849         4842.31815     18.31282  0.00114  58693.82568  1.74955  0.86823   155474.02163  46.50228   18.3488   58732.0558    51.02618       44.49861   20.51958   25.9714   29.5    0.39293  -21.19772  0.97382 
   -6.95792  0.00454  3.35074     14.32026  1.71506  0.72007    4.294  0.14288     0.01167  9301.94181   6067.56117  0.72049         2673.85757     17.91969  0.00046  58692.42208  2.21634  0.01949   409124.60707  45.84099  18.33131   58732.0558    51.01518       44.49627   22.21008  24.34819   29.5    0.38318  -21.19982  0.99882 
   -7.43062  0.22064  2.96068     14.17385  1.76865  1.52897   2.7561  0.19698     0.01486  8623.02661   6132.36427  0.22541         4614.79202     19.72905  0.02977  58691.94938  1.22248   0.6081   646466.19504  45.76316  18.32549   58732.0558    51.00693       44.48987   21.63416  24.85683   30.0    0.41719  -21.22721  0.97345 
   -6.48953  0.00315  2.76627     14.29406  1.68864  0.84055  3.32327  0.12497     0.01189  7447.32155   6358.43546  0.33759         5776.42533      17.9465  0.00049  58692.89047  1.09949  0.01048   309758.14644  46.12157  18.33588  58730.51146    51.03015       44.51672   21.29334  24.44071   30.5    0.40354  -21.20301  0.99956 
   -7.59095  0.00404  2.60283     14.07663  1.64154  1.48848  3.80889   0.1309     0.01145  8884.71137   6405.17054  0.13988         4742.72123     20.28545   0.1072  58691.78905  1.79354  0.01538   725616.17393   45.7925  18.34504  58730.51146    50.89833       44.35113   21.64233    26.783   30.0    0.40603  -21.30761   0.9994 
   -6.55632  0.02842  2.90146     14.17374  1.81001  1.44235  3.08074  0.13787     0.01044  7522.38276   6390.71863  0.30167         5997.92114     19.76684  0.03248  58692.82368   1.0399  0.08757   635696.10773  45.79805  18.33633     58732.37    51.05632       44.53212   16.82657  26.50369   30.5    0.39664  -21.24092  0.99637 
   -7.60273  0.01344  2.78633     14.04558   1.5016   1.5377  2.77859  0.20207       0.017  8961.21301   5860.24098  0.11203         5304.24374     16.03218    1e-05  58691.77727  1.33102  0.03735    877566.4031  45.61206  18.33301   58732.0558     51.0401       44.52842   18.88955  24.44071   29.5    0.41026  -21.20178   0.9981 
   -6.43177  0.16116  2.88348     14.19429  1.67187  1.04406  2.45619  0.17583     0.01039  7081.68946   6568.11549  0.45858         5782.86103     19.45468  0.01583  58692.94823  0.73479  0.39584   527568.99771  45.84994  18.34423   58732.0558    51.05532       44.53421   16.82657  26.50369   30.0    0.41319  -21.24521  0.98199 
    -7.4169  0.10855  2.80281     14.13232  1.53446  0.92063  1.95041  0.26241     0.01679    8329.809   6172.41802  0.19508         5974.66004     18.92928  0.00472   58691.9631  0.80728  0.21171   608578.46988   45.7753  18.33562   58732.0558    51.03373       44.51669   18.11579   25.9714   30.0     0.4101  -21.22094  0.98955 
   -6.88466  0.20822  3.42482     14.41752  2.09038  0.93472   2.2109  0.27961     0.02748  9533.04994   6145.70093  0.18563         3396.44603     18.24033  0.00097  58692.49534  1.19856  0.46036    332866.1595  45.99753  18.36049   58732.0558    50.95917       44.42026    19.9495  26.65241   29.0     0.3938  -21.20807  0.97898 
   -6.22723  0.24954  2.79113     14.26377   1.6993  0.94144  2.04774  0.21552     0.01611  7508.59212   6448.90122  0.33955          5926.4786     18.21546  0.00091  58693.15277  0.68868    0.511   364838.90985  46.04545  18.33787   58732.0558    51.05639       44.55132   18.11579  25.15253   30.0     0.3987  -21.21604  0.97886 
   -7.10974  0.10564  3.36232     14.20851   1.7216  1.09268  3.45381  0.17466     0.01397   9030.9297   6059.23319  0.45719         3315.28487      17.6324  0.00024  58692.27026  1.68031  0.36485   691828.68409   45.6115  18.33995   58732.0558    51.01085       44.48318   18.11579  26.78722   30.0    0.39304  -21.18245  0.97843 
   -5.89584  0.00325  2.61764     14.42309  1.76341  0.69268  2.79184  0.15534     0.01734   7778.5734   6114.32768  0.29454         5408.04297     17.29777  0.00011  58693.48416  1.00767  0.00908   159885.32614  46.47557  18.31207  58730.51146    50.99988       44.48021   19.23036  25.67264   30.0    0.40196  -21.19018  0.99968 
   -7.03008  0.02846  2.99662     14.15663   1.6597  1.32564  2.80412  0.18986     0.01877  8807.96166   6008.09119  0.23172         4001.14036     18.52744  0.00187  58692.34992   1.2977   0.0798   672725.33313  45.70777  18.33656   58732.0558    51.05085       44.53705   18.88955  24.44071   30.0    0.39236  -21.17987  0.99598 
   -6.87302  0.14496  3.22031     14.29664  2.04504  1.27918  3.17659  0.15333     0.01004  7757.70119   6511.42676  0.30983         5152.39452     17.11522    7e-05  58692.50698  1.14039  0.46049   502391.25121  45.86271   18.3221   58732.0558    51.02143        44.5049   18.88955  25.19765   30.0    0.40919  -21.19245  0.98074 
   -7.89861  0.00145  3.53792      14.1291  1.82947  1.53277    1.803  0.30812     0.02629   9299.1117   5828.11217  0.30503         2820.74867     19.38395  0.01345  58691.48139  0.93005  0.00261   1173388.5539  45.36423  18.36039   58732.0558    51.12374       44.62076   14.42361  26.96002   30.5    0.40348  -21.20766  0.99984 
   -6.86007  0.00225  2.99975     14.05595  1.59565  1.44036  1.49117  0.28502     0.01661  7181.36003   6384.10465  0.47693         4890.88792     19.05732  0.00634  58692.51993  0.45874  0.00336  1030417.77638   45.5046  18.33011   58732.0558    51.00036       44.48272   19.23036  25.67264   30.5    0.40978  -21.19635  0.99982 
   -6.79127  0.01648  3.34422     14.28613  2.05783  1.41176  2.06054  0.23678       0.018  7798.83996   6258.49743  0.42012         4643.80737     19.75284  0.03145  58692.58873   0.7476  0.03396   572208.02087  45.77611  18.31062   58732.0558    51.00217       44.48355    19.9495  24.95351   30.0    0.38237   -21.2137  0.99845 
   -6.83444  0.41543  2.27138     14.23977  1.48486  0.84148  2.22974  0.22013     0.01394  7395.02433   6541.55751  0.34767         5578.72293       16.266    1e-05  58692.54556  0.72738  0.92629   235800.08314  46.35541  18.33994   58732.0558    50.93799       44.40552   20.67256  26.12621   30.0    0.39937  -21.20256  0.96937 
   -6.28263  0.00201   3.1861       14.274  1.97425  1.45642  3.29432  0.14955     0.01106  7589.06747   6513.02622  0.39151         5423.96818     17.63185  0.00024  58693.09737   1.1318  0.00663   526899.69994    45.836   18.3246  58730.51146    51.03702       44.52469   16.82657  26.44175   29.5    0.39485  -21.20916  0.99971 
   -7.75852  0.14145   2.3594     13.99231   1.3601  1.13106  3.04192  0.19494     0.01252   9018.0955   6223.14452  0.19482         3829.52337     20.26881  0.10317  58691.62148  1.47572  0.43026   728408.66928  45.79444  18.33041   58732.0558    51.04952       44.53605   16.82657  26.44175   29.5    0.41152  -21.28495  0.98212 
   -7.21711  0.05534  3.37899      14.1946  1.82143  1.19183  2.87233  0.18358     0.01527  8887.96041   5985.12274  0.25495         3999.49473     18.47906  0.00167  58692.16289  1.35352  0.15894   788124.53605  45.57509   18.3511   58732.0558    51.01726       44.50352   22.21008  24.34819   29.5    0.41318  -21.20683  0.99116 
   -7.02346  0.02496  3.16605     14.15478  1.82533  1.48621  2.41018  0.18021     0.01008  7079.66485   6394.43285  0.38987         5763.91123     18.05894  0.00064  58692.35654  0.72061  0.06017   832973.63188  45.60852  18.36346   58732.0558    51.02684       44.50638   21.29334  25.19765   30.0    0.39766   -21.2016  0.99706 
   -6.61375  0.08228  2.29163     14.12412   1.3829  0.99852  2.25813   0.2516     0.02408  8768.47564   6258.48629  0.30659         4075.52712     20.04635  0.06181  58692.76625  1.03568  0.18579   380764.17606  46.10869  18.34402   58732.0558    51.02275       44.50745   18.11579   25.9714   30.0    0.38566  -21.24895  0.99285 
    -5.6782  0.06549  2.13981     14.20151  1.42405  0.98124  2.72469  0.17787     0.01819  7753.07341   6355.16324  0.36112         5516.25889     16.11786    1e-05   58693.7018  0.97699  0.17843   239364.77572  46.38256  18.33674   58732.0558    51.00735       44.47918   22.21008  25.15559   29.5    0.38195  -21.20933  0.99431 
   -8.07796  0.01352  3.43372     14.07582  1.78313  1.52773  2.72119   0.1947     0.01158  8656.46805    5849.6321  0.26239         3773.45879     17.40789  0.00014  58691.30204  1.21637  0.03678  1376881.42016   45.3096  18.33587  58730.51146    51.05985        44.5594   16.82657   25.3851   30.5    0.39916  -21.18117  0.99779 
   -6.04985  0.24756  2.81482     14.30456  1.81655  1.04345  2.97353  0.15439     0.01085  7506.68573   6466.49732   0.3752         5717.32777     17.77708  0.00033  58693.33015  0.99953  0.73613   328734.88715  46.11235  18.34602   58732.0558    51.04274        44.5345   18.11579  25.15253   29.5     0.4121  -21.22029  0.97224 
   -6.39823  0.31969  2.54976     14.10206  1.49541  1.33726  1.95099  0.23918     0.01803  7782.63104    6354.8128  0.31182          5856.8418     18.91283  0.00455  58692.98177  0.70491  0.62371   564220.01051  45.87916  18.32165   58732.0558     51.0702       44.55916   16.82657   25.3851   30.0     0.4014  -21.22379  0.97405 
   -6.42098  0.05978  2.89633     14.22215  1.69001  1.18669  4.28889  0.10959     0.01095   8027.6842   6177.55554  0.36245         5057.45533     16.21967    1e-05  58692.95902  1.64874  0.25641   473262.01098  45.89794  18.33396   58732.0558    51.02911       44.51638   22.21008  24.34819   30.0    0.38739  -21.20168  0.98838 
   -6.56263  0.02479  2.27689     14.06796   1.4262  1.43824  3.76568  0.12463     0.01041  7546.33239   6638.45962  0.40189          5597.6532     19.92854  0.04713  58692.81737  1.27921  0.09334   502066.12836  46.00758  18.33197   58732.0558      51.032       44.51648   18.11579   25.9714   29.5    0.40102  -21.27604   0.9966 
   -6.61328  0.09376   3.4421     14.23981  1.89099   1.5047  2.16642  0.25644     0.02463  8856.14768   6023.75284  0.36336         4196.57063     18.90047  0.00442  58692.76672  1.01358  0.20313   689499.52623  45.63335  18.33173   58732.0558    51.00086       44.47053   21.63416  26.04966   30.0    0.39405  -21.21237  0.98897 
   -6.86365  0.10667  2.60299     14.29696  1.58891  0.71777  2.41638  0.18781     0.01317  7435.81497    6617.7328  0.34759         5794.67007     19.11013  0.00716  58692.51635  0.79698  0.25776   254647.96683  46.23306  18.34301   58732.0558    50.98073       44.44983   20.63051  25.49201   30.0    0.41295   -21.2262  0.98963 
    -8.0134  0.06786  2.71589     13.92069  1.28982  1.29366  1.89646  0.32815     0.02515  9535.55161   5940.99467  0.38756         2536.68586     19.57329   0.0208   58691.3666  1.02864  0.12869  1272898.24115  45.40675   18.3346   58732.0558    51.01733       44.49359   18.88955  26.01346   30.5    0.39487  -21.21839  0.99221 
   -8.44936  0.03922  3.64995     14.22109  2.01177  1.22348   3.8395   0.1483     0.01169  9366.41124   5758.54207  0.06283         4202.68353      18.3728  0.00131  58690.93064  2.00931  0.15058   899048.54534  45.49407  18.32195   58732.0558    50.98328       44.44905   22.21008  26.00505   29.5    0.42027  -21.20562  0.99157 
   -6.07921  0.21907  2.85004     14.21313   1.7237  1.23251  1.91519  0.24487     0.01958  7853.11744    6539.4255  0.31663         5856.07675     18.56711  0.00205  58693.30079  0.70457  0.41955   487214.46256  45.90788  18.33103   58732.0558    51.06539       44.54918   18.11579  25.21447   29.5    0.39311  -21.22345  0.98223 
   -6.76892  0.22769  3.13534     14.23077  1.85219  1.14028  2.36922   0.2158      0.0145  8391.36847   6240.36883  0.21549         4759.89376     16.74854    3e-05  58692.61108  0.99517  0.53944   584148.65069  45.77744  18.34834   58732.0558    51.04353       44.52585   18.11579  25.21447   29.5    0.40443  -21.19403  0.97528 
   -6.25163  0.06669  2.86417     14.15587  1.70944  1.53023   2.1943   0.1976     0.01331  7251.28731   6341.76281  0.44926         5375.14315     19.60894  0.02258  58693.12837  0.68826  0.14635    635239.7523  45.78476  18.32151   58732.0558    51.00359       44.48464   19.23036  25.67264   30.0    0.41248  -21.23395  0.99358 
   -6.10675  0.04222  2.39859     14.22343  1.71783  1.53807  3.05138   0.1484     0.01269  7221.71677   6557.28573  0.36351         5975.64832     16.93211    5e-05  58693.27325   0.9493  0.12884   327984.71988  46.22806  18.34752   58732.0558    51.02956       44.50983   18.11579   25.9714   30.0    0.38152  -21.20534  0.99609 
   -7.38481  0.06286  3.15765     14.23181  1.92793  1.18216  2.53006  0.21488     0.01157  8044.96307   6260.37989  0.22503         5762.48844     16.82955    4e-05  58691.99519   0.9768  0.15905   613767.69469   45.7672  18.30581  58730.51146    50.99669       44.48593    19.9495  24.20498   29.0    0.40046  -21.20145  0.99291 
   -6.71169  0.05668   2.8158     14.24799  1.64649  0.92537  2.78816  0.18655     0.01551  8276.59152   6246.90896  0.26055         5271.27462     17.16913    8e-05  58692.66831  1.13933  0.15803   386905.44027   45.9986  18.31433   58732.0558    51.01105       44.49244   19.80628  24.34819   29.5    0.41426  -21.20031  0.99292 
   -7.71495  0.03755  3.28808     14.09683  1.73132  1.26084  1.57671  0.30398     0.01816  8038.89977   6171.65944  0.29605          4943.5653     16.88705    4e-05  58691.66505  0.60782   0.0592  1112804.93267  45.42692  18.31326  58730.51146    51.04711        44.5399   18.11579  25.15253   30.5    0.39534  -21.19556  0.99661 
   -7.33369  0.11209  3.31538     14.29571  1.90824  0.97159  2.71276  0.19649     0.01335  8127.62385   6261.05773  0.43323         4361.32972     19.73002  0.02984  58692.04631  1.06897  0.30407   498998.81828  45.81031  18.34067   58732.0558    51.05554       44.54761   16.82657  26.44175   30.5     0.3931  -21.22813  0.98494 
   -7.76719  0.00725  3.17273     14.13034  1.77469  1.53101  2.28889  0.21694     0.01492  8015.37037   6285.93647  0.24856         5139.85957     17.81041  0.00036  58691.61281   0.8772   0.0166    910183.9583  45.55597  18.35026   58732.0558    51.04939       44.53631   18.88955  24.44071   30.0    0.39084  -21.18788  0.99915 
   -5.94677  0.00497  2.66127     14.36701  1.75376  0.80181  3.23618  0.13535     0.01164  7003.62873    6372.3759  0.44935         5962.33722     16.88385    4e-05  58693.43323   0.9469  0.01609   212788.59808  46.33469  18.32837  58730.51146    51.07957       44.57134   18.11579  25.15253   30.0    0.39192  -21.22311  0.99941 
   -6.59662  0.15374  2.79819     14.21492  1.47922  0.79164  3.52635  0.12773      0.0105  7956.33972   6189.51526  0.37268         4889.54249     18.33806  0.00121  58692.78338  1.33162  0.54215   399727.28111  45.94336  18.33779  58730.51146    51.09169       44.59322   16.82657  25.37669   30.5    0.40103  -21.19909  0.97235 
   -7.16105  0.04368  3.22941     14.22305  1.83574  1.07455  1.55436  0.33031     0.02333  8349.37019   6660.01144  0.21545          5480.7195     16.76896    3e-05  58692.21895  0.64638   0.0679   636456.64636  45.71064   18.3382   58732.0558    51.07239       44.56441   18.11579  25.15253   29.5    0.39791   -21.2079  0.99658 
   -5.38311   0.1329  2.39733     14.41103  1.63784  0.67554  3.55476  0.12584     0.01024  7285.53828   6455.11882  0.48586         4860.32257     19.18589  0.00852  58693.99689  1.12554  0.47244   131670.09273  46.60418  18.33932  58730.51146    51.03117       44.52225   18.11579  25.15253   29.5    0.40177  -21.19467  0.98479 
   -7.36089  0.07636  3.09242      14.1098  1.62794  1.13312  1.65155  0.32258     0.02175  8621.55988   6025.30516  0.26774         4423.47545      19.5655  0.02043  58692.01911   0.7323  0.12611   871887.59859  45.55943  18.33968  58730.51146    51.06198       44.55728   18.11579  24.32296   30.0    0.41387  -21.21241  0.99303 
   -6.95523   0.0114  3.37689     14.25524  1.83297   1.0677  3.34814  0.15664     0.01235  8267.60192   6308.56118  0.40704         4403.78066     18.01363  0.00057  58692.42477  1.36518  0.03818   599121.88565  45.69745  18.33922   58732.0558    51.04012       44.52672   21.63416  24.09989   30.0    0.40488  -21.19228  0.99789 
   -7.32336   0.0044  3.25776     14.17587  1.78409  1.30477  1.58581  0.29594     0.02772  8341.38609    6084.3638  0.26251         4311.94114     16.68252    3e-05  58692.05664   0.6582  0.00698    782234.2804  45.60109  18.33705  58730.51146    50.90595       44.36488   21.64233  26.43358   30.5     0.4081  -21.17091  0.99963 
   -6.66353  0.00176  2.87375     14.35195  1.80844  0.83704  1.92855  0.24669     0.02286  7857.78327   6398.25662  0.27003         5842.68643     18.60719  0.00225  58692.71647  0.71033   0.0034   274236.27204  46.17112  18.32242  58730.51146     51.0242       44.51298   21.29334  24.44071   30.0    0.38597  -21.19311  0.99986 
   -6.66333  0.00796  2.37267     14.21068  1.52037  0.93142  2.62377  0.15945     0.01205  6774.79222   6358.08675  0.45145         5595.68958     16.69028    3e-05  58692.71667  0.71836  0.02087   301217.92929  46.22144  18.33933   58732.0558    51.02277       44.49661   21.29334  25.26493   30.5    0.37585  -21.19643  0.99925 
   -7.27232  0.00418  2.90376     14.15302  1.66606  1.09388  2.23391  0.20941     0.01251  7528.68614   6407.94389  0.34226         5128.87521     17.98015  0.00053  58692.10768  0.75532  0.00934    644754.2872  45.75522  18.34639   58732.0558    51.09698       44.59764   16.82657  24.78796   30.0    0.41325  -21.18968  0.99956 
   -7.42149  0.01622  3.48343     14.11644  1.76157  1.34127  1.97008  0.27669     0.01991  9045.27212   6243.68002  0.29082         4325.66041     16.29975    1e-05  58691.95851  0.96151  0.03196   1161032.7697  45.36589   18.3146   58732.0558     50.9983       44.48071   22.35329  24.95351   29.5    0.40954  -21.23192    0.998 
   -6.67145  0.00534  3.74108     14.46758  2.12437  0.69158  2.84119  0.15627     0.01201  7818.04029   6288.06545  0.38445          5062.3777     16.93273    5e-05  58692.70855  1.03591  0.01517   320545.38365  45.94419  18.33278   58732.0558    51.06055       44.55141   16.82657  25.61218   30.5    0.39534  -21.20708  0.99917 
   -6.94428  0.14487  3.48665     14.47568   2.0734  0.61799  2.88773  0.16154     0.01037  7989.57617   6253.49354  0.27118         5260.86014     19.24398  0.00974  58692.43572  1.09959  0.41834   261793.38821  46.08275  18.33531  58730.51146    51.02938       44.51767   19.23036  24.85683   30.0     0.4195  -21.21288  0.97986 
   -7.09977  0.12589  3.06227     14.28996  1.98583  1.20466  2.15762   0.2351     0.01812  8074.23484   6126.50407  0.25805         4778.73678     19.46445  0.01619  58692.28023  0.83908  0.27162   454919.14829  45.93677  18.31957   58732.0558    51.05901         44.551   16.82657  25.61218   30.0    0.39367  -21.19947  0.98918 
   -8.08381  0.00207  2.90663     14.32153  1.67019  0.73514  4.44524  0.13494     0.01423  9446.65749   6045.34557  0.04999         4325.43917     17.45476  0.00016  58691.29619  2.36635  0.00919   298058.35629  46.09053  18.34433   58732.0558    50.95937       44.42495   20.58845  26.01346   29.0    0.40128  -21.19263  0.99957 
   -8.60567  0.01054  3.22072     14.08404  1.79222  1.42871  1.91639   0.2944     0.01402  8208.11535   6149.01157   0.2167         5244.66897     17.95458   0.0005  58690.77433  0.77019   0.0202  1172255.81461  45.43731  18.33002   58732.0558    51.04857       44.53152   20.51958  25.21447   30.5    0.38282  -21.19645  0.99894 
   -7.87175  0.03027  3.07547     14.13065  1.55694  0.91918  1.54665  0.32785     0.02611  8838.42111   6049.77578  0.17656         5090.10153     16.63681    2e-05  58691.50825  0.72072  0.04682   749224.90653  45.61068  18.34286  58730.51146    51.06533       44.56272   16.82657  25.61218   30.0    0.40538  -21.21026  0.99725 
   -7.69743  0.02566  3.16878     14.12167  1.74575  1.39584  2.52539  0.17956     0.01182  7644.75783   6169.26079  0.31296         5470.76437     18.47082  0.00164  58691.68257  0.88041   0.0648    929478.5713   45.5408  18.32784   58732.0558    51.12853       44.62913   19.23036  24.78796   30.5    0.38967  -21.19806   0.9966 
   -6.58026  0.07466  3.52563     14.21844  1.66458  0.93107  2.12622  0.29246      0.0186  8574.79005   6282.53935  1.15163         3188.93052     18.76355  0.00322  58692.79974  0.93257  0.15874   702603.64356  45.54896  18.34232   58732.0558    51.08843       44.58876   18.11579  24.32296   30.5    0.39181  -21.19293  0.98901 
   -6.92188  0.43865  2.25015     14.18597  1.57057     1.36  4.26776  0.16407     0.01013  9417.90926   6044.46943  0.06922         3691.83008     16.56581    2e-05  58692.45812  2.25807  1.87206   313581.22331  46.26413  18.34014  58732.39453    51.02206       44.49852   21.29334  25.26493   29.0    0.42099  -21.20546  0.94575 
   -6.64918  0.00759  3.22399     14.34238  1.95194  0.90049  2.05655  0.22065     0.01624  7504.94504   6190.68532  0.35243         5820.94654     17.28625  0.00011  58692.73082  0.69097  0.01561   389318.98176  45.95222  18.32545  58730.51146    51.03877        44.5314   18.88955  24.44071   30.0    0.39085  -21.21984  0.99928 
   -6.47443  0.10416  2.35202     14.23001   1.6903  1.45772  3.94244  0.13649     0.01031  7641.31462   6394.66412  0.33874         5498.17207      18.8761  0.00418  58692.90557  1.37318  0.41064   301044.64435   46.2753  18.33447   58732.0558    51.03585       44.52548   21.63416  24.09989   29.5    0.39251  -21.19858  0.98785 
   -7.66514    0.466  3.11723     14.16187  1.59234  0.90024  1.76973  0.29919     0.01858  8526.25354   6267.32152   0.2875         4421.67226     19.40788  0.01421  58691.71486  0.76745  0.82469   681792.43323  45.64969  18.32618   58732.0558    51.05288       44.53442   18.11579  25.21447   30.0    0.40125  -21.20107  0.95398 
   -6.91992  0.00143  2.54433     14.10179  1.44458  1.09407  2.31551  0.20951     0.01576  7691.97142   6390.35784  0.33012         5801.27815     16.30436    1e-05  58692.46008  0.81724   0.0033   543397.60507  45.88232  18.36064   58732.0558    51.02077       44.49483   18.88955  26.01346   29.5    0.39016  -21.21869  0.99985 
   -6.33905  0.03302   2.8874     14.29315  1.85005  1.09952  2.04818  0.22077     0.01907  7402.34469   6437.69893  0.38111         5689.49861     16.27373    1e-05  58693.04095  0.66948  0.06763   371292.29931   46.0453  18.32026  58730.51146    51.05048       44.54872   18.11579  25.15253   30.0    0.38403  -21.21159  0.99732 
   -7.71973  0.14945  3.62248     14.17873  1.95433  1.28168  3.42169  0.17067     0.01001  9105.75021   6124.72299  0.16368         5934.89704     16.50616    2e-05  58691.66027  1.69238  0.51137  1045602.16078  45.42247  18.34325  58730.51146    50.98013       44.45702   18.88955  26.01346   29.5    0.42536  -21.25136  0.97111 
   -5.92654  0.03669  2.12827     14.21931  1.24098  0.61661  2.97898  0.14962     0.01096  7092.07849   6745.34217  0.45313         5750.86905     19.11483  0.00724  58693.45346   0.8938  0.10931   190115.13405  46.42754  18.32634   58732.0558    51.03723       44.52773   18.11579  25.21447   30.0    0.40248  -21.23006  0.99572 
   -7.26861  0.18133  2.72684      14.1422   1.6462  1.46152  2.21858  0.25898     0.01668   8271.7492   6106.87817   0.2311         5208.89551     17.26064   0.0001  58692.11139  0.90552  0.40229    590489.2692   45.8428   18.3212   58732.0558    51.01044       44.49245   19.23036  24.92411   29.5    0.40897  -21.19739  0.98326 
   -6.59254  0.00357  3.26083      14.3428  1.61971  0.62415  4.26855  0.15135     0.01204  9432.31266   6082.80535  0.56691         3219.31484     16.49556    2e-05  58692.78746  2.26539  0.01523   329842.31594  45.93332  18.32842   58732.0558    51.05496       44.54879   18.11579  24.32296   29.5     0.3956  -21.21745  0.99905 
   -6.23746  0.15224    2.723     14.30683   1.6753  0.84188  3.36648  0.14378     0.01196  8029.61733   6282.68765  0.29421          5488.3259      18.6622  0.00255  58693.14254  1.29477  0.51251   280762.06673   46.1745  18.30833  58730.51146    51.04274       44.53663   19.23036  24.09989   29.5    0.39917  -21.21392   0.9794 
   -7.16312  0.08994  2.85024     14.25653   1.8871  1.47748  2.44418   0.2013     0.01569  7519.56269   6338.35045  0.30248         5924.30804     17.25508   0.0001  58692.21688  0.82441  0.21982   436832.45631  45.99456  18.34673   58732.0558    51.06512       44.55737   16.82657  26.44175   30.0    0.37887  -21.19156  0.99181 
   -7.00731  0.00955  3.45066     14.09182   1.5893  1.11086  2.32564  0.26369     0.01677   9045.2073    6393.6458  0.86466         3115.11268     16.66706    3e-05  58692.37269  1.13503   0.0222  1151279.45175  45.33307  18.33317   58732.0558    50.99889       44.47659   18.88955  26.01346   30.5    0.40239  -21.20378   0.9984 
   -7.21191  0.00523  3.56697     14.17466   1.9365   1.3786  1.93635  0.22658      0.0155   7927.1027   6325.51769  0.32727         5366.11251     17.84304  0.00039  58692.16809  0.72584  0.01013  1023535.42415  45.44116  18.32693   58732.0558    51.06215       44.55205   18.11579  25.15253   30.0    0.41143  -21.22355  0.99942 
   -6.49526  0.06977  2.61635     14.25961  1.57556  0.80665  2.22146  0.20203      0.0185   7878.5238   6472.03508  0.27285         5731.98438     19.35561   0.0126  58692.88474  0.82254    0.155   302989.57509  46.14946  18.33851  58730.51146    51.05186       44.54564   18.11579  24.32296   30.0     0.4009  -21.21351  0.99359 
   -7.08961  0.21721  2.47565     14.19007  1.56384  0.98125  2.33973  0.20618     0.01212  7346.07077   6472.92991  0.29759         5790.94702     17.50472  0.00018  58692.29039  0.75319  0.50822   370889.62642  46.10642  18.33794   58732.0558    51.04791       44.52927   21.29334  25.19765   30.0    0.39337  -21.18087  0.98124 
    -7.0273  0.11819   2.5553     14.18484  1.58705  1.29331  4.94059  0.12655      0.0135  9657.38502   6235.32243   0.0451         4651.59121     18.47965  0.00168   58692.3527  2.74869  0.58393    410775.2051  46.04095  18.34143   58732.0558    51.07177        44.5689   18.11579  24.32296   29.0    0.39666    -21.207  0.97767 
   -6.03962  0.02145  3.49335     14.24805  1.81156  1.16868  2.56834  0.21058     0.02025   8736.4167   5995.15158  0.54038         3878.02914     17.93229  0.00048  58693.34038  1.16936  0.05509   655022.40616  45.62416  18.32926   58732.0558    51.04992        44.5388   19.23036  24.85683   29.5    0.39964  -21.20329  0.99669 
   -8.27722  0.20777  2.96866     14.06301  1.58192  1.36475  3.10313  0.20419      0.0125  9287.72682   6062.11818  0.10719         4220.20607     19.06853  0.00651  58691.10278  1.59678  0.64472   968492.66064  45.53681  18.34503   58732.0558    51.05759       44.54514   18.11579  25.15253   29.5    0.41757   -21.2044  0.96665 
    -6.1178  0.02893  2.32239     14.12589  1.46945  1.18759  2.67939  0.16325     0.01229  6964.98968   6459.05033  0.43386         5974.73632     16.48656    2e-05   58693.2622  0.77536   0.0775   412144.59443  46.08908  18.31807   58732.0558    51.03478        44.5168   21.29334  25.19765   30.0     0.3738  -21.22792   0.9972 
   -6.26369  0.13589  3.04599     14.13928  1.61961  1.34005  1.71272  0.31258     0.02846  8905.23879   6149.31692  0.34652         4088.64381     19.23624  0.00957  58693.11631  0.81022  0.23275   734733.51477  45.64467  18.32759   58732.0558    51.12558       44.63962   16.82657  24.03796   29.5    0.40543  -21.21817  0.98753 
   -6.53774  0.03301  3.36623     14.36685  2.17094  1.05509     2.52  0.16201     0.01034  6733.82692   6485.13047  0.47194         5689.45562      16.2313    1e-05  58692.84226  0.68164  0.08318   421748.52946  45.92615   18.3374   58732.0558    51.03484       44.52032   18.88955  24.44071   30.5     0.3948  -21.22168  0.99647 
   -6.80296  0.01215  2.99823     14.30757  1.84714  0.92526  3.13796  0.13817     0.01167  7577.18236   6460.43884  0.32082         5268.98923     19.15986  0.00803  58692.57704  1.07471  0.03811   374027.45516  46.00871  18.33882   58732.0558    51.03507       44.51946   18.11579  25.21447   30.0    0.40816  -21.18905  0.99836 
   -6.60583  0.36894   2.7851     14.28982  1.75045  1.01233  2.38283  0.21606     0.01416  7795.97871   6426.46126  0.37994         4883.55798     16.99025    5e-05  58692.77417   0.8639  0.87911   331901.99533   46.1013  18.32205  58730.51146    51.03267       44.51604   18.11579  25.21447   29.5    0.38652  -21.19286   0.9659 
