# Wavelength Flux
# STATUS = PUBLIC
# OBJECT = 2019aamp
# TELESCOPE = P200
# INSTRUMENT =
# DATE-OBS = 2019.0427
# MJD =
# EXPTIME =
# SLIT =
# DISPERSER =
# SOURCE = 2023ApJ...943...41C
# FILTER =
# FLUX_STANDARD =
# EXTINCTION_CORRECTED = False
# PHOTOMETRY_CALIBRATED =
# FLUX_UNITS = erg/s/cm^2/Angstroms
# QUALITY =
# MIN_WAVE =
# MAX_WAVE =
# COMMENT =
3100.197 -4.478e-16
3101.239 1.033e-16
3102.282 -4.445e-16
3103.324 -7.026e-17
3104.368 2.96e-16
3105.411 1.732e-16
3106.454 3.782e-16
3107.496 6.301e-16
3108.539 1.992e-17
3109.583 2.739e-17
3110.626 2.397e-16
3111.669 7.382e-17
3112.712 5.829e-16
3113.756 1.746e-16
3114.8 -9.659e-16
3115.843 4.808e-16
3116.886 3.684e-16
3117.93 -1.716e-16
3118.974 3.707e-16
3120.017 1.356e-16
3121.061 -1.866e-16
3122.106 -3.859e-17
3123.149 8.732e-17
3124.193 -3.729e-16
3125.237 1.878e-17
3126.282 2.693e-17
3127.325 -1.909e-16
3128.37 1.275e-16
3129.415 -2.375e-16
3130.459 4.046e-16
3131.503 -2.505e-16
3132.548 7.295e-17
3133.593 -7.843e-17
3134.638 2.165e-16
3135.682 8.928e-17
3136.727 -2.852e-16
3137.772 -2.121e-16
3138.817 5.532e-17
3139.861 3.003e-17
3140.906 -1.935e-16
3141.952 2.853e-17
3142.997 -5.573e-17
3144.042 -7.903e-17
3145.087 -1.027e-16
3146.133 -1.715e-16
3147.178 -8.431e-17
3148.223 3.677e-17
3149.269 -2.355e-16
3150.315 -9.067e-17
3151.36 1.063e-16
3152.406 2.096e-16
3153.452 -2.747e-17
3154.498 8.065e-17
3155.543 -8.022e-17
3156.59 -2.181e-16
3157.636 -1.512e-16
3158.682 -2.243e-17
3159.728 -4.117e-18
3160.774 1.502e-16
3161.821 1.777e-17
3162.867 3.259e-17
3163.913 -1.299e-16
3164.96 -9.092e-17
3166.007 -8.699e-17
3167.053 1.774e-16
3168.1 -1.098e-16
3169.147 -3.733e-17
3170.194 -1.23e-16
3171.24 2.849e-17
3172.287 -5.871e-18
3173.334 -8.154e-17
3174.382 -5.742e-17
3175.428 4.84e-17
3176.476 -3.429e-17
3177.523 -4.48e-17
3178.571 1.378e-16
3179.617 2.951e-17
3180.665 -1.013e-16
3181.713 -2.556e-17
3182.759 -1.488e-16
3183.807 8.383e-19
3184.855 -1.448e-16
3185.903 -1.083e-17
3186.95 -5.826e-17
3187.998 -4.743e-17
3189.047 -4.535e-17
3190.095 -5.583e-17
3191.142 -5.135e-18
3192.191 -3.231e-17
3193.239 1.905e-17
3194.287 -1.306e-16
3195.335 -1.85e-18
3196.384 -4.384e-17
3197.432 1.14e-16
3198.48 8.051e-17
3199.529 6.648e-17
3200.578 -5.532e-17
3201.627 -9.604e-17
3202.674 5.278e-17
3203.724 -4.333e-17
3204.773 6.655e-17
3205.822 5.493e-17
3206.87 -6.148e-17
3207.919 -8.322e-17
3208.969 1.118e-16
3210.018 1.265e-18
3211.066 -6.869e-17
3212.116 3.799e-17
3213.166 5.792e-17
3214.215 1.626e-17
3215.264 1.699e-16
3216.314 -8.242e-17
3217.363 -3.941e-17
3218.412 2.401e-17
3219.462 1.463e-16
3220.512 -9.833e-18
3221.562 4.069e-17
3222.611 -9.018e-17
3223.662 1.272e-16
3224.712 3.567e-17
3225.762 1.579e-16
3226.812 3.319e-16
3227.862 -5.044e-17
3228.912 1.698e-16
3229.963 9.85e-17
3231.013 -4.693e-17
3232.063 -6.069e-17
3233.114 -6.732e-17
3234.164 -6.239e-17
3235.214 -1.007e-16
3236.265 6.035e-17
3237.316 4.724e-17
3238.366 4.434e-17
3239.417 8.72e-17
3240.469 4.075e-17
3241.52 7.155e-17
3242.57 -2.922e-17
3243.621 7.397e-18
3244.673 -5.931e-17
3245.724 -3.636e-17
3246.775 1.685e-16
3247.826 -3.778e-17
3248.878 -1.073e-17
3249.928 1.41e-16
3250.98 8.228e-17
3252.032 -1.797e-19
3253.084 -3.297e-17
3254.135 6.388e-17
3255.187 1.795e-16
3256.239 -8.321e-17
3257.291 1.18e-16
3258.342 4.029e-17
3259.394 -1.473e-17
3260.446 8.309e-18
3261.498 1.731e-17
3262.55 2.172e-17
3263.602 5.49e-17
3264.655 3.143e-17
3265.706 1.023e-16
3266.759 -3.683e-19
3267.811 -5.721e-17
3268.864 9.414e-17
3269.916 -4.678e-18
3270.969 -1.275e-17
3272.022 4.74e-17
3273.075 5.776e-18
3274.127 -9.899e-17
3275.18 -3.378e-17
3276.233 -2.447e-17
3277.286 4.15e-17
3278.338 2.215e-17
3279.391 7.015e-17
3280.445 -1.533e-17
3281.497 3.252e-18
3282.551 1.02e-16
3283.604 5.737e-17
3284.658 4.691e-17
3285.71 4.609e-17
3286.764 2.328e-17
3287.818 1.347e-17
3288.872 -4.74e-18
3289.924 -8.967e-18
3290.978 7.978e-18
3292.032 3.651e-17
3293.086 5.447e-17
3294.139 2.732e-18
3295.193 8.815e-17
3296.248 3.371e-17
3297.301 9.565e-17
3298.355 -2.654e-17
3299.41 1.275e-16
3300.464 1.272e-16
3301.518 3.716e-17
3302.572 4.27e-17
3303.627 9.104e-17
3304.681 5.358e-17
3305.735 1.517e-16
3306.79 1.255e-17
3307.845 1.961e-17
3308.898 5.501e-17
3309.953 1.131e-17
3311.008 -1.702e-17
3312.063 2.372e-17
3313.117 1.629e-17
3314.173 -1.22e-17
3315.228 -2.027e-17
3316.283 -3.166e-17
3317.337 1.676e-16
3318.393 1.097e-16
3319.448 -7.737e-18
3320.504 5.247e-17
3321.558 5.163e-17
3322.614 2.774e-17
3323.67 4.541e-17
3324.724 1.051e-17
3325.78 5.393e-17
3326.836 5.983e-17
3327.892 -2.729e-17
3328.947 1.532e-17
3330.003 5.745e-17
3331.059 4.467e-17
3332.115 5.427e-17
3333.17 3.279e-17
3334.226 7.537e-17
3335.282 4.71e-17
3336.338 1.669e-17
3337.394 -9.1e-18
3338.45 -1.313e-17
3339.507 6.908e-17
3340.562 2.802e-17
3341.619 5.383e-17
3342.676 -4.972e-17
3343.732 1.6e-17
3344.788 1.297e-17
3345.845 3.248e-17
3346.902 3.833e-17
3347.959 -1.345e-17
3349.015 4.511e-17
3350.072 5.033e-18
3351.129 3.823e-17
3352.185 -3.285e-17
3353.242 3.245e-17
3354.299 4.266e-17
3355.357 -2.199e-17
3356.413 4.291e-17
3357.47 4.896e-17
3358.528 -6.286e-17
3359.585 5.479e-17
3360.642 -9.206e-18
3361.7 5.002e-17
3362.757 8.886e-19
3363.814 2.396e-17
3364.872 4.083e-17
3365.93 9.021e-17
3366.988 8.809e-17
3368.045 2.766e-17
3369.103 -9.162e-18
3370.161 3.718e-17
3371.219 2.845e-17
3372.276 5.583e-18
3373.334 1.947e-17
3374.392 -1.438e-17
3375.451 -2.523e-17
3376.508 9.37e-17
3377.566 3.518e-17
3378.625 5.549e-17
3379.682 4.137e-17
3380.741 4.023e-17
3381.8 -5.475e-19
3382.858 6.321e-17
3383.916 3.213e-17
3384.975 6.999e-17
3386.034 -6.022e-19
3387.093 -3.384e-17
3388.151 7.528e-17
3389.21 -1.229e-17
3390.269 3.665e-17
3391.327 6.173e-17
3392.386 1.175e-16
3393.445 4.191e-17
3394.504 6.659e-18
3395.563 2.844e-17
3396.622 3.587e-17
3397.682 -8.566e-18
3398.741 2.826e-17
3399.8 3.59e-17
3400.859 -2.697e-18
3401.919 4.041e-17
3402.978 -1.914e-17
3404.037 2.555e-17
3405.097 1.638e-17
3406.157 4.154e-17
3407.216 6.295e-17
3408.276 -2.855e-18
3409.336 3.736e-17
3410.396 4.618e-17
3411.455 2.536e-17
3412.515 3.083e-17
3413.575 1.027e-17
3414.635 2.204e-17
3415.695 -4.154e-17
3416.755 3.095e-17
3417.816 9.209e-17
3418.875 2.695e-17
3419.936 5.49e-17
3420.996 4.218e-17
3422.057 -8.172e-18
3423.117 4.127e-17
3424.177 -2.142e-17
3425.238 -1.444e-17
3426.299 1.43e-17
3427.359 2.729e-17
3428.42 1.439e-17
3429.481 3.929e-17
3430.541 6.765e-18
3431.602 3.209e-17
3432.663 -6.694e-18
3433.724 5.462e-17
3434.784 2.513e-17
3435.846 6.031e-17
3436.907 2.509e-17
3437.968 2.402e-17
3439.029 6.691e-18
3440.09 6.047e-17
3441.152 -4.916e-17
3442.212 4.492e-17
3443.274 -1.161e-17
3444.336 1.464e-17
3445.397 2.185e-17
3446.458 -1.408e-17
3447.52 5.365e-17
3448.582 -4.393e-18
3449.644 3.524e-17
3450.705 9.695e-17
3451.767 -1.338e-17
3452.829 7.09e-18
3453.89 2.8e-17
3454.952 5.39e-17
3456.015 1.723e-17
3457.077 1.688e-17
3458.138 1.597e-18
3459.201 2.275e-17
3460.263 5.596e-17
3461.326 3.202e-17
3462.387 1.372e-17
3463.45 6.216e-17
3464.512 6.588e-17
3465.574 1.12e-17
3466.637 1.478e-18
3467.7 2.677e-17
3468.762 1.957e-17
3469.824 -7.372e-18
3470.887 1.991e-17
3471.95 4.789e-17
3473.013 2.814e-17
3474.075 3.378e-17
3475.138 1.987e-17
3476.202 4.337e-17
3477.264 3.378e-17
3478.327 -6.632e-18
3479.39 -1.412e-18
3480.454 2.42e-17
3481.516 4.073e-17
3482.58 -3.651e-18
3483.643 2.734e-17
3484.707 4.899e-17
3485.769 4.845e-17
3486.833 1.318e-17
3487.897 2.726e-17
3488.96 2.284e-17
3490.023 3.733e-17
3491.087 -3.069e-17
3492.151 2.323e-17
3493.214 2.638e-17
3494.278 -4.395e-18
3495.342 4.492e-17
3496.406 1.23e-17
3497.47 4.743e-17
3498.534 5.483e-17
3499.598 1.029e-17
3500.661 5.971e-17
3501.726 4.187e-17
3502.79 4.595e-17
3503.854 2.31e-17
3504.918 2.148e-17
3505.982 6.77e-18
3507.047 3.372e-17
3508.112 8.601e-17
3509.175 1.138e-16
3510.24 5.003e-17
3511.305 6.738e-17
3512.369 3.135e-17
3513.434 2.211e-17
3514.498 3.618e-17
3515.563 1.003e-17
3516.627 4.477e-17
3517.693 3.458e-17
3518.758 1.07e-17
3519.823 8.608e-18
3520.887 3.928e-17
3521.952 5.258e-17
3523.018 3.547e-17
3524.082 3.904e-17
3525.147 4.358e-17
3526.213 1.556e-17
3527.278 3.038e-17
3528.343 3.041e-17
3529.408 4.458e-17
3530.474 5.12e-17
3531.54 3.206e-17
3532.604 5.231e-17
3533.67 5.096e-17
3534.736 8.573e-17
3535.801 2.947e-18
3536.867 2.543e-17
3537.933 2.245e-17
3538.999 4.519e-17
3540.064 2.943e-17
3541.13 3.999e-17
3542.196 3.256e-17
3543.261 5.677e-17
3544.327 4.796e-17
3545.394 2.762e-17
3546.46 1.768e-17
3547.525 6.45e-17
3548.592 1.1e-17
3549.658 3.692e-17
3550.725 4.037e-17
3551.79 3.55e-17
3552.857 8.927e-18
3553.923 4.806e-17
3554.989 7.134e-17
3556.056 3.269e-17
3557.123 5.386e-17
3558.189 3.411e-17
3559.255 5.915e-17
3560.322 3.658e-17
3561.389 2.973e-17
3562.456 3.041e-17
3563.522 2.884e-17
3564.589 4.53e-17
3565.657 2.374e-17
3566.723 4.639e-17
3567.79 3.932e-17
3568.857 2.041e-17
3569.925 9.777e-18
3570.991 3.512e-17
3572.058 2.488e-17
3573.126 4.186e-17
3574.193 1.682e-17
3575.26 3.685e-17
3576.327 6.317e-17
3577.395 4.32e-17
3578.462 -1.122e-18
3579.529 3.498e-17
3580.597 6.073e-17
3581.665 7.742e-17
3582.732 1.863e-17
3583.8 3.631e-17
3584.868 5.548e-17
3585.935 5.269e-17
3587.003 2.351e-17
3588.071 6.066e-17
3589.139 4.535e-17
3590.206 5.35e-17
3591.274 5.032e-17
3592.343 8.341e-18
3593.411 4.349e-17
3594.478 5.089e-17
3595.547 7.14e-17
3596.615 3.965e-17
3597.683 3.775e-17
3598.751 5.708e-17
3599.82 3.746e-17
3600.888 2.987e-17
3601.956 5.086e-17
3603.025 1.455e-17
3604.093 1.779e-17
3605.162 3.194e-17
3606.23 4.019e-17
3607.299 4.506e-17
3608.368 1.697e-17
3609.436 -6.307e-18
3610.505 3.136e-17
3611.574 4.794e-18
3612.643 2.436e-17
3613.711 5.039e-17
3614.78 4.37e-17
3615.849 5.975e-17
3616.919 4.097e-17
3617.987 1.213e-17
3619.056 1.336e-17
3620.126 3.892e-17
3621.194 2.515e-17
3622.264 3.62e-17
3623.333 2.954e-17
3624.403 3.707e-17
3625.471 1.841e-17
3626.541 3.07e-17
3627.611 2.728e-17
3628.68 2.518e-17
3629.749 1.392e-17
3630.819 9.016e-18
3631.889 2.702e-17
3632.958 3.948e-17
3634.028 -1.339e-17
3635.098 3.951e-17
3636.168 4.001e-17
3637.237 1.666e-17
3638.307 3.157e-17
3639.377 4.218e-17
3640.446 2.433e-17
3641.517 1.248e-17
3642.587 9.378e-18
3643.657 4.612e-17
3644.727 2.121e-18
3645.797 4.006e-17
3646.867 7.286e-18
3647.937 2.334e-17
3649.008 -2.634e-18
3650.078 6.836e-18
3651.149 2.095e-17
3652.218 1.003e-17
3653.289 -1.404e-17
3654.36 6.325e-17
3655.431 2.204e-17
3656.5 2.133e-17
3657.571 2.144e-17
3658.642 2.227e-17
3659.712 3.345e-17
3660.783 1.813e-17
3661.854 3.724e-17
3662.925 3.91e-17
3663.995 1.29e-17
3665.067 -2.431e-18
3666.138 1.113e-17
3667.209 4.175e-17
3668.279 2.732e-17
3669.351 9.359e-18
3670.422 2.115e-17
3671.492 3.577e-17
3672.564 2.272e-17
3673.635 1.649e-17
3674.707 2.372e-17
3675.777 -5.687e-19
3676.849 3.465e-17
3677.921 4.597e-17
3678.991 1.102e-17
3680.063 1.941e-18
3681.135 2.471e-17
3682.207 2.433e-17
3683.278 1.897e-17
3684.349 1.277e-17
3685.421 2.157e-17
3686.493 1.867e-17
3687.564 2.523e-17
3688.636 2.168e-17
3689.708 1.816e-17
3690.78 1.956e-17
3691.852 2.536e-17
3692.924 2.269e-17
3693.996 1.412e-17
3695.068 2.706e-17
3696.14 2.038e-17
3697.212 2.354e-17
3698.284 1.111e-17
3699.356 2.981e-17
3700.429 1.781e-17
3701.501 2.938e-17
3702.573 1.635e-17
3703.645 1.867e-17
3704.718 6.09e-18
3705.791 8.712e-18
3706.862 -9.692e-18
3707.935 1.794e-17
3709.008 8.029e-18
3710.08 2.066e-17
3711.153 1.926e-17
3712.226 3.311e-17
3713.299 1.56e-17
3714.371 4.636e-17
3715.444 1.155e-17
3716.517 1.659e-17
3717.589 1.31e-17
3718.662 2.892e-17
3719.735 2.555e-17
3720.808 1.475e-17
3721.881 6.04e-18
3722.954 1.646e-17
3724.027 2.881e-17
3725.101 2.294e-17
3726.173 3.08e-17
3727.247 7.518e-18
3728.32 2.138e-17
3729.393 7.732e-18
3730.466 2.916e-17
3731.54 4.231e-17
3732.614 3.319e-18
3733.686 1.947e-17
3734.76 1.288e-17
3735.834 8.274e-18
3736.907 4.129e-17
3737.98 1.88e-17
3739.054 4.121e-17
3740.128 2.774e-17
3741.201 3.494e-17
3742.275 8.393e-18
3743.349 1.896e-17
3744.423 5.192e-17
3745.496 2.302e-17
3746.571 4.749e-17
3747.645 2.855e-17
3748.718 4.309e-17
3749.792 1.703e-17
3750.867 3.535e-17
3751.941 6.725e-18
3753.014 1.042e-17
3754.089 2.414e-17
3755.163 4.945e-17
3756.237 3.891e-17
3757.311 1.232e-17
3758.386 1.633e-17
3759.46 3.124e-17
3760.534 3.251e-17
3761.609 3.396e-17
3762.683 7.887e-18
3763.757 4.359e-17
3764.832 1.242e-17
3765.907 3.1e-17
3766.982 3.414e-17
3768.055 4.433e-17
3769.13 2.208e-17
3770.205 3.083e-17
3771.28 3.884e-17
3772.354 3.739e-17
3773.429 3.142e-17
3774.505 1.81e-17
3775.579 2.121e-17
3776.654 3.035e-17
3777.729 5.238e-17
3778.804 3.005e-17
3779.879 2.053e-17
3780.954 1.426e-17
3782.029 3.34e-17
3783.104 1.076e-17
3784.179 4.917e-18
3785.255 5.502e-17
3786.33 1.867e-17
3787.405 3.154e-17
3788.48 3.07e-17
3789.556 2.068e-17
3790.632 3.027e-17
3791.706 4.727e-17
3792.782 3.16e-17
3793.858 3.368e-17
3794.933 2.812e-17
3796.008 3.506e-17
3797.084 3.927e-17
3798.16 3.834e-17
3799.235 4.099e-17
3800.311 2.598e-17
3801.387 3.522e-17
3802.462 3.598e-17
3803.538 5.955e-17
3804.614 5.872e-17
3805.691 4.21e-17
3806.766 4.686e-17
3807.842 4.055e-17
3808.918 4.882e-17
3809.994 5.076e-17
3811.07 3.264e-17
3812.146 3.928e-17
3813.223 5.748e-17
3814.298 5.654e-17
3815.375 5.387e-17
3816.451 4.722e-17
3817.528 4.313e-17
3818.603 5.631e-17
3819.68 4.515e-17
3820.756 3.351e-17
3821.832 4.387e-17
3822.909 4.598e-17
3823.986 3.83e-17
3825.062 4.422e-17
3826.138 5.195e-17
3827.215 4.52e-17
3828.292 4.093e-17
3829.368 5.003e-17
3830.445 5.023e-17
3831.522 4.123e-17
3832.599 5.531e-17
3833.675 5.497e-17
3834.752 6.603e-17
3835.829 3.726e-17
3836.905 5.72e-17
3837.982 5.762e-17
3839.06 6.607e-17
3840.137 5.888e-17
3841.213 5.859e-17
3842.291 5.928e-17
3843.368 5.878e-17
3844.445 4.915e-17
3845.522 5.862e-17
3846.599 6.262e-17
3847.677 5.724e-17
3848.753 6.756e-17
3849.831 7.096e-17
3850.908 4.797e-17
3851.986 5.675e-17
3853.063 6.249e-17
3854.14 5.741e-17
3855.218 8.369e-17
3856.295 6.78e-17
3857.373 5.762e-17
3858.45 8.233e-17
3859.528 5.504e-17
3860.605 4.608e-17
3861.683 4.881e-17
3862.761 6.442e-17
3863.838 6.887e-17
3864.916 6.955e-17
3865.994 6.646e-17
3867.072 5.647e-17
3868.149 4.564e-17
3869.228 7.719e-17
3870.306 6.57e-17
3871.384 5.002e-17
3872.461 4.59e-17
3873.539 7.092e-17
3874.618 6.379e-17
3875.695 8.232e-17
3876.774 6.434e-17
3877.852 7.172e-17
3878.93 7.047e-17
3880.008 7.103e-17
3881.086 6.23e-17
3882.165 7.988e-17
3883.242 7.769e-17
3884.321 7.324e-17
3885.4 6.984e-17
3886.478 6.374e-17
3887.556 8.052e-17
3888.635 7.166e-17
3889.714 6.482e-17
3890.791 7.768e-17
3891.87 7.331e-17
3892.949 8.529e-17
3894.028 8.442e-17
3895.106 6.746e-17
3896.185 8.908e-17
3897.264 7.659e-17
3898.342 7.233e-17
3899.421 7.555e-17
3900.5 7.119e-17
3901.579 8.455e-17
3902.657 6.834e-17
3903.736 6.278e-17
3904.816 7.598e-17
3905.895 7.161e-17
3906.973 8.605e-17
3908.052 6.08e-17
3909.132 6.95e-17
3910.21 9.19e-17
3911.289 6.45e-17
3912.369 8.462e-17
3913.448 6.992e-17
3914.527 6.578e-17
3915.606 7.182e-17
3916.686 7.675e-17
3917.764 6.723e-17
3918.844 6.315e-17
3919.924 6.089e-17
3921.003 6.317e-17
3922.082 4.514e-17
3923.162 2.903e-17
3924.242 2.305e-17
3925.32 4.031e-17
3926.4 4.575e-17
3927.48 5.756e-17
3928.56 5.997e-17
3929.639 8.283e-17
3930.719 9.183e-17
3931.799 6.125e-17
3932.878 3.062e-17
3933.958 3.281e-17
3935.038 2.306e-17
3936.118 3.807e-17
3937.197 5.084e-17
3938.277 6.449e-17
3939.357 6.466e-17
3940.438 5.848e-17
3941.517 7.583e-17
3942.597 6.612e-17
3943.677 6.592e-17
3944.757 8.906e-17
3945.837 6.775e-17
3946.917 7.378e-17
3947.998 7.851e-17
3949.077 7.773e-17
3950.158 8.851e-17
3951.238 6.775e-17
3952.318 7.112e-17
3953.398 7.691e-17
3954.479 6.167e-17
3955.559 6.161e-17
3956.639 7.422e-17
3957.72 7.971e-17
3958.8 6.991e-17
3959.88 6.199e-17
3960.961 5.806e-17
3962.042 8.349e-17
3963.123 4.939e-17
3964.202 7.745e-17
3965.283 6.633e-17
3966.364 6.361e-17
3967.444 6.613e-17
3968.525 7.265e-17
3969.606 7.826e-17
3970.687 6.95e-17
3971.767 7.461e-17
3972.848 5.725e-17
3973.929 8.497e-17
3975.01 4.527e-17
3976.091 5.437e-17
3977.172 7.337e-17
3978.253 7.356e-17
3979.333 6.025e-17
3980.414 6.948e-17
3981.496 6.277e-17
3982.577 7.332e-17
3983.657 6.84e-17
3984.739 3.255e-17
3985.82 6.781e-17
3986.901 8.21e-17
3987.982 7.68e-17
3989.064 5.686e-17
3990.145 7.476e-17
3991.226 5.125e-17
3992.307 8.268e-17
3993.389 6.488e-17
3994.469 7.351e-17
3995.551 6.308e-17
3996.633 5.966e-17
3997.715 5.912e-17
3998.795 6.891e-17
3999.877 7.003e-17
4000.959 5.483e-17
4002.04 7.092e-17
4003.121 6.405e-17
4004.203 6.83e-17
4005.285 5.522e-17
4006.366 8.131e-17
4007.448 6.78e-17
4008.53 6.115e-17
4009.611 7.031e-17
4010.693 5.94e-17
4011.775 7.398e-17
4012.857 6.814e-17
4013.938 5.5e-17
4015.021 7.806e-17
4016.103 8.115e-17
4017.184 7.864e-17
4018.266 8.253e-17
4019.348 7.409e-17
4020.431 6.656e-17
4021.512 5.682e-17
4022.594 6.959e-17
4023.677 6.277e-17
4024.759 7.967e-17
4025.84 5.163e-17
4026.923 5.691e-17
4028.005 8.362e-17
4029.087 5.945e-17
4030.169 6.11e-17
4031.252 7.422e-17
4032.334 8.608e-17
4033.416 9.368e-17
4034.499 6.763e-17
4035.581 7.29e-17
4036.663 7.281e-17
4037.746 7.862e-17
4038.828 9.702e-17
4039.911 8.371e-17
4040.993 7.881e-17
4042.076 6.723e-17
4043.158 6.642e-17
4044.24 7.501e-17
4045.323 6.147e-17
4046.406 9.688e-17
4047.489 8.15e-17
4048.571 8.715e-17
4049.654 7.737e-17
4050.737 7.793e-17
4051.819 7.25e-17
4052.902 8.567e-17
4053.985 9.349e-17
4055.068 1.008e-16
4056.15 9.787e-17
4057.233 7.987e-17
4058.316 7.138e-17
4059.399 8.233e-17
4060.482 6.945e-17
4061.565 6.944e-17
4062.648 8.503e-17
4063.731 9.562e-17
4064.814 7.671e-17
4065.897 7.446e-17
4066.98 7.689e-17
4068.063 7.601e-17
4069.146 8.359e-17
4070.23 6.779e-17
4071.312 8.594e-17
4072.396 6.382e-17
4073.479 8.083e-17
4074.562 8.674e-17
4075.645 8.98e-17
4076.729 8.897e-17
4077.812 8.197e-17
4078.895 7.199e-17
4079.979 8.442e-17
4081.062 8.344e-17
4082.145 6.5e-17
4083.229 6.943e-17
4084.313 8.743e-17
4085.396 7.201e-17
4086.479 7.177e-17
4087.563 8.788e-17
4088.647 7.784e-17
4089.731 6.835e-17
4090.813 8.858e-17
4091.897 8.281e-17
4092.981 1.079e-16
4094.064 8.304e-17
4095.148 8.506e-17
4096.232 7.944e-17
4097.316 8.683e-17
4098.399 8.121e-17
4099.483 8.14e-17
4100.567 9.543e-17
4101.651 8.05e-17
4102.735 8.646e-17
4103.819 7.891e-17
4104.903 9.019e-17
4105.986 9.343e-17
4107.07 9.025e-17
4108.155 9.804e-17
4109.238 7.366e-17
4110.322 7.328e-17
4111.407 9.253e-17
4112.491 7.778e-17
4113.574 7.388e-17
4114.659 9.282e-17
4115.743 9.29e-17
4116.827 7.505e-17
4117.911 8.949e-17
4118.995 7.773e-17
4120.08 8.61e-17
4121.163 7.944e-17
4122.248 9.032e-17
4123.333 8.583e-17
4124.416 8.489e-17
4125.501 7.621e-17
4126.585 7.266e-17
4127.67 8.572e-17
4128.754 7.835e-17
4129.838 8.79e-17
4130.923 9.309e-17
4132.007 7.25e-17
4133.092 8.201e-17
4134.176 7.812e-17
4135.261 6.697e-17
4136.345 7.29e-17
4137.43 8.804e-17
4138.515 8.085e-17
4139.599 7.915e-17
4140.684 9.202e-17
4141.768 6.991e-17
4142.853 7.925e-17
4143.937 8.47e-17
4145.022 6.891e-17
4146.107 8.196e-17
4147.191 7.538e-17
4148.276 7.53e-17
4149.362 7.645e-17
4150.447 8.342e-17
4151.531 7.005e-17
4152.616 7.287e-17
4153.701 8.298e-17
4154.785 7.762e-17
4155.87 8.027e-17
4156.956 8.428e-17
4158.041 8.335e-17
4159.125 6.572e-17
4160.21 7.228e-17
4161.296 5.874e-17
4162.38 8.002e-17
4163.465 7.104e-17
4164.551 8.081e-17
4165.636 9.182e-17
4166.721 8.546e-17
4167.806 6.616e-17
4168.891 7.736e-17
4169.976 6.654e-17
4171.061 5.847e-17
4172.147 6.782e-17
4173.232 7.963e-17
4174.317 6.998e-17
4175.403 6.961e-17
4176.488 7.909e-17
4177.573 7.953e-17
4178.658 8.383e-17
4179.744 5.926e-17
4180.83 8.1e-17
4181.914 7.225e-17
4183.0 7.869e-17
4184.086 7.068e-17
4185.171 6.892e-17
4186.256 6.251e-17
4187.342 7.747e-17
4188.428 5.65e-17
4189.513 5.36e-17
4190.599 6.76e-17
4191.684 6.282e-17
4192.769 7.001e-17
4193.855 7.557e-17
4194.941 6.412e-17
4196.027 6.637e-17
4197.112 5.552e-17
4198.198 6.204e-17
4199.284 6.534e-17
4200.37 6.473e-17
4201.455 5.854e-17
4202.541 7.687e-17
4203.627 5.554e-17
4204.712 6.925e-17
4205.798 6.466e-17
4206.884 8.694e-17
4207.971 7.247e-17
4209.056 6.913e-17
4210.142 5.9e-17
4211.228 6.7e-17
4212.313 7.024e-17
4213.4 6.67e-17
4214.486 7.288e-17
4215.572 6.123e-17
4216.657 6.044e-17
4217.744 7.781e-17
4218.83 6.715e-17
4219.915 7.265e-17
4221.002 5.866e-17
4222.088 5.891e-17
4223.174 4.988e-17
4224.26 4.72e-17
4225.346 6.435e-17
4226.433 6.031e-17
4227.518 6.967e-17
4228.605 6.017e-17
4229.691 6.949e-17
4230.778 5.796e-17
4231.863 6.316e-17
4232.95 5.351e-17
4234.036 5.557e-17
4235.122 6.18e-17
4236.209 4.343e-17
4237.295 6.953e-17
4238.382 7.363e-17
4239.467 6.701e-17
4240.554 6.126e-17
4241.641 6.231e-17
4242.727 7.845e-17
4243.813 6.184e-17
4244.9 5.271e-17
4245.987 8.221e-17
4247.073 7.441e-17
4248.159 7.127e-17
4249.246 6.644e-17
4250.332 6.417e-17
4251.419 7.656e-17
4252.506 7.394e-17
4253.593 8.809e-17
4254.678 5.905e-17
4255.765 5.922e-17
4256.852 7.396e-17
4257.938 5.813e-17
4259.025 6.337e-17
4260.112 6.91e-17
4261.199 7.225e-17
4262.285 5.846e-17
4263.372 6.299e-17
4264.459 6.767e-17
4265.545 7.027e-17
4266.632 6.9e-17
4267.719 4.836e-17
4268.807 5.575e-17
4269.893 6.644e-17
4270.98 9.049e-17
4272.067 7.525e-17
4273.153 6.824e-17
4274.24 8.558e-17
4275.328 4.366e-17
4276.415 5.662e-17
4277.501 5.991e-17
4278.588 5.441e-17
4279.675 7.054e-17
4280.762 6.584e-17
4281.849 7.231e-17
4282.936 8.195e-17
4284.024 6.424e-17
4285.11 7.773e-17
4286.197 6.842e-17
4287.285 7.206e-17
4288.371 6.651e-17
4289.459 6.003e-17
4290.546 6.273e-17
4291.633 6.05e-17
4292.72 5.609e-17
4293.807 6.214e-17
4294.895 6.742e-17
4295.981 6.416e-17
4297.069 5.856e-17
4298.156 5.954e-17
4299.244 6.487e-17
4300.33 5.141e-17
4301.418 5.434e-17
4302.506 5.6e-17
4303.592 6.045e-17
4304.68 6.116e-17
4305.767 8.308e-17
4306.855 6.295e-17
4307.942 6.884e-17
4309.029 6.649e-17
4310.117 7.196e-17
4311.204 6.842e-17
4312.291 6.56e-17
4313.379 6.097e-17
4314.467 6.777e-17
4315.554 6.875e-17
4316.641 6.692e-17
4317.729 7.384e-17
4318.816 5.577e-17
4319.904 6.941e-17
4320.992 6.955e-17
4322.079 6.164e-17
4323.166 6.31e-17
4324.254 6.291e-17
4325.342 6.894e-17
4326.429 7.081e-17
4327.517 6.568e-17
4328.605 4.288e-17
4329.693 7.595e-17
4330.78 7.384e-17
4331.867 7.337e-17
4332.955 5.083e-17
4334.042 6.508e-17
4335.13 7.658e-17
4336.218 6.76e-17
4337.306 6.854e-17
4338.393 8.316e-17
4339.482 5.42e-17
4340.57 6.342e-17
4341.657 6.586e-17
4342.745 6.689e-17
4343.833 7.787e-17
4344.921 7.066e-17
4346.008 6.192e-17
4347.096 5.837e-17
4348.184 7.301e-17
4349.272 6.452e-17
4350.36 6.999e-17
4351.448 7.485e-17
4352.535 7.045e-17
4353.623 7.083e-17
4354.712 5.889e-17
4355.8 6.697e-17
4356.887 7.22e-17
4357.975 8.389e-17
4359.064 7.682e-17
4360.151 5.414e-17
4361.239 5.528e-17
4362.327 8.373e-17
4363.416 7.109e-17
4364.503 7.906e-17
4365.591 7.242e-17
4366.68 6.752e-17
4367.767 6.907e-17
4368.856 7.553e-17
4369.944 6.586e-17
4371.032 7.606e-17
4372.12 8.957e-17
4373.208 7.034e-17
4374.297 6.494e-17
4375.384 6.753e-17
4376.473 7.735e-17
4377.561 8.206e-17
4378.65 7.319e-17
4379.737 6.836e-17
4380.826 8.297e-17
4381.914 7.898e-17
4383.002 7.212e-17
4384.09 6.626e-17
4385.179 5.549e-17
4386.267 6.567e-17
4387.355 7.051e-17
4388.443 5.245e-17
4389.532 7.469e-17
4390.62 7.859e-17
4391.708 7.155e-17
4392.797 7.518e-17
4393.886 6.643e-17
4394.973 6.787e-17
4396.062 7.521e-17
4397.151 8.183e-17
4398.238 7.223e-17
4399.327 6.22e-17
4400.416 7.56e-17
4401.504 7.192e-17
4402.592 7.774e-17
4403.681 7.885e-17
4404.77 6.496e-17
4405.857 6.215e-17
4406.946 7.854e-17
4408.035 7.604e-17
4409.124 7.67e-17
4410.211 8.197e-17
4411.3 6.171e-17
4412.389 8.947e-17
4413.477 8.094e-17
4414.566 8.028e-17
4415.655 7.844e-17
4416.744 7.491e-17
4417.831 6.035e-17
4418.92 7.989e-17
4420.009 7.438e-17
4421.097 6.969e-17
4422.186 8.678e-17
4423.275 7.56e-17
4424.364 7.647e-17
4425.452 7.491e-17
4426.541 5.703e-17
4427.63 6.547e-17
4428.718 6.797e-17
4429.807 6.847e-17
4430.896 6.86e-17
4431.985 9.438e-17
4433.073 7.5e-17
4434.162 5.655e-17
4435.251 7.027e-17
4436.339 7.059e-17
4437.428 6.962e-17
4438.517 6.748e-17
4439.606 8.248e-17
4440.694 8.582e-17
4441.783 6.046e-17
4442.872 7.778e-17
4443.96 7.048e-17
4445.049 6.479e-17
4446.138 6.47e-17
4447.227 7.701e-17
4448.316 7.083e-17
4449.405 6.54e-17
4450.494 7.261e-17
4451.582 8.735e-17
4452.671 6.599e-17
4453.76 6.192e-17
4454.849 6.593e-17
4455.938 7.258e-17
4457.027 7.665e-17
4458.116 6.072e-17
4459.204 6.296e-17
4460.294 7.852e-17
4461.383 6.738e-17
4462.472 7.071e-17
4463.56 4.375e-17
4464.649 6.732e-17
4465.739 7.798e-17
4466.827 6.771e-17
4467.916 7.831e-17
4469.006 6.506e-17
4470.095 6.358e-17
4471.183 7.198e-17
4472.272 5.53e-17
4473.362 7.311e-17
4474.45 7.669e-17
4475.539 7.789e-17
4476.629 6.107e-17
4477.718 7.184e-17
4478.806 7.663e-17
4479.896 6.98e-17
4480.985 7.198e-17
4482.073 5.923e-17
4483.163 6.186e-17
4484.252 5.359e-17
4485.341 7.595e-17
4486.43 6.53e-17
4487.519 6.997e-17
4488.609 6.856e-17
4489.697 6.691e-17
4490.787 5.541e-17
4491.876 6.258e-17
4492.965 6.087e-17
4494.054 5.51e-17
4495.143 4.917e-17
4496.233 7.335e-17
4497.321 7.456e-17
4498.411 4.612e-17
4499.5 7.357e-17
4500.589 6.7e-17
4501.678 5.897e-17
4502.768 5.536e-17
4503.857 5.486e-17
4504.946 5.362e-17
4506.035 5.1e-17
4507.125 7.138e-17
4508.213 6.931e-17
4509.303 6.209e-17
4510.392 6.687e-17
4511.482 5.985e-17
4512.571 5.725e-17
4513.66 7.103e-17
4514.75 7.629e-17
4515.838 6.695e-17
4516.928 7.561e-17
4518.017 6.887e-17
4519.107 6.323e-17
4520.196 8.103e-17
4521.285 4.795e-17
4522.375 5.743e-17
4523.463 5.747e-17
4524.553 5.647e-17
4525.643 6.701e-17
4526.732 6.73e-17
4527.821 6.862e-17
4528.911 6.438e-17
4530.0 4.96e-17
4531.089 5.434e-17
4532.179 5.972e-17
4533.268 5.489e-17
4534.358 6.671e-17
4535.446 6.02e-17
4536.536 6.554e-17
4537.626 4.638e-17
4538.715 5.647e-17
4539.804 4.445e-17
4540.894 7.73e-17
4541.984 5.677e-17
4543.072 5.247e-17
4544.162 5.932e-17
4545.252 5.566e-17
4546.34 7.249e-17
4547.43 5.958e-17
4548.52 6.921e-17
4549.61 4.781e-17
4550.698 5.633e-17
4551.788 7.498e-17
4552.878 6.284e-17
4553.967 5.577e-17
4555.056 4.856e-17
4556.146 4.627e-17
4557.236 5.05e-17
4558.325 5.789e-17
4559.414 5.756e-17
4560.504 5.625e-17
4561.593 6.363e-17
4562.683 5.701e-17
4563.772 5.703e-17
4564.861 6.722e-17
4565.951 6.897e-17
4567.041 5.894e-17
4568.131 3.895e-17
4569.219 6.612e-17
4570.309 7.901e-17
4571.399 5.232e-17
4572.488 6.194e-17
4573.578 6.38e-17
4574.667 7.868e-17
4575.757 7.626e-17
4576.846 5.647e-17
4577.936 5.498e-17
4579.026 5.418e-17
4580.115 5.571e-17
4581.204 5.437e-17
4582.294 6.556e-17
4583.384 5.066e-17
4584.473 6.055e-17
4585.563 6.969e-17
4586.653 6.12e-17
4587.741 4.655e-17
4588.831 7.394e-17
4589.921 6.653e-17
4591.011 5.935e-17
4592.1 6.357e-17
4593.19 7.114e-17
4594.28 5.569e-17
4595.369 6.012e-17
4596.458 7.34e-17
4597.548 6.714e-17
4598.638 6.299e-17
4599.727 6.839e-17
4600.817 5.378e-17
4601.907 5.061e-17
4602.996 7.408e-17
4604.086 6.843e-17
4605.175 5.321e-17
4606.265 6.776e-17
4607.354 5.927e-17
4608.444 6.884e-17
4609.534 6.289e-17
4610.623 6.217e-17
4611.713 6.048e-17
4612.803 5.856e-17
4613.893 8.301e-17
4614.982 5.647e-17
4616.071 7.371e-17
4617.161 4.208e-17
4618.25 6.993e-17
4619.34 5.771e-17
4620.43 5.91e-17
4621.52 5.807e-17
4622.609 6.383e-17
4623.699 6.955e-17
4624.789 6.175e-17
4625.878 5.996e-17
4626.968 5.476e-17
4628.058 5.734e-17
4629.147 5.431e-17
4630.236 5.736e-17
4631.326 6.057e-17
4632.416 6.403e-17
4633.505 6.658e-17
4634.595 6.624e-17
4635.685 5.65e-17
4636.774 6.816e-17
4637.864 6.065e-17
4638.954 7.74e-17
4640.044 7.23e-17
4641.133 5.917e-17
4642.223 7.316e-17
4643.313 6.546e-17
4644.402 6.634e-17
4645.492 5.211e-17
4646.581 6.811e-17
4647.671 6.991e-17
4648.76 6.959e-17
4649.85 6.313e-17
4650.94 5.901e-17
4652.029 6.798e-17
4653.119 6.563e-17
4654.209 6.96e-17
4655.299 7.15e-17
4656.388 7.18e-17
4657.478 6.468e-17
4658.568 7.002e-17
4659.657 6.787e-17
4660.747 5.654e-17
4661.837 5.056e-17
4662.927 6.015e-17
4664.015 6.426e-17
4665.105 5.163e-17
4666.195 5.881e-17
4667.284 6.314e-17
4668.374 7.248e-17
4669.464 6.424e-17
4670.554 6.753e-17
4671.643 6.89e-17
4672.733 6.178e-17
4673.823 5.325e-17
4674.912 5.845e-17
4676.002 4.939e-17
4677.092 5.864e-17
4678.182 6.217e-17
4679.271 7.004e-17
4680.36 5.381e-17
4681.45 6.078e-17
4682.539 6.891e-17
4683.629 5.998e-17
4684.719 6.737e-17
4685.808 5.636e-17
4686.898 6.611e-17
4687.988 6.697e-17
4689.078 6.103e-17
4690.167 6.185e-17
4691.257 6.166e-17
4692.347 7.228e-17
4693.436 6.497e-17
4694.525 5.531e-17
4695.615 6.212e-17
4696.705 5.858e-17
4697.794 5.305e-17
4698.884 5.362e-17
4699.974 5.638e-17
4701.063 5.643e-17
4702.153 7.303e-17
4703.243 6.274e-17
4704.333 4.273e-17
4705.421 7.127e-17
4706.511 5.805e-17
4707.601 6.222e-17
4708.69 7.529e-17
4709.78 6.844e-17
4710.87 5.963e-17
4711.96 4.887e-17
4713.049 6.938e-17
4714.139 5.203e-17
4715.228 6.171e-17
4716.317 6.11e-17
4717.407 5.232e-17
4718.497 5.617e-17
4719.587 6.427e-17
4720.676 6.567e-17
4721.766 5.605e-17
4722.855 5.32e-17
4723.944 4.943e-17
4725.034 7.015e-17
4726.124 5.523e-17
4727.214 4.305e-17
4728.303 4.969e-17
4729.392 4.839e-17
4730.482 7.352e-17
4731.571 6.467e-17
4732.661 5.409e-17
4733.751 6.182e-17
4734.841 4.711e-17
4735.929 5.793e-17
4737.019 7.145e-17
4738.109 4.934e-17
4739.198 5.634e-17
4740.288 8.148e-17
4741.377 6.242e-17
4742.466 6.357e-17
4743.556 6.081e-17
4744.646 6.767e-17
4745.736 5.545e-17
4746.824 6.203e-17
4747.914 5.171e-17
4749.004 5.316e-17
4750.093 5.168e-17
4751.182 6.513e-17
4752.272 5.036e-17
4753.362 6.731e-17
4754.451 6.035e-17
4755.541 5.673e-17
4756.63 5.007e-17
4757.719 5.892e-17
4758.809 5.623e-17
4759.898 7.139e-17
4760.988 6.121e-17
4762.077 5.899e-17
4763.167 6.158e-17
4764.256 6.837e-17
4765.345 6.371e-17
4766.435 6.186e-17
4767.524 6.097e-17
4768.614 6.142e-17
4769.703 5.499e-17
4770.793 6.863e-17
4771.882 6.815e-17
4772.971 6.348e-17
4774.061 5.755e-17
4775.15 7.31e-17
4776.24 6.498e-17
4777.329 7.314e-17
4778.418 6.056e-17
4779.508 6.127e-17
4780.597 6.812e-17
4781.686 6.147e-17
4782.776 6.025e-17
4783.865 6.937e-17
4784.954 5.096e-17
4786.044 5.86e-17
4787.133 7.138e-17
4788.222 6.556e-17
4789.311 6.552e-17
4790.401 6.478e-17
4791.491 5.917e-17
4792.579 6.671e-17
4793.669 8.051e-17
4794.758 5.955e-17
4795.847 5.314e-17
4796.937 5.598e-17
4798.026 6.258e-17
4799.115 7.047e-17
4800.204 7.711e-17
4801.294 5.544e-17
4802.383 6.048e-17
4803.472 5.741e-17
4804.561 5.77e-17
4805.651 7.229e-17
4806.739 7.244e-17
4807.829 5.987e-17
4808.918 6.25e-17
4810.008 5.743e-17
4811.096 6.31e-17
4812.186 5.676e-17
4813.275 7.337e-17
4814.364 5.858e-17
4815.453 6.809e-17
4816.543 7.096e-17
4817.632 6.022e-17
4818.72 6.656e-17
4819.81 5.595e-17
4820.899 7.641e-17
4821.988 7.466e-17
4823.077 6.304e-17
4824.167 4.543e-17
4825.256 8.125e-17
4826.344 6.043e-17
4827.434 6.657e-17
4828.523 7.559e-17
4829.611 7.555e-17
4830.701 7.316e-17
4831.79 6.39e-17
4832.879 6.291e-17
4833.968 5.314e-17
4835.057 5.346e-17
4836.146 6.899e-17
4837.235 6.487e-17
4838.324 6.495e-17
4839.413 6.738e-17
4840.503 5.474e-17
4841.591 7.633e-17
4842.68 7.559e-17
4843.77 4.498e-17
4844.858 7.079e-17
4845.947 6.35e-17
4847.036 6.54e-17
4848.124 6.254e-17
4849.214 5.879e-17
4850.303 6.973e-17
4851.392 5.103e-17
4852.48 7.288e-17
4853.57 5.478e-17
4854.659 6.297e-17
4855.747 6.273e-17
4856.836 5.998e-17
4857.925 6.823e-17
4859.014 6.171e-17
4860.103 5.634e-17
4861.192 7.76e-17
4862.281 6.738e-17
4863.369 8.088e-17
4864.458 6.593e-17
4865.547 6.083e-17
4866.636 5.606e-17
4867.724 6.147e-17
4868.813 8.374e-17
4869.902 7.255e-17
4870.991 6.762e-17
4872.08 6.481e-17
4873.169 7.767e-17
4874.258 6.5e-17
4875.346 6.986e-17
4876.435 7.082e-17
4877.524 4.677e-17
4878.612 6.31e-17
4879.701 5.738e-17
4880.79 7.091e-17
4881.879 8.151e-17
4882.967 7.837e-17
4884.056 6.301e-17
4885.145 7.462e-17
4886.232 6.304e-17
4887.321 7.03e-17
4888.41 6.382e-17
4889.499 7.147e-17
4890.587 5.669e-17
4891.676 6.135e-17
4892.765 6.072e-17
4893.853 7.825e-17
4894.942 6.669e-17
4896.03 4.795e-17
4897.118 7.868e-17
4898.207 6.247e-17
4899.296 7.093e-17
4900.385 6.925e-17
4901.472 7.438e-17
4902.561 8.059e-17
4903.65 7.657e-17
4904.738 6.163e-17
4905.827 7.177e-17
4906.915 6.566e-17
4908.004 5.489e-17
4909.092 7.985e-17
4910.18 7.349e-17
4911.269 5.372e-17
4912.357 6.694e-17
4913.445 7.27e-17
4914.534 6.091e-17
4915.623 7.129e-17
4916.71 5.831e-17
4917.799 9.023e-17
4918.888 6.936e-17
4919.975 6.929e-17
4921.064 6.783e-17
4922.153 6.865e-17
4923.241 6.427e-17
4924.329 7.295e-17
4925.417 7.053e-17
4926.506 6.058e-17
4927.593 6.027e-17
4928.682 7.412e-17
4929.77 6.804e-17
4930.859 8.469e-17
4931.946 7.1e-17
4933.035 6.285e-17
4934.123 7.706e-17
4935.211 6.819e-17
4936.299 5.195e-17
4937.388 8.013e-17
4938.475 8.436e-17
4939.563 7.099e-17
4940.652 5.864e-17
4941.74 7.799e-17
4942.828 7.595e-17
4943.916 7.492e-17
4945.004 8.249e-17
4946.092 7.457e-17
4947.18 6.513e-17
4948.268 7.194e-17
4949.357 6.434e-17
4950.444 6.583e-17
4951.532 7.748e-17
4952.62 8.414e-17
4953.708 7.71e-17
4954.796 7.928e-17
4955.884 6.828e-17
4956.972 7.361e-17
4958.06 6.482e-17
4959.148 6.282e-17
4960.236 5.865e-17
4961.323 6.736e-17
4962.411 6.771e-17
4963.499 6.44e-17
4964.588 6.908e-17
4965.675 7.982e-17
4966.763 7.332e-17
4967.851 7.103e-17
4968.938 7.681e-17
4970.026 7.326e-17
4971.114 6.223e-17
4972.202 6.874e-17
4973.289 5.413e-17
4974.377 7.065e-17
4975.465 7.666e-17
4976.552 6.596e-17
4977.64 6.424e-17
4978.728 6.489e-17
4979.816 6.971e-17
4980.903 8.273e-17
4981.991 7.466e-17
4983.079 7.239e-17
4984.166 6.881e-17
4985.254 8.113e-17
4986.341 8.295e-17
4987.428 7.013e-17
4988.516 7.593e-17
4989.604 6.976e-17
4990.692 7.45e-17
4991.779 6.087e-17
4992.866 6.256e-17
4993.954 6.513e-17
4995.041 8.026e-17
4996.129 7.331e-17
4997.216 7.941e-17
4998.304 8.13e-17
4999.391 6.948e-17
5000.478 7.478e-17
5001.566 6.032e-17
5002.653 6.723e-17
5003.74 6.599e-17
5004.828 7.179e-17
5005.916 7.216e-17
5007.002 8.167e-17
5008.09 6.223e-17
5009.177 7.662e-17
5010.264 7.786e-17
5011.351 6.837e-17
5012.439 7.289e-17
5013.526 6.488e-17
5014.613 7.244e-17
5015.7 6.288e-17
5016.788 5.53e-17
5017.874 5.663e-17
5018.962 6.808e-17
5020.049 5.336e-17
5021.137 6.145e-17
5022.223 8.026e-17
5023.31 8.08e-17
5024.398 7.197e-17
5025.484 6.946e-17
5026.571 6.832e-17
5027.659 6.451e-17
5028.746 6.467e-17
5029.832 7.672e-17
5030.92 8.679e-17
5032.007 7.875e-17
5033.093 7.001e-17
5034.18 7.573e-17
5035.267 6.667e-17
5036.354 6.821e-17
5037.441 6.789e-17
5038.528 7.075e-17
5039.615 7.105e-17
5040.701 5.843e-17
5041.788 7.798e-17
5042.875 7.772e-17
5043.962 5.877e-17
5045.049 7.908e-17
5046.136 7.279e-17
5047.223 7.114e-17
5048.309 7.005e-17
5049.396 6.682e-17
5050.483 7.298e-17
5051.569 7.669e-17
5052.656 7.894e-17
5053.743 6.775e-17
5054.829 7.677e-17
5055.915 5.143e-17
5057.002 5.953e-17
5058.089 5.514e-17
5059.175 7.054e-17
5060.262 7.774e-17
5061.349 7.384e-17
5062.435 6.614e-17
5063.521 6.611e-17
5064.608 6.073e-17
5065.695 5.464e-17
5066.78 6.282e-17
5067.867 6.672e-17
5068.954 5.602e-17
5070.04 6.918e-17
5071.126 6.958e-17
5072.213 7.94e-17
5073.299 5.302e-17
5074.385 6.754e-17
5075.472 6.501e-17
5076.558 6.783e-17
5077.645 6.873e-17
5078.73 6.505e-17
5079.817 6.018e-17
5080.903 6.942e-17
5081.989 6.086e-17
5083.075 6.154e-17
5084.162 5.86e-17
5085.247 7.094e-17
5086.334 7.612e-17
5087.42 7.199e-17
5088.506 6.862e-17
5089.592 6.179e-17
5090.678 7.394e-17
5091.764 7.377e-17
5092.85 6.58e-17
5093.936 4.597e-17
5095.022 7.305e-17
5096.109 6.661e-17
5097.194 6.758e-17
5098.28 6.408e-17
5099.366 6.219e-17
5100.451 6.597e-17
5101.538 5.183e-17
5102.624 6.569e-17
5103.71 8.089e-17
5104.795 6.515e-17
5105.881 6.864e-17
5106.967 7.379e-17
5108.052 7.844e-17
5109.138 6.731e-17
5110.224 6.842e-17
5111.31 7.693e-17
5112.395 5.899e-17
5113.481 6.569e-17
5114.567 6.041e-17
5115.652 5.346e-17
5116.738 7.694e-17
5117.824 7.672e-17
5118.91 8.141e-17
5119.995 6.084e-17
5121.08 8.255e-17
5122.166 7.369e-17
5123.251 7.516e-17
5124.337 7.819e-17
5125.422 6.815e-17
5126.508 7.688e-17
5127.593 7.396e-17
5128.679 5.597e-17
5129.764 6.287e-17
5130.849 6.576e-17
5131.935 7.043e-17
5133.02 7.355e-17
5134.105 7.479e-17
5135.19 6.918e-17
5136.276 6.624e-17
5137.361 6.508e-17
5138.446 6.328e-17
5139.531 6.832e-17
5140.617 5.869e-17
5141.701 4.806e-17
5142.787 7.206e-17
5143.872 5.999e-17
5144.958 6.806e-17
5146.042 8.136e-17
5147.127 5.332e-17
5148.213 8.331e-17
5149.297 8.095e-17
5150.382 6.104e-17
5151.467 7.086e-17
5152.553 6.613e-17
5153.637 6.155e-17
5154.722 6.603e-17
5155.807 6.439e-17
5156.892 7.184e-17
5157.977 6.634e-17
5159.062 5.92e-17
5160.147 5.965e-17
5161.231 7.416e-17
5162.316 8.347e-17
5163.401 6.685e-17
5164.485 6.208e-17
5165.57 6.624e-17
5166.655 6.556e-17
5167.74 6.555e-17
5168.824 6.954e-17
5169.909 8.384e-17
5170.994 5.888e-17
5172.078 5.592e-17
5173.162 7.052e-17
5174.247 6.638e-17
5175.332 6.728e-17
5176.416 6.912e-17
5177.501 6.321e-17
5178.585 6.171e-17
5179.669 6.9e-17
5180.754 4.603e-17
5181.839 7.03e-17
5182.922 6.011e-17
5184.007 5.942e-17
5185.091 5.221e-17
5186.176 5.403e-17
5187.26 5.577e-17
5188.344 6.485e-17
5189.429 5.409e-17
5190.512 6.431e-17
5191.597 6.062e-17
5192.681 5.819e-17
5193.766 5.944e-17
5194.849 5.687e-17
5195.933 6.518e-17
5197.018 6.213e-17
5198.101 5.364e-17
5199.185 6.789e-17
5200.27 5.81e-17
5201.354 5.355e-17
5202.437 4.816e-17
5203.521 7.383e-17
5204.606 4.76e-17
5205.689 5.357e-17
5206.773 6.135e-17
5207.857 5.674e-17
5208.941 4.287e-17
5210.024 5.058e-17
5211.108 5.166e-17
5212.193 4.387e-17
5213.276 3.946e-17
5214.36 5.186e-17
5215.444 4.745e-17
5216.527 6.538e-17
5217.61 4.602e-17
5218.694 5.251e-17
5219.778 5.611e-17
5220.861 5.363e-17
5221.945 5.991e-17
5223.029 4.024e-17
5224.113 6.067e-17
5225.195 5.005e-17
5226.279 6.247e-17
5227.363 5.696e-17
5228.445 5.664e-17
5229.529 5.991e-17
5230.613 6.328e-17
5231.695 7.539e-17
5232.779 7.71e-17
5233.863 7.375e-17
5234.946 6.942e-17
5236.029 6.912e-17
5237.112 7.671e-17
5238.196 5.15e-17
5239.278 6.212e-17
5240.362 5.797e-17
5241.445 5.573e-17
5242.528 5.538e-17
5243.611 5.564e-17
5244.694 3.806e-17
5245.777 5.62e-17
5246.86 5.37e-17
5247.943 7.127e-17
5249.026 5.595e-17
5250.109 4.699e-17
5251.192 4.008e-17
5252.275 5.782e-17
5253.358 5.835e-17
5254.44 5.105e-17
5255.523 6.615e-17
5256.606 4.383e-17
5257.689 6.873e-17
5258.771 5.115e-17
5259.854 4.474e-17
5260.937 5.637e-17
5262.019 6.733e-17
5263.102 5.241e-17
5264.185 5.771e-17
5265.268 5.867e-17
5266.35 5.457e-17
5267.433 5.427e-17
5268.515 5.379e-17
5269.597 4.187e-17
5270.68 6.268e-17
5271.763 5.402e-17
5272.845 5.997e-17
5273.927 5.981e-17
5275.01 7.083e-17
5276.092 5.895e-17
5277.174 5.339e-17
5278.256 5.722e-17
5279.339 4.831e-17
5280.421 5.237e-17
5281.503 6.054e-17
5282.585 6.753e-17
5283.668 5.086e-17
5284.749 4.762e-17
5285.832 4.767e-17
5286.914 4.602e-17
5287.995 3.919e-17
5289.078 5.832e-17
5290.16 4.423e-17
5291.242 6.302e-17
5292.323 4.524e-17
5293.406 5.155e-17
5294.488 5.815e-17
5295.569 5.083e-17
5296.651 6.325e-17
5297.733 6.005e-17
5298.815 5.424e-17
5299.896 6.325e-17
5300.978 3.899e-17
5302.06 5.348e-17
5303.141 4.316e-17
5304.223 5.369e-17
5305.305 5.147e-17
5306.387 4.842e-17
5307.468 5.661e-17
5308.55 5.205e-17
5309.631 5.287e-17
5310.712 4.881e-17
5311.794 5.476e-17
5312.876 3.983e-17
5313.957 5.105e-17
5315.038 5.159e-17
5316.12 4.983e-17
5317.201 5.146e-17
5318.282 5.241e-17
5319.363 6.195e-17
5320.445 4.996e-17
5321.526 4.327e-17
5322.607 5.321e-17
5323.688 5.56e-17
5324.77 4.595e-17
5325.85 4.296e-17
5326.931 5.362e-17
5328.013 5.088e-17
5329.094 6.801e-17
5330.174 5.089e-17
5331.256 5.444e-17
5332.337 4.972e-17
5333.417 3.936e-17
5334.498 6.609e-17
5335.579 6.949e-17
5336.66 5.47e-17
5337.741 5.924e-17
5338.822 5.868e-17
5339.903 5.76e-17
5340.983 5.888e-17
5342.064 6.075e-17
5343.145 5.887e-17
5344.224 4.801e-17
5345.305 4.791e-17
5346.386 3.908e-17
5347.467 4.174e-17
5348.547 4.368e-17
5349.628 5.563e-17
5350.708 6.025e-17
5351.788 5.201e-17
5352.869 5.051e-17
5353.949 5.224e-17
5355.03 4.64e-17
5356.11 4.851e-17
5357.19 5.496e-17
5358.271 4.482e-17
5359.35 3.894e-17
5360.431 3.986e-17
5361.511 4.509e-17
5362.592 4.563e-17
5363.671 5.317e-17
5364.751 5.877e-17
5365.832 4.955e-17
5366.911 7.19e-17
5367.991 6.718e-17
5369.071 4.994e-17
5370.152 5.077e-17
5371.231 6.544e-17
5372.311 5.63e-17
5373.391 4.941e-17
5374.47 4.937e-17
5375.55 5.682e-17
5376.63 5.769e-17
5377.71 6.168e-17
5378.789 5.169e-17
5379.869 5.739e-17
5380.949 5.006e-17
5382.028 4.632e-17
5383.108 5.09e-17
5384.188 5.29e-17
5385.267 5.859e-17
5386.346 6.152e-17
5387.426 6.569e-17
5388.506 6.366e-17
5389.584 6.097e-17
5390.664 6.499e-17
5391.744 5.41e-17
5392.823 5.63e-17
5393.902 6.596e-17
5394.981 6.4e-17
5396.061 6.12e-17
5397.139 4.275e-17
5398.219 5.601e-17
5399.298 4.578e-17
5400.377 5.32e-17
5401.456 6.86e-17
5402.535 5.911e-17
5403.614 5.75e-17
5404.693 6.153e-17
5405.772 5.394e-17
5406.851 6.286e-17
5407.929 4.421e-17
5409.008 3.976e-17
5410.087 5.361e-17
5411.166 5.603e-17
5412.244 5.883e-17
5413.323 5.748e-17
5414.402 5.479e-17
5415.48 5.766e-17
5416.559 3.895e-17
5417.638 6.187e-17
5418.717 5.863e-17
5419.795 4.203e-17
5420.873 4.623e-17
5421.952 4.942e-17
5423.03 4.883e-17
5424.109 6.741e-17
5425.187 5.267e-17
5426.266 5.606e-17
5427.343 5.727e-17
5428.422 5.862e-17
5429.501 5.66e-17
5430.578 6.334e-17
5431.656 5.64e-17
5432.735 5.994e-17
5433.813 5.861e-17
5434.891 4.605e-17
5435.969 6.458e-17
5437.047 6.593e-17
5438.125 5.655e-17
5439.203 5.4e-17
5440.281 4.878e-17
5441.359 6.06e-17
5442.436 6.069e-17
5443.514 6.157e-17
5444.592 5.007e-17
5445.669 4.354e-17
5446.747 4.751e-17
5447.825 5.195e-17
5448.903 5.838e-17
5449.98 6.382e-17
5451.058 5.503e-17
5452.136 5.426e-17
5453.213 5.631e-17
5454.291 6.822e-17
5455.368 5.653e-17
5456.446 4.757e-17
5457.523 5.781e-17
5458.6 7.074e-17
5459.678 6.433e-17
5460.754 4.62e-17
5461.832 4.214e-17
5462.91 4.129e-17
5463.987 5.284e-17
5465.063 5.399e-17
5466.141 4.623e-17
5467.218 5.045e-17
5468.295 5.448e-17
5469.372 6.22e-17
5470.449 6.354e-17
5471.526 5.38e-17
5472.603 5.536e-17
5473.68 5.755e-17
5474.757 6.146e-17
5475.833 5.711e-17
5476.91 5.045e-17
5477.987 6.156e-17
5479.064 6.514e-17
5480.14 5.127e-17
5481.217 5.873e-17
5482.294 6.571e-17
5483.37 5.772e-17
5484.447 5.194e-17
5485.523 5.675e-17
5486.599 6.281e-17
5487.676 6.31e-17
5488.752 7.072e-17
5489.829 7.063e-17
5490.905 6.212e-17
5491.981 5.447e-17
5493.058 6.053e-17
5494.133 6.335e-17
5495.21 5.619e-17
5496.286 5.639e-17
5497.363 6.255e-17
5498.438 5.926e-17
5499.514 6.912e-17
5500.591 6.611e-17
5501.666 5.682e-17
5502.742 5.863e-17
5503.818 6.431e-17
5504.895 5.993e-17
5505.97 5.164e-17
5507.046 4.763e-17
5508.122 5.612e-17
5509.197 6.492e-17
5510.273 7.003e-17
5511.349 6.754e-17
5512.425 5.319e-17
5513.5 4.946e-17
5514.576 5.327e-17
5515.651 5.876e-17
5516.726 6.321e-17
5517.802 5.916e-17
5518.878 5.653e-17
5519.953 4.881e-17
5521.028 4.95e-17
5522.103 5.357e-17
5523.179 5.224e-17
5524.254 4.398e-17
5525.329 4.861e-17
5526.405 5.295e-17
5527.48 5.766e-17
5528.554 6.232e-17
5529.63 5.538e-17
5530.705 5.651e-17
5531.779 6.265e-17
5532.854 5.403e-17
5533.93 5.546e-17
5535.005 5.998e-17
5536.079 6.086e-17
5537.154 5.532e-17
5538.229 5.404e-17
5539.303 6.304e-17
5540.378 5.803e-17
5541.453 5.225e-17
5542.528 5.548e-17
5543.602 6.584e-17
5544.677 5.86e-17
5545.751 5.079e-17
5546.825 5.503e-17
5547.9 5.971e-17
5548.975 5.354e-17
5550.049 4.933e-17
5551.123 6.346e-17
5552.197 6.753e-17
5553.272 5.615e-17
5554.346 4.559e-17
5555.42 4.981e-17
5556.494 5.605e-17
5557.569 5.573e-17
5558.642 6.038e-17
5559.716 5.587e-17
5560.791 5.566e-17
5561.864 5.963e-17
5562.938 5.563e-17
5564.012 5.466e-17
5565.086 5.826e-17
5566.16 4.68e-17
5567.234 4.334e-17
5568.308 5.035e-17
5569.381 5.709e-17
5570.455 4.214e-17
5571.528 3.743e-17
5572.602 5.698e-17
5573.675 5.388e-17
5574.749 5.395e-17
5575.823 7.29e-17
5576.895 7.373e-17
5577.969 6.448e-17
5579.043 5.235e-17
5580.116 4.912e-17
5581.189 4.234e-17
5582.262 4.462e-17
5583.336 4.211e-17
5584.408 4.293e-17
5586.567 5.471e-17
5588.085 4.098e-17
5589.605 5.079e-17
5591.124 4.523e-17
5592.642 5.66e-17
5594.162 4.479e-17
5595.68 5.15e-17
5597.2 4.704e-17
5598.719 5.487e-17
5600.238 5.312e-17
5601.757 5.336e-17
5603.276 4.27e-17
5604.795 5.148e-17
5606.315 4.761e-17
5607.833 4.645e-17
5609.353 4.401e-17
5610.872 3.853e-17
5612.391 6.188e-17
5613.91 4.482e-17
5615.43 5.69e-17
5616.95 5.132e-17
5618.468 4.459e-17
5619.988 3.767e-17
5621.507 4.062e-17
5623.027 4.453e-17
5624.547 4.593e-17
5626.066 5.448e-17
5627.586 5.053e-17
5629.105 4.597e-17
5630.625 5.032e-17
5632.145 4.788e-17
5633.664 5.687e-17
5635.184 4.578e-17
5636.703 4.484e-17
5638.223 4.757e-17
5639.743 4.776e-17
5641.262 6.101e-17
5642.782 4.992e-17
5644.302 5.908e-17
5645.822 5.383e-17
5647.342 5.248e-17
5648.861 5.977e-17
5650.382 5.347e-17
5651.901 6.354e-17
5653.421 5.158e-17
5654.942 5.082e-17
5656.461 4.873e-17
5657.982 5.444e-17
5659.501 5.652e-17
5661.022 5.325e-17
5662.541 4.955e-17
5664.062 5.415e-17
5665.582 5.565e-17
5667.102 5.869e-17
5668.622 5.194e-17
5670.142 5.781e-17
5671.663 4.566e-17
5673.183 5.31e-17
5674.703 5.853e-17
5676.224 5.579e-17
5677.743 5.669e-17
5679.264 5.501e-17
5680.785 4.474e-17
5682.305 4.884e-17
5683.826 6.153e-17
5685.346 5.24e-17
5686.867 5.252e-17
5688.387 7.045e-17
5689.907 5.517e-17
5691.428 5.499e-17
5692.948 5.895e-17
5694.469 6.202e-17
5695.99 6.225e-17
5697.511 4.62e-17
5699.032 5.609e-17
5700.552 6.015e-17
5702.073 4.89e-17
5703.593 5.653e-17
5705.114 4.932e-17
5706.635 6.12e-17
5708.156 4.883e-17
5709.677 5.271e-17
5711.197 7.083e-17
5712.719 6.02e-17
5714.24 5.314e-17
5715.76 6.209e-17
5717.282 5.807e-17
5718.802 5.544e-17
5720.324 6.323e-17
5721.845 5.633e-17
5723.365 6.282e-17
5724.887 5.776e-17
5726.408 5.684e-17
5727.929 5.886e-17
5729.451 5.872e-17
5730.971 4.559e-17
5732.493 6.534e-17
5734.014 5.352e-17
5735.535 5.816e-17
5737.057 5.686e-17
5738.578 5.081e-17
5740.099 5.789e-17
5741.62 6.655e-17
5743.142 6.19e-17
5744.663 5.276e-17
5746.185 4.733e-17
5747.707 5.917e-17
5749.227 5.127e-17
5750.749 5.748e-17
5752.27 5.114e-17
5753.792 4.687e-17
5755.314 6.199e-17
5756.835 5.396e-17
5758.357 5.381e-17
5759.878 4.45e-17
5761.4 5.144e-17
5762.923 5.157e-17
5764.444 4.573e-17
5765.966 4.931e-17
5767.487 4.822e-17
5769.009 4.755e-17
5770.531 5.205e-17
5772.053 5.695e-17
5773.575 4.877e-17
5775.096 5.001e-17
5776.619 4.732e-17
5778.141 4.616e-17
5779.662 4.65e-17
5781.185 5.028e-17
5782.706 4.947e-17
5784.229 4.596e-17
5785.751 4.402e-17
5787.273 5.033e-17
5788.795 5.334e-17
5790.317 5.76e-17
5791.839 5.029e-17
5793.361 4.685e-17
5794.883 5.173e-17
5796.406 5.021e-17
5797.928 5.311e-17
5799.45 4.488e-17
5800.972 5.086e-17
5802.495 4.818e-17
5804.018 5.481e-17
5805.539 5.058e-17
5807.062 4.811e-17
5808.584 4.811e-17
5810.107 5.386e-17
5811.63 5.45e-17
5813.152 5.139e-17
5814.675 4.729e-17
5816.197 5.296e-17
5817.719 5.441e-17
5819.242 5.017e-17
5820.764 4.477e-17
5822.288 5.797e-17
5823.81 4.596e-17
5825.333 5.467e-17
5826.855 5.72e-17
5828.378 5.265e-17
5829.901 5.362e-17
5831.423 5.574e-17
5832.946 5.358e-17
5834.469 5.94e-17
5835.992 5.837e-17
5837.515 5.609e-17
5839.037 4.885e-17
5840.561 4.835e-17
5842.083 4.807e-17
5843.607 5.371e-17
5845.13 4.712e-17
5846.652 5.588e-17
5848.176 4.909e-17
5849.698 4.663e-17
5851.222 4.7e-17
5852.745 4.065e-17
5854.268 4.992e-17
5855.791 5.1e-17
5857.314 5.068e-17
5858.837 5.652e-17
5860.361 4.818e-17
5861.884 4.113e-17
5863.407 5.576e-17
5864.93 3.866e-17
5866.454 4.224e-17
5867.977 4.978e-17
5869.5 5.265e-17
5871.024 4.568e-17
5872.547 5.027e-17
5874.071 4.673e-17
5875.594 5.547e-17
5877.117 5.559e-17
5878.641 5.738e-17
5880.164 4.363e-17
5881.688 5.129e-17
5883.211 3.768e-17
5884.735 5.6e-17
5886.259 5.751e-17
5887.782 5.791e-17
5889.306 4.855e-17
5890.829 5.705e-17
5892.353 3.331e-17
5893.878 4.342e-17
5895.401 4.849e-17
5896.925 6.045e-17
5898.448 4.039e-17
5899.972 4.742e-17
5901.497 4.108e-17
5903.02 5.109e-17
5904.544 4.884e-17
5906.067 5.371e-17
5907.592 5.012e-17
5909.115 5.616e-17
5910.64 5.242e-17
5912.164 4.584e-17
5913.687 3.82e-17
5915.212 5.888e-17
5916.735 5.414e-17
5918.26 5.05e-17
5919.784 4.879e-17
5921.308 4.11e-17
5922.832 4.111e-17
5924.356 4.842e-17
5925.881 3.945e-17
5927.405 4.637e-17
5928.929 4.6e-17
5930.454 4.911e-17
5931.977 5.714e-17
5933.502 4.83e-17
5935.027 4.969e-17
5936.55 4.581e-17
5938.075 4.006e-17
5939.599 4.737e-17
5941.124 4.264e-17
5942.648 4.547e-17
5944.173 4.834e-17
5945.698 4.471e-17
5947.222 4.455e-17
5948.746 4.332e-17
5950.27 4.786e-17
5951.795 4.879e-17
5953.32 4.997e-17
5954.844 4.334e-17
5956.37 4.823e-17
5957.894 4.034e-17
5959.419 3.45e-17
5960.944 4.017e-17
5962.468 4.335e-17
5963.993 4.029e-17
5965.517 5.192e-17
5967.043 3.952e-17
5968.568 5.244e-17
5970.092 4.384e-17
5971.617 4.063e-17
5973.142 4.13e-17
5974.667 3.462e-17
5976.191 4.37e-17
5977.717 5.154e-17
5979.242 4.017e-17
5980.767 4.454e-17
5982.292 5.148e-17
5983.816 3.873e-17
5985.342 3.948e-17
5986.867 4.79e-17
5988.392 4.436e-17
5989.918 4.871e-17
5991.442 4.451e-17
5992.968 4.25e-17
5994.493 4.006e-17
5996.018 4.686e-17
5997.544 4.704e-17
5999.068 4.475e-17
6000.594 4.539e-17
6002.12 4.35e-17
6003.645 3.515e-17
6005.17 5.207e-17
6006.695 4.331e-17
6008.221 3.678e-17
6009.747 3.996e-17
6011.272 4.408e-17
6012.798 4.436e-17
6014.322 4.445e-17
6015.848 3.998e-17
6017.373 4.406e-17
6018.899 4.422e-17
6020.425 4.875e-17
6021.95 4.37e-17
6023.476 4.209e-17
6025.001 5.164e-17
6026.528 3.982e-17
6028.054 3.91e-17
6029.579 4.333e-17
6031.105 4.117e-17
6032.63 4.108e-17
6034.156 3.564e-17
6035.683 4.601e-17
6037.208 3.581e-17
6038.734 4.422e-17
6040.259 4.057e-17
6041.786 3.878e-17
6043.312 3.7e-17
6044.837 4.827e-17
6046.364 4.424e-17
6047.889 3.721e-17
6049.415 3.824e-17
6050.941 5.009e-17
6052.467 4.568e-17
6053.994 3.997e-17
6055.519 3.835e-17
6057.046 3.971e-17
6058.571 3.461e-17
6060.098 4.641e-17
6061.625 3.946e-17
6063.15 4.044e-17
6064.677 3.786e-17
6066.202 4.145e-17
6067.729 4.033e-17
6069.256 4.094e-17
6070.782 4.598e-17
6072.308 4.036e-17
6073.834 3.878e-17
6075.361 4.241e-17
6076.888 3.846e-17
6078.413 4.448e-17
6079.94 4.686e-17
6081.466 4.241e-17
6082.993 4.789e-17
6084.519 3.616e-17
6086.046 4.559e-17
6087.573 5.236e-17
6089.099 4.203e-17
6090.626 4.68e-17
6092.152 4.301e-17
6093.679 4.247e-17
6095.206 4.574e-17
6096.732 4.378e-17
6098.259 5.529e-17
6099.785 4.707e-17
6101.312 4.365e-17
6102.84 4.427e-17
6104.366 4.15e-17
6105.893 4.038e-17
6107.419 4.249e-17
6108.946 4.12e-17
6110.473 5.096e-17
6112.0 4.357e-17
6113.527 3.761e-17
6115.054 3.681e-17
6116.581 4.237e-17
6118.107 4.49e-17
6119.635 4.257e-17
6121.162 4.755e-17
6122.689 4.614e-17
6124.216 4.535e-17
6125.743 4.375e-17
6127.27 4.215e-17
6128.798 4.336e-17
6130.324 4.561e-17
6131.852 4.236e-17
6133.378 4.573e-17
6134.906 5.049e-17
6136.434 4.241e-17
6137.96 4.739e-17
6139.488 4.28e-17
6141.015 5.476e-17
6142.543 4.705e-17
6144.069 4.167e-17
6145.597 4.182e-17
6147.125 4.121e-17
6148.652 4.941e-17
6150.179 3.969e-17
6151.706 4.045e-17
6153.234 4.718e-17
6154.762 4.723e-17
6156.289 4.101e-17
6157.817 4.318e-17
6159.344 3.587e-17
6160.872 4.791e-17
6162.4 4.702e-17
6163.927 4.232e-17
6165.455 4.026e-17
6166.982 4.301e-17
6168.51 4.823e-17
6170.038 4.256e-17
6171.565 4.355e-17
6173.093 4.244e-17
6174.621 4.193e-17
6176.149 4.967e-17
6177.676 3.429e-17
6179.204 4.665e-17
6180.732 3.907e-17
6182.26 4.797e-17
6183.788 4.392e-17
6185.315 3.735e-17
6186.844 4.36e-17
6188.372 4.142e-17
6189.899 4.088e-17
6191.428 3.966e-17
6192.955 3.894e-17
6194.484 3.913e-17
6196.012 4.198e-17
6197.54 3.94e-17
6199.068 4.518e-17
6200.596 4.357e-17
6202.124 3.896e-17
6203.652 3.555e-17
6205.18 4.02e-17
6206.709 4.494e-17
6208.236 4.456e-17
6209.765 4.317e-17
6211.293 3.993e-17
6212.821 4.432e-17
6214.35 4.38e-17
6215.878 3.828e-17
6217.407 5.201e-17
6218.934 4.91e-17
6220.463 4.943e-17
6221.992 4.329e-17
6223.52 4.269e-17
6225.049 5.187e-17
6226.577 4.183e-17
6228.105 3.994e-17
6229.634 4.742e-17
6231.162 4.913e-17
6232.691 4.106e-17
6234.219 6.116e-17
6235.748 5.698e-17
6237.276 3.283e-17
6238.805 4.763e-17
6240.334 4.588e-17
6241.862 4.749e-17
6243.391 4.641e-17
6244.92 4.761e-17
6246.449 4.163e-17
6247.978 4.309e-17
6249.506 5.146e-17
6251.035 4.522e-17
6252.563 4.44e-17
6254.093 4.302e-17
6255.622 4.764e-17
6257.15 5.537e-17
6258.68 5.579e-17
6260.208 5.098e-17
6261.737 4.741e-17
6263.266 4.647e-17
6264.795 4.365e-17
6266.324 4.37e-17
6267.853 4.853e-17
6269.382 4.199e-17
6270.911 5.131e-17
6272.44 5.157e-17
6273.97 4.666e-17
6275.498 6.048e-17
6277.028 4.552e-17
6278.556 4.948e-17
6280.086 5.751e-17
6281.615 4.998e-17
6283.144 5.217e-17
6284.674 4.663e-17
6286.202 4.593e-17
6287.732 4.147e-17
6289.262 5.114e-17
6290.79 4.316e-17
6292.32 4.668e-17
6293.849 4.234e-17
6295.379 6.198e-17
6296.907 5.051e-17
6298.437 5.056e-17
6299.967 4.671e-17
6301.496 5.444e-17
6303.026 4.332e-17
6304.555 4.542e-17
6306.085 5.377e-17
6307.615 3.622e-17
6309.144 4.288e-17
6310.674 4.24e-17
6312.203 3.696e-17
6313.733 4.565e-17
6315.263 4.97e-17
6316.792 4.098e-17
6318.322 4.52e-17
6319.851 3.924e-17
6321.381 4.691e-17
6322.91 4.028e-17
6324.44 4.853e-17
6325.97 3.769e-17
6327.5 4.646e-17
6329.03 4.191e-17
6330.559 4.329e-17
6332.089 4.463e-17
6333.62 4.549e-17
6335.149 4.062e-17
6336.679 4.67e-17
6338.209 3.571e-17
6339.739 4.649e-17
6341.269 3.609e-17
6342.799 4.449e-17
6344.329 4.29e-17
6345.859 4.368e-17
6347.389 4.76e-17
6348.919 4.428e-17
6350.449 4.283e-17
6351.98 4.08e-17
6353.509 5.075e-17
6355.04 4.665e-17
6356.569 3.98e-17
6358.1 4.799e-17
6359.63 4.892e-17
6361.16 4.549e-17
6362.691 4.378e-17
6364.22 4.607e-17
6365.751 4.142e-17
6367.282 3.823e-17
6368.811 3.356e-17
6370.342 4.36e-17
6371.872 4.563e-17
6373.403 4.531e-17
6374.934 4.559e-17
6376.463 4.109e-17
6377.994 4.459e-17
6379.524 4.127e-17
6381.055 4.635e-17
6382.585 4.325e-17
6384.116 4.729e-17
6385.647 4.172e-17
6387.177 4.108e-17
6388.708 4.549e-17
6390.238 3.679e-17
6391.769 4.141e-17
6393.3 4.431e-17
6394.83 4.418e-17
6396.361 3.959e-17
6397.891 3.502e-17
6399.422 4.562e-17
6400.953 4.388e-17
6402.483 4.269e-17
6404.014 4.999e-17
6405.545 4.291e-17
6407.076 4.105e-17
6408.606 4.221e-17
6410.137 3.929e-17
6411.669 3.749e-17
6413.199 4.227e-17
6414.73 4.535e-17
6416.261 4.54e-17
6417.792 4.301e-17
6419.323 4.445e-17
6420.854 4.648e-17
6422.385 3.97e-17
6423.915 4.496e-17
6425.447 4.935e-17
6426.978 4.173e-17
6428.509 4.065e-17
6430.04 3.969e-17
6431.571 4.526e-17
6433.102 4.256e-17
6434.633 4.377e-17
6436.165 4.52e-17
6437.696 4.661e-17
6439.227 3.66e-17
6440.758 4.446e-17
6442.289 4.279e-17
6443.821 4.705e-17
6445.352 4.047e-17
6446.883 5.009e-17
6448.415 4.182e-17
6449.946 4.307e-17
6451.477 4.76e-17
6453.009 4.561e-17
6454.54 4.813e-17
6456.072 3.98e-17
6457.603 4.547e-17
6459.134 4.406e-17
6460.665 4.128e-17
6462.197 4.299e-17
6463.729 3.991e-17
6465.26 4.906e-17
6466.792 3.884e-17
6468.323 4.858e-17
6469.855 4.417e-17
6471.387 4.417e-17
6472.918 4.118e-17
6474.45 4.003e-17
6475.981 3.956e-17
6477.513 3.645e-17
6479.045 4.056e-17
6480.576 4.149e-17
6482.108 4.255e-17
6483.64 3.718e-17
6485.172 4.21e-17
6486.703 3.873e-17
6488.235 3.668e-17
6489.767 4.07e-17
6491.299 4.221e-17
6492.831 4.223e-17
6494.362 4.206e-17
6495.894 3.659e-17
6497.427 4.615e-17
6498.958 4.553e-17
6500.491 4.529e-17
6502.022 3.85e-17
6503.554 3.896e-17
6505.087 3.968e-17
6506.618 3.5e-17
6508.151 3.634e-17
6509.682 4.151e-17
6511.215 4.07e-17
6512.746 3.743e-17
6514.279 3.425e-17
6515.811 3.845e-17
6517.343 4.109e-17
6518.875 4.323e-17
6520.407 4.236e-17
6521.939 4.138e-17
6523.472 4.369e-17
6525.004 3.702e-17
6526.536 3.469e-17
6528.068 3.534e-17
6529.601 4.348e-17
6531.134 4.474e-17
6532.665 4.472e-17
6534.198 4.355e-17
6535.73 4.131e-17
6537.263 3.934e-17
6538.794 3.667e-17
6540.327 3.488e-17
6541.86 3.732e-17
6543.392 2.599e-17
6544.925 3.472e-17
6546.457 3.173e-17
6547.99 3.562e-17
6549.523 4.8e-17
6551.055 4.302e-17
6552.588 4.356e-17
6554.12 3.901e-17
6555.653 4.637e-17
6557.186 4.342e-17
6558.718 3.579e-17
6560.251 3.396e-17
6561.783 4.119e-17
6563.316 4.209e-17
6564.848 3.973e-17
6566.381 4.161e-17
6567.914 4.583e-17
6569.447 3.939e-17
6570.98 4.319e-17
6572.512 4.018e-17
6574.045 4.461e-17
6575.578 3.958e-17
6577.111 4.016e-17
6578.644 3.243e-17
6580.176 5.154e-17
6581.71 4.631e-17
6583.243 3.93e-17
6584.775 3.616e-17
6586.309 3.484e-17
6587.841 3.952e-17
6589.375 3.884e-17
6590.907 4.435e-17
6592.44 3.236e-17
6593.974 3.556e-17
6595.506 4.291e-17
6597.04 3.596e-17
6598.572 4.042e-17
6600.106 4.308e-17
6601.639 4.683e-17
6603.172 3.801e-17
6604.706 3.357e-17
6606.238 4.295e-17
6607.772 3.912e-17
6609.305 3.46e-17
6610.838 3.532e-17
6612.372 3.269e-17
6613.905 3.433e-17
6615.438 4.141e-17
6616.971 3.713e-17
6618.505 3.136e-17
6620.038 4.123e-17
6621.571 4.032e-17
6623.105 3.815e-17
6624.638 3.845e-17
6626.172 4.008e-17
6627.706 3.003e-17
6629.238 3.97e-17
6630.772 2.781e-17
6632.305 3.928e-17
6633.839 3.839e-17
6635.373 3.736e-17
6636.906 3.874e-17
6638.44 4.011e-17
6639.973 3.908e-17
6641.507 4.322e-17
6643.04 3.557e-17
6644.574 4.183e-17
6646.108 3.114e-17
6647.641 3.203e-17
6649.175 3.594e-17
6650.708 3.283e-17
6652.243 3.156e-17
6653.777 3.673e-17
6655.31 3.654e-17
6656.844 3.327e-17
6658.377 3.697e-17
6659.912 3.985e-17
6661.446 2.701e-17
6662.979 3.186e-17
6664.513 3.192e-17
6666.047 3.479e-17
6667.581 3.374e-17
6669.114 3.855e-17
6670.649 3.631e-17
6672.183 3.526e-17
6673.716 3.071e-17
6675.251 3.158e-17
6676.784 3.701e-17
6678.318 3.007e-17
6679.853 3.186e-17
6681.386 3.588e-17
6682.921 3.255e-17
6684.454 3.72e-17
6685.989 3.843e-17
6687.522 3.331e-17
6689.057 3.684e-17
6690.592 3.436e-17
6692.125 3.075e-17
6693.66 3.355e-17
6695.193 2.949e-17
6696.728 3.681e-17
6698.263 3.407e-17
6699.796 3.341e-17
6701.331 3.909e-17
6702.865 2.384e-17
6704.399 3.574e-17
6705.934 3.48e-17
6707.468 3.087e-17
6709.003 3.913e-17
6710.536 3.749e-17
6712.071 3.356e-17
6713.605 3.348e-17
6715.14 3.549e-17
6716.675 3.255e-17
6718.209 3.65e-17
6719.743 3.561e-17
6721.277 3.789e-17
6722.812 3.898e-17
6724.347 3.998e-17
6725.881 3.482e-17
6727.416 3.055e-17
6728.95 4.009e-17
6730.485 3.956e-17
6732.02 3.774e-17
6733.554 3.648e-17
6735.089 3.816e-17
6736.623 3.737e-17
6738.158 3.437e-17
6739.692 3.355e-17
6741.228 3.263e-17
6742.763 3.679e-17
6744.297 2.894e-17
6745.832 3.564e-17
6747.366 3.527e-17
6748.901 3.388e-17
6750.437 3.218e-17
6751.971 3.056e-17
6753.506 3.551e-17
6755.04 2.826e-17
6756.576 3.012e-17
6758.11 4.284e-17
6759.645 3.961e-17
6761.181 2.743e-17
6762.715 3.45e-17
6764.25 2.632e-17
6765.785 3.353e-17
6767.32 3.568e-17
6768.856 3.413e-17
6770.39 2.965e-17
6771.926 2.741e-17
6773.46 3.691e-17
6774.995 3.122e-17
6776.531 2.91e-17
6778.065 3.373e-17
6779.601 2.977e-17
6781.136 3.095e-17
6782.671 3.72e-17
6784.206 2.834e-17
6785.741 3.508e-17
6787.277 2.657e-17
6788.812 2.273e-17
6790.347 2.821e-17
6791.882 2.544e-17
6793.418 2.466e-17
6794.953 2.821e-17
6796.488 3.217e-17
6798.024 3.787e-17
6799.558 3.144e-17
6801.094 2.53e-17
6802.63 3.07e-17
6804.165 2.848e-17
6805.701 2.832e-17
6807.235 3.026e-17
6808.771 3.408e-17
6810.306 3.252e-17
6811.842 3.603e-17
6813.378 3.292e-17
6814.913 2.885e-17
6816.449 2.809e-17
6817.984 2.93e-17
6819.52 2.701e-17
6821.056 3.254e-17
6822.591 3.303e-17
6824.127 3.012e-17
6825.662 3.567e-17
6827.198 3.07e-17
6828.733 3.496e-17
6830.269 3.009e-17
6831.805 2.714e-17
6833.34 2.959e-17
6834.876 2.662e-17
6836.411 2.913e-17
6837.947 2.801e-17
6839.484 2.951e-17
6841.019 2.398e-17
6842.555 2.738e-17
6844.09 3.488e-17
6845.626 2.686e-17
6847.163 2.859e-17
6848.698 2.59e-17
6850.234 3.088e-17
6851.769 2.732e-17
6853.306 3.365e-17
6854.841 2.976e-17
6856.377 2.941e-17
6857.914 2.23e-17
6859.449 2.525e-17
6860.986 2.388e-17
6862.521 4.138e-17
6864.057 3.31e-17
6865.594 2.502e-17
6867.129 4.005e-17
6868.666 2.742e-17
6870.201 2.643e-17
6871.738 3.37e-17
6873.274 3.032e-17
6874.81 3.769e-17
6876.346 3.768e-17
6877.882 3.14e-17
6879.418 3.023e-17
6880.954 3.519e-17
6882.491 3.312e-17
6884.027 2.687e-17
6885.563 3.529e-17
6887.1 3.004e-17
6888.635 2.754e-17
6890.172 2.628e-17
6891.709 3.163e-17
6893.244 2.629e-17
6894.781 2.947e-17
6896.317 3.716e-17
6897.854 2.982e-17
6899.389 3.811e-17
6900.926 3.906e-17
6902.463 3.128e-17
6903.999 3.667e-17
6905.536 3.036e-17
6907.072 3.274e-17
6908.608 3.034e-17
6910.145 3.453e-17
6911.681 3.118e-17
6913.218 3.074e-17
6914.754 3.541e-17
6916.291 3.027e-17
6917.828 2.575e-17
6919.364 3.097e-17
6920.901 3.399e-17
6922.437 3.229e-17
6923.974 4.025e-17
6925.51 3.19e-17
6927.047 3.382e-17
6928.584 3.427e-17
6930.12 3.16e-17
6931.657 3.451e-17
6933.194 3.344e-17
6934.731 2.835e-17
6936.268 2.663e-17
6937.804 3.193e-17
6939.341 3.622e-17
6940.877 3.22e-17
6942.415 2.769e-17
6943.951 2.959e-17
6945.488 3.187e-17
6947.025 2.532e-17
6948.562 3.348e-17
6950.099 2.485e-17
6951.635 2.798e-17
6953.172 2.752e-17
6954.71 3.136e-17
6956.246 2.742e-17
6957.784 3.185e-17
6959.32 3.861e-17
6960.857 3.09e-17
6962.395 3.513e-17
6963.931 3.422e-17
6965.469 3.201e-17
6967.005 2.449e-17
6968.542 2.834e-17
6970.079 3.691e-17
6971.616 3.233e-17
6973.154 2.713e-17
6974.691 2.635e-17
6976.228 2.864e-17
6977.765 3.551e-17
6979.302 2.455e-17
6980.84 3.17e-17
6982.376 2.832e-17
6983.914 2.903e-17
6985.451 3.442e-17
6986.988 3.005e-17
6988.525 3.008e-17
6990.063 2.957e-17
6991.6 2.934e-17
6993.137 3.468e-17
6994.675 3.429e-17
6996.211 2.856e-17
6997.749 3.388e-17
6999.287 2.745e-17
7000.824 3.046e-17
7002.362 2.977e-17
7003.898 3.099e-17
7005.436 3.406e-17
7006.974 3.26e-17
7008.511 3.361e-17
7010.049 3.032e-17
7011.586 3.512e-17
7013.124 2.732e-17
7014.66 3.14e-17
7016.198 3.225e-17
7017.736 2.682e-17
7019.273 2.193e-17
7020.811 2.924e-17
7022.348 2.869e-17
7023.886 3.501e-17
7025.424 3.972e-17
7026.961 5.224e-17
7028.499 4.507e-17
7030.036 4.042e-17
7031.575 3.435e-17
7033.112 3.284e-17
7034.65 3.407e-17
7036.188 3.038e-17
7037.725 2.718e-17
7039.263 2.754e-17
7040.8 2.785e-17
7042.338 3.012e-17
7043.877 3.531e-17
7045.414 2.681e-17
7046.952 3.041e-17
7048.489 3.278e-17
7050.028 3.062e-17
7051.565 3.505e-17
7053.103 2.934e-17
7054.641 3.141e-17
7056.179 3.227e-17
7057.717 3.49e-17
7059.254 3.385e-17
7060.793 3.045e-17
7062.331 2.871e-17
7063.868 3.325e-17
7065.407 3.214e-17
7066.944 3.127e-17
7068.483 3.074e-17
7070.021 3.503e-17
7071.559 3.565e-17
7073.097 3.001e-17
7074.635 2.998e-17
7076.173 3.6e-17
7077.711 3.875e-17
7079.249 3.577e-17
7080.788 3.335e-17
7082.325 2.866e-17
7083.864 3.253e-17
7085.401 3.212e-17
7086.94 3.266e-17
7088.478 3.935e-17
7090.016 3.229e-17
7091.555 3.068e-17
7093.092 3.4e-17
7094.631 2.59e-17
7096.169 2.968e-17
7097.707 3.155e-17
7099.246 3.474e-17
7100.784 3.31e-17
7102.323 3.475e-17
7103.86 3.444e-17
7105.399 3.121e-17
7106.938 3.085e-17
7108.476 3.607e-17
7110.014 3.265e-17
7111.552 3.354e-17
7113.091 3.253e-17
7114.63 3.189e-17
7116.168 3.228e-17
7117.707 3.418e-17
7119.245 3.583e-17
7120.783 3.885e-17
7122.321 3.895e-17
7123.86 3.194e-17
7125.399 3.131e-17
7126.937 3.335e-17
7128.476 3.296e-17
7130.014 3.698e-17
7131.553 2.952e-17
7133.092 2.897e-17
7134.63 2.815e-17
7136.169 3.232e-17
7137.707 3.03e-17
7139.246 3.409e-17
7140.784 3.516e-17
7142.324 3.184e-17
7143.863 3.039e-17
7145.401 3.612e-17
7146.94 3.4e-17
7148.478 2.727e-17
7150.017 3.609e-17
7151.556 3.292e-17
7153.095 3.356e-17
7154.634 3.305e-17
7156.172 3.652e-17
7157.711 3.569e-17
7159.25 3.353e-17
7160.789 3.138e-17
7162.328 3.629e-17
7163.866 3.572e-17
7165.406 3.232e-17
7166.944 3.667e-17
7168.483 3.042e-17
7170.023 3.247e-17
7171.561 3.529e-17
7173.1 4.001e-17
7174.639 3.398e-17
7176.178 2.974e-17
7177.718 3.722e-17
7179.256 3.555e-17
7180.795 3.813e-17
7182.334 2.856e-17
7183.873 3.562e-17
7185.412 3.404e-17
7186.951 3.463e-17
7188.491 3.967e-17
7190.029 3.388e-17
7191.569 3.423e-17
7193.107 3.086e-17
7194.647 2.99e-17
7196.187 3.395e-17
7197.725 3.749e-17
7199.265 4.538e-17
7200.803 3.77e-17
7202.343 3.443e-17
7203.882 3.698e-17
7205.421 3.461e-17
7206.961 3.393e-17
7208.5 3.276e-17
7210.039 2.762e-17
7211.578 3.398e-17
7213.118 3.039e-17
7214.657 3.778e-17
7216.196 3.713e-17
7217.736 3.216e-17
7219.275 3.988e-17
7220.814 2.589e-17
7222.353 3.268e-17
7223.893 3.428e-17
7225.433 3.631e-17
7226.972 2.995e-17
7228.512 3.272e-17
7230.05 3.43e-17
7231.59 3.228e-17
7233.13 2.808e-17
7234.669 4.004e-17
7236.209 3.422e-17
7237.748 4.375e-17
7239.288 2.786e-17
7240.827 3.921e-17
7242.367 2.836e-17
7243.907 3.106e-17
7245.446 2.926e-17
7246.986 4.157e-17
7248.525 3.469e-17
7250.065 2.858e-17
7251.605 3.383e-17
7253.144 3.079e-17
7254.684 2.939e-17
7256.223 2.955e-17
7257.763 3.309e-17
7259.303 3.294e-17
7260.842 3.898e-17
7262.383 3.233e-17
7263.922 3.047e-17
7265.462 3.59e-17
7267.001 2.9e-17
7268.541 3.579e-17
7270.081 3.202e-17
7271.621 4.061e-17
7273.161 4.842e-17
7274.7 3.806e-17
7276.24 3.268e-17
7277.781 3.202e-17
7279.32 2.778e-17
7280.86 4.303e-17
7282.399 3.296e-17
7283.94 4.163e-17
7285.479 3.646e-17
7287.019 2.549e-17
7288.56 3.191e-17
7290.099 3.461e-17
7291.639 3.403e-17
7293.179 3.17e-17
7294.719 4.058e-17
7296.26 3.897e-17
7297.799 3.159e-17
7299.34 2.632e-17
7300.879 3.197e-17
7302.419 2.52e-17
7303.959 4.213e-17
7305.499 3.188e-17
7307.04 3.441e-17
7308.579 3.136e-17
7310.12 2.423e-17
7311.66 2.456e-17
7313.2 2.866e-17
7314.741 2.391e-17
7316.28 3.649e-17
7317.821 3.908e-17
7319.36 2.67e-17
7320.901 2.943e-17
7322.441 3.059e-17
7323.981 3.532e-17
7325.522 5.248e-17
7327.062 4.159e-17
7328.602 2.661e-17
7330.142 2.256e-17
7331.683 3.59e-17
7333.223 2.469e-17
7334.763 2.162e-17
7336.304 2.83e-17
7337.844 3.379e-17
7339.384 2.533e-17
7340.925 2.416e-17
7342.465 1.739e-17
7344.006 3.605e-17
7345.546 3.048e-17
7347.086 2.406e-17
7348.626 2.598e-17
7350.167 3.404e-17
7351.708 2.752e-17
7353.248 2.75e-17
7354.789 1.838e-17
7356.329 3.577e-17
7357.869 3.03e-17
7359.41 2.705e-17
7360.95 3.006e-17
7362.491 2.846e-17
7364.031 2.267e-17
7365.572 3.076e-17
7367.112 3.806e-17
7368.653 3.119e-17
7370.194 3.234e-17
7371.734 2.425e-17
7373.275 2.302e-17
7374.815 2.906e-17
7376.356 3.294e-17
7377.897 3.293e-17
7379.438 2.961e-17
7380.979 3.598e-17
7382.519 2.704e-17
7384.06 2.339e-17
7385.6 2.286e-17
7387.141 2.478e-17
7388.682 3.046e-17
7390.222 3.052e-17
7391.764 2.85e-17
7393.304 3.18e-17
7394.845 2.789e-17
7396.386 3.009e-17
7397.926 1.969e-17
7399.468 3.435e-17
7401.008 2.912e-17
7402.549 3.475e-17
7404.089 2.058e-17
7405.631 2.707e-17
7407.172 2.892e-17
7408.712 2.433e-17
7410.254 3.666e-17
7411.794 2.875e-17
7413.335 2.544e-17
7414.877 2.623e-17
7416.417 2.961e-17
7417.958 2.328e-17
7419.499 3.102e-17
7421.04 3.166e-17
7422.581 3.576e-17
7424.122 4.347e-17
7425.663 3.558e-17
7427.204 3.168e-17
7428.745 2.566e-17
7430.286 2.949e-17
7431.827 3.527e-17
7433.369 3.379e-17
7434.909 3.514e-17
7436.451 2.332e-17
7437.991 2.737e-17
7439.533 3.019e-17
7441.073 2.636e-17
7442.615 3.251e-17
7444.157 2.902e-17
7445.697 3.724e-17
7447.239 2.831e-17
7448.779 3.31e-17
7450.321 2.851e-17
7451.863 3.313e-17
7453.403 2.552e-17
7454.945 3.077e-17
7456.486 3.024e-17
7458.027 2.629e-17
7459.569 3.628e-17
7461.11 2.228e-17
7462.651 3.286e-17
7464.192 2.66e-17
7465.734 3.258e-17
7467.275 3.105e-17
7468.816 3.034e-17
7470.358 3.092e-17
7471.899 3.333e-17
7473.441 2.91e-17
7474.981 3.162e-17
7476.523 2.811e-17
7478.065 2.98e-17
7479.606 3.108e-17
7481.148 2.579e-17
7482.689 2.255e-17
7484.231 2.798e-17
7485.771 2.484e-17
7487.313 3.205e-17
7488.855 2.578e-17
7490.396 2.758e-17
7491.938 3.252e-17
7493.479 2.826e-17
7495.021 3.554e-17
7496.563 3e-17
7498.104 2.599e-17
7499.646 2.834e-17
7501.187 2.683e-17
7502.729 2.735e-17
7504.27 2.937e-17
7505.812 2.98e-17
7507.354 3.019e-17
7508.895 2.364e-17
7510.437 2.784e-17
7511.978 3.152e-17
7513.52 2.473e-17
7515.062 2.566e-17
7516.603 3.125e-17
7518.145 3.363e-17
7519.687 2.686e-17
7521.229 3.044e-17
7522.77 2.635e-17
7524.312 4.101e-17
7525.854 2.55e-17
7527.395 2.232e-17
7528.938 2.87e-17
7530.479 2.694e-17
7532.021 2.396e-17
7533.563 2.478e-17
7535.104 2.658e-17
7536.647 2.196e-17
7538.188 2.362e-17
7539.73 2.22e-17
7541.272 3.258e-17
7542.814 2.91e-17
7544.356 2.307e-17
7545.897 2.858e-17
7547.44 2.451e-17
7548.981 2.614e-17
7550.523 2.328e-17
7552.066 2.891e-17
7553.607 2.955e-17
7555.15 3.021e-17
7556.691 2.448e-17
7558.233 3.308e-17
7559.775 2.712e-17
7561.317 2.222e-17
7562.86 3.133e-17
7564.401 2.538e-17
7565.943 2.266e-17
7567.485 2.221e-17
7569.027 2.459e-17
7570.57 3.293e-17
7572.111 2.637e-17
7573.654 2.547e-17
7575.195 2.631e-17
7576.738 2.643e-17
7578.279 2.877e-17
7579.822 2.529e-17
7581.365 2.274e-17
7582.906 3.253e-17
7584.449 2.358e-17
7585.99 2.763e-17
7587.533 2.952e-17
7589.075 2.208e-17
7590.617 2.763e-17
7592.16 2.831e-17
7593.701 2.27e-17
7595.244 2.626e-17
7596.786 2.89e-17
7598.328 2.253e-17
7599.871 3.307e-17
7601.413 2.268e-17
7602.955 1.621e-17
7604.497 2.036e-17
7606.04 2.395e-17
7607.583 3.873e-17
7609.124 2.462e-17
7610.667 2.239e-17
7612.209 2.865e-17
7613.752 2.135e-17
7615.293 2.675e-17
7616.836 2.295e-17
7618.379 2.156e-17
7619.921 2.472e-17
7621.464 3.369e-17
7623.006 2.594e-17
7624.548 2.084e-17
7626.091 2.709e-17
7627.633 2.199e-17
7629.176 3.006e-17
7630.718 2.419e-17
7632.261 2.1e-17
7633.804 2.874e-17
7635.346 2.654e-17
7636.889 2.557e-17
7638.43 2.03e-17
7639.973 1.761e-17
7641.515 1.653e-17
7643.058 2.028e-17
7644.601 2.447e-17
7646.143 3.203e-17
7647.686 1.986e-17
7649.228 2.669e-17
7650.771 3.274e-17
7652.314 2.072e-17
7653.856 3.214e-17
7655.399 2.314e-17
7656.941 2.634e-17
7658.485 2.712e-17
7660.027 2.619e-17
7661.57 2.135e-17
7663.113 2.772e-17
7664.655 2.975e-17
7666.198 2.047e-17
7667.74 2.805e-17
7669.283 2.653e-17
7670.826 2.573e-17
7672.369 3.024e-17
7673.912 3.195e-17
7675.454 2.588e-17
7676.997 2.611e-17
7678.539 2.376e-17
7680.083 2.372e-17
7681.626 2.679e-17
7683.168 2.628e-17
7684.711 1.802e-17
7686.253 2.531e-17
7687.797 2.714e-17
7689.34 2.606e-17
7690.882 3.049e-17
7692.426 1.777e-17
7693.968 2.108e-17
7695.511 2.487e-17
7697.053 2.682e-17
7698.597 3.149e-17
7700.14 2.75e-17
7701.682 2.547e-17
7703.226 2.196e-17
7704.768 2.635e-17
7706.312 2.867e-17
7707.855 2.872e-17
7709.397 2.604e-17
7710.941 3.96e-17
7712.483 2.834e-17
7714.027 3.338e-17
7715.569 4.38e-17
7717.112 3.273e-17
7718.656 3.435e-17
7720.198 2.283e-17
7721.742 3.45e-17
7723.284 1.546e-17
7724.828 2.464e-17
7726.371 2.292e-17
7727.914 2.437e-17
7729.457 2.036e-17
7731.0 2.88e-17
7732.543 3e-17
7734.086 2.377e-17
7735.629 2.353e-17
7737.173 3.077e-17
7738.716 2.645e-17
7740.259 3.133e-17
7741.802 2.568e-17
7743.345 2.884e-17
7744.889 3.02e-17
7746.432 1.6e-17
7747.975 2.211e-17
7749.518 2.114e-17
7751.062 3.668e-17
7752.604 2.796e-17
7754.148 2.121e-17
7755.692 3.072e-17
7757.234 3.074e-17
7758.778 2.362e-17
7760.321 2.69e-17
7761.864 2.062e-17
7763.408 2.558e-17
7764.951 1.992e-17
7766.494 2.848e-17
7768.037 2.261e-17
7769.581 2.402e-17
7771.124 2.482e-17
7772.668 2.9e-17
7774.211 2.381e-17
7775.754 2.591e-17
7777.298 2.123e-17
7778.841 2.823e-17
7780.385 3.296e-17
7781.928 2.912e-17
7783.471 2.491e-17
7785.015 2.075e-17
7786.558 2.31e-17
7788.102 2.061e-17
7789.645 2.092e-17
7791.189 2.819e-17
7792.732 1.509e-17
7794.275 2.549e-17
7795.819 2.298e-17
7797.362 2.895e-17
7798.906 2.299e-17
7800.45 2.386e-17
7801.993 2.151e-17
7803.537 2.625e-17
7805.08 2.286e-17
7806.624 2.658e-17
7808.167 2.796e-17
7809.711 2.732e-17
7811.255 1.96e-17
7812.798 2.069e-17
7814.342 2.653e-17
7815.885 2.871e-17
7817.429 3.044e-17
7818.973 2.726e-17
7820.516 2.615e-17
7822.06 2.325e-17
7823.603 1.949e-17
7825.147 2.333e-17
7826.69 2.309e-17
7828.234 2.201e-17
7829.779 2.683e-17
7831.322 2.773e-17
7832.866 2.561e-17
7834.409 2.175e-17
7835.953 2.177e-17
7837.497 2.896e-17
7839.04 2.234e-17
7840.585 2.415e-17
7842.128 2.316e-17
7843.672 2.618e-17
7845.215 2.292e-17
7846.759 2.402e-17
7848.303 1.699e-17
7849.847 3.756e-17
7851.391 2.621e-17
7852.934 3.826e-17
7854.478 3.174e-17
7856.023 1.961e-17
7857.566 2.485e-17
7859.11 2.099e-17
7860.653 2.591e-17
7862.198 1.602e-17
7863.741 2.265e-17
7865.285 2.571e-17
7866.83 2.244e-17
7868.373 2.212e-17
7869.917 3.368e-17
7871.461 1.712e-17
7873.005 2.309e-17
7874.549 2.145e-17
7876.093 2.575e-17
7877.637 1.312e-17
7879.18 2.991e-17
7880.725 2.428e-17
7882.268 2.2e-17
7883.813 1.825e-17
7885.357 2.839e-17
7886.9 2.196e-17
7888.445 3.657e-17
7889.988 2.196e-17
7891.533 2.968e-17
7893.077 3.24e-17
7894.621 2.07e-17
7896.165 2.882e-17
7897.709 2.36e-17
7899.253 2.033e-17
7900.797 2.76e-17
7902.341 2.831e-17
7903.886 2.477e-17
7905.429 3.123e-17
7906.974 2.852e-17
7908.517 1.907e-17
7910.062 2.447e-17
7911.606 1.765e-17
7913.15 2.921e-17
7914.694 3.081e-17
7916.238 2.297e-17
7917.783 3.466e-17
7919.326 2.96e-17
7920.871 1.893e-17
7922.415 3.276e-17
7923.959 3.151e-17
7925.504 2.874e-17
7927.047 2.384e-17
7928.592 3.181e-17
7930.136 1.797e-17
7931.68 3.155e-17
7933.225 1.963e-17
7934.769 2.216e-17
7936.313 2.158e-17
7937.857 1.925e-17
7939.402 2.467e-17
7940.946 2.424e-17
7942.49 2.375e-17
7944.035 2.051e-17
7945.578 2.971e-17
7947.123 3.872e-17
7948.667 2.972e-17
7950.212 3.387e-17
7951.756 3.024e-17
7953.3 2.392e-17
7954.845 2.641e-17
7956.389 2.037e-17
7957.934 2.441e-17
7959.478 2.779e-17
7961.022 1.648e-17
7962.567 2.605e-17
7964.111 2.82e-17
7965.656 3.47e-17
7967.199 1.669e-17
7968.744 1.245e-17
7970.289 1.982e-17
7971.833 2.386e-17
7973.378 1.885e-17
7974.922 3.712e-17
7976.467 2.807e-17
7978.012 2.547e-17
7979.555 3.039e-17
7981.1 2.39e-17
7982.644 2.655e-17
7984.189 2.494e-17
7985.733 3.098e-17
7987.278 2.747e-17
7988.823 1.848e-17
7990.367 2.603e-17
7991.912 3.781e-17
7993.456 1.888e-17
7995.001 4.482e-17
7996.546 3.469e-17
7998.09 2.218e-17
7999.635 2.732e-17
8001.179 2.952e-17
8002.724 2.123e-17
8004.268 2.857e-17
8005.813 2.175e-17
8007.358 2.059e-17
8008.902 2.4e-17
8010.447 3.128e-17
8011.991 2.152e-17
8013.536 3.285e-17
8015.081 2.375e-17
8016.625 2.209e-17
8018.17 2.596e-17
8019.714 2.654e-17
8021.259 2.128e-17
8022.804 2.284e-17
8024.349 1.802e-17
8025.894 2.52e-17
8027.438 2.315e-17
8028.983 2.446e-17
8030.527 2.893e-17
8032.072 2.018e-17
8033.618 2.598e-17
8035.162 2.447e-17
8036.707 2.351e-17
8038.251 2.074e-17
8039.796 2.747e-17
8041.34 2.067e-17
8042.886 2.391e-17
8044.431 2.053e-17
8045.975 2.044e-17
8047.52 1.646e-17
8049.065 2.447e-17
8050.61 2.707e-17
8052.155 2.011e-17
8053.699 1.829e-17
8055.244 2.178e-17
8056.789 1.971e-17
8058.334 2.594e-17
8059.878 3.013e-17
8061.424 2.234e-17
8062.969 1.871e-17
8064.513 2.004e-17
8066.058 2.188e-17
8067.603 2.338e-17
8069.148 2.33e-17
8070.693 1.991e-17
8072.238 1.931e-17
8073.783 2.482e-17
8075.327 2.124e-17
8076.873 2.534e-17
8078.417 2.58e-17
8079.963 2.447e-17
8081.508 2.708e-17
8083.052 2.237e-17
8084.598 1.713e-17
8086.142 2.227e-17
8087.687 2.075e-17
8089.233 2.711e-17
8090.777 2.765e-17
8092.323 2.077e-17
8093.867 2.32e-17
8095.413 3.162e-17
8096.957 1.71e-17
8098.503 2.197e-17
8100.048 1.399e-17
8101.592 1.748e-17
8103.138 2.259e-17
8104.682 1.717e-17
8106.228 2.225e-17
8107.773 2.208e-17
8109.318 2.205e-17
8110.863 2.481e-17
8112.408 1.749e-17
8113.953 2.784e-17
8115.498 1.88e-17
8117.043 2.716e-17
8118.589 2.396e-17
8120.134 2.22e-17
8121.679 1.98e-17
8123.224 2.421e-17
8124.769 1.82e-17
8126.315 2.652e-17
8127.859 1.94e-17
8129.405 2.319e-17
8130.949 1.913e-17
8132.495 2.514e-17
8134.04 2.303e-17
8135.585 2.286e-17
8137.131 2.152e-17
8138.676 2.467e-17
8140.221 2.4e-17
8141.766 2.659e-17
8143.311 1.918e-17
8144.856 2.182e-17
8146.402 2.267e-17
8147.947 2.028e-17
8149.492 1.76e-17
8151.038 2.18e-17
8152.582 1.889e-17
8154.128 2.177e-17
8155.674 1.893e-17
8157.218 2.186e-17
8158.764 2.194e-17
8160.309 2.253e-17
8161.855 1.52e-17
8163.399 2.026e-17
8164.945 2.481e-17
8166.491 2.179e-17
8168.036 2.001e-17
8169.581 1.91e-17
8171.126 2.375e-17
8172.672 2.38e-17
8174.218 2.302e-17
8175.762 2.106e-17
8177.308 2.28e-17
8178.853 2.068e-17
8180.399 2.326e-17
8181.944 2.2e-17
8183.489 3.136e-17
8185.035 2.335e-17
8186.58 2.015e-17
8188.126 2.038e-17
8189.671 2.11e-17
8191.216 1.803e-17
8192.762 2.522e-17
8194.307 2.762e-17
8195.853 2.122e-17
8197.398 1.897e-17
8198.944 2.694e-17
8200.489 2.34e-17
8202.034 2.586e-17
8203.58 2.101e-17
8205.125 2.257e-17
8206.671 2.795e-17
8208.216 2.782e-17
8209.762 1.941e-17
8211.308 2.03e-17
8212.853 1.636e-17
8214.399 2.341e-17
8215.944 1.732e-17
8217.49 2.262e-17
8219.034 2.081e-17
8220.58 1.747e-17
8222.126 2.508e-17
8223.671 2.989e-17
8225.217 1.776e-17
8226.762 2.399e-17
8228.308 2.946e-17
8229.854 2.24e-17
8231.399 2.537e-17
8232.945 1.897e-17
8234.49 2.545e-17
8236.036 2.019e-17
8237.581 2.436e-17
8239.127 2.069e-17
8240.673 2.116e-17
8242.218 2.149e-17
8243.764 2.31e-17
8245.309 1.649e-17
8246.855 2.435e-17
8248.401 2.166e-17
8249.947 1.938e-17
8251.493 2.305e-17
8253.038 2.114e-17
8254.584 2.268e-17
8256.129 2.26e-17
8257.675 2.282e-17
8259.221 1.893e-17
8260.766 1.72e-17
8262.312 1.952e-17
8263.857 1.719e-17
8265.403 2.276e-17
8266.949 1.72e-17
8268.495 1.592e-17
8270.041 2.307e-17
8271.586 1.956e-17
8273.132 1.854e-17
8274.677 1.748e-17
8276.223 2.532e-17
8277.769 2.282e-17
8279.315 9.59e-18
8280.861 1.875e-17
8282.406 2.921e-17
8283.952 1.209e-17
8285.497 2.16e-17
8287.044 2.113e-17
8288.59 3.268e-17
8290.135 3.281e-17
8291.681 2.902e-17
8293.226 1.841e-17
8294.773 1.791e-17
8296.319 2.657e-17
8297.864 7.932e-18
8299.41 1.409e-17
8300.955 3.11e-17
8302.502 2.038e-17
8304.047 1.944e-17
8305.593 2.564e-17
8307.139 2.497e-17
8308.685 2.971e-17
8310.231 2.473e-17
8311.776 1.625e-17
8313.323 1.897e-17
8314.869 2.625e-17
8316.414 2.406e-17
8317.96 1.706e-17
8319.506 1.358e-17
8321.052 2.098e-17
8322.597 2.076e-17
8324.144 1.785e-17
8325.69 2.338e-17
8327.235 2.395e-17
8328.782 2.222e-17
8330.327 1.446e-17
8331.873 1.385e-17
8333.42 2.028e-17
8334.965 2.12e-17
8336.511 1.891e-17
8338.057 2.498e-17
8339.603 6.823e-18
8341.148 1.817e-17
8342.695 4.294e-17
8344.241 1.368e-17
8345.787 1.773e-17
8347.333 7.07e-18
8348.878 2.067e-17
8350.425 2.138e-17
8351.971 1.254e-17
8353.517 1.594e-17
8355.063 9.394e-18
8356.608 1.865e-17
8358.155 1.763e-17
8359.7 2.29e-17
8361.247 1.476e-17
8362.793 1.999e-17
8364.339 1.784e-17
8365.885 2.021e-17
8367.43 2.406e-17
8368.977 2.582e-17
8370.522 2.402e-17
8372.069 2.595e-17
8373.615 2.352e-17
8375.161 2.328e-17
8376.707 1.541e-17
8378.253 2.002e-17
8379.799 1.71e-17
8381.346 1.786e-17
8382.891 7.214e-18
8384.438 2.238e-17
8385.983 2.245e-17
8387.53 2.487e-17
8389.075 2.285e-17
8390.622 2.101e-17
8392.168 2.114e-17
8393.714 1.46e-17
8395.26 6.807e-18
8396.806 3.146e-17
8398.352 2.641e-17
8399.899 1.903e-17
8401.445 2.029e-17
8402.991 9.635e-18
8404.537 1.768e-17
8406.083 2.099e-17
8407.629 2.222e-17
8409.175 1.696e-17
8410.722 1.847e-17
8412.268 2.564e-17
8413.814 1.855e-17
8415.36 1.735e-17
8416.906 1.854e-17
8418.453 1.672e-17
8419.999 2.495e-17
8421.545 2.126e-17
8423.091 1.878e-17
8424.637 1.392e-17
8426.183 1.585e-17
8427.73 2.073e-17
8429.276 1.698e-17
8430.822 1.915e-17
8432.369 2.616e-17
8433.914 1.619e-17
8435.461 2.117e-17
8437.008 2.152e-17
8438.553 1.596e-17
8440.1 1.372e-17
8441.646 1.798e-17
8443.192 2.473e-17
8444.738 2.15e-17
8446.285 1.86e-17
8447.831 1.701e-17
8449.377 2.036e-17
8450.924 1.959e-17
8452.469 1.785e-17
8454.016 2.988e-17
8455.563 1.674e-17
8457.108 1.411e-17
8458.655 1.97e-17
8460.201 1.441e-17
8461.748 2.031e-17
8463.293 1.644e-17
8464.84 3.409e-17
8466.387 1.892e-17
8467.933 2.405e-17
8469.479 1.403e-17
8471.025 1.589e-17
8472.572 2.153e-17
8474.118 1.705e-17
8475.664 1.681e-17
8477.211 1.656e-17
8478.757 1.555e-17
8480.304 2.22e-17
8481.849 1.661e-17
8483.396 2.051e-17
8484.943 1.574e-17
8486.489 1.953e-17
8488.036 1.817e-17
8489.581 2.048e-17
8491.128 1.981e-17
8492.674 1.887e-17
8494.221 2.698e-17
8495.768 2.268e-17
8497.313 1.974e-17
8498.86 1.552e-17
8500.406 1.658e-17
8501.953 1.553e-17
8503.5 9.279e-18
8505.045 2.747e-17
8506.592 9.581e-18
8508.138 1.898e-17
8509.685 1.961e-17
8511.231 1.515e-17
8512.778 2.12e-17
8514.325 1.69e-17
8515.87 1.941e-17
8517.417 1.749e-17
8518.963 1.836e-17
8520.51 1.701e-17
8522.057 1.565e-17
8523.603 2.175e-17
8525.15 1.508e-17
8526.695 1.725e-17
8528.242 1.66e-17
8529.788 1.896e-17
8531.335 1.833e-17
8532.882 1.566e-17
8534.428 1.721e-17
8535.975 1.724e-17
8537.521 1.193e-17
8539.068 2.475e-17
8540.615 1.839e-17
8542.161 1.61e-17
8543.707 1.359e-17
8545.253 1.802e-17
8546.8 1.211e-17
8548.346 1.388e-17
8549.893 1.47e-17
8551.44 1.412e-17
8552.986 1.561e-17
8554.533 1.954e-17
8556.079 1.552e-17
8557.626 1.149e-17
8559.172 1.087e-17
8560.719 1.468e-17
8562.266 1.314e-17
8563.812 1.542e-17
8565.359 1.294e-17
8566.905 1.368e-17
8568.452 1.446e-17
8569.999 1.471e-17
8571.545 1.323e-17
8573.092 1.472e-17
8574.638 1.17e-17
8576.185 1.321e-17
8577.731 1.523e-17
8579.278 2.292e-17
8580.825 1.331e-17
8582.371 1.524e-17
8583.918 1.49e-17
8585.464 1.474e-17
8587.011 1.662e-17
8588.558 8.805e-18
8590.104 1.167e-17
8591.651 1.39e-17
8593.197 1.546e-17
8594.744 1.274e-17
8596.29 1.014e-17
8597.837 1.734e-17
8599.384 1.594e-17
8600.93 1.863e-17
8602.477 1.609e-17
8604.023 1.643e-17
8605.57 6.364e-18
8607.117 2.058e-17
8608.663 1.143e-17
8610.21 1.659e-17
8611.756 1.582e-17
8613.303 1.154e-17
8614.849 1.44e-17
8616.397 1.672e-17
8617.944 1.393e-17
8619.49 6.445e-18
8621.037 1.683e-17
8622.583 1.71e-17
8624.13 7.731e-18
8625.676 1.592e-17
8627.223 2.262e-17
8628.77 1.47e-17
8630.316 1.814e-17
8631.863 1.987e-17
8633.41 2.244e-17
8634.957 1.018e-17
8636.504 2.346e-17
8638.05 1.835e-17
8639.597 1.495e-17
8641.143 1.667e-17
8642.69 1.435e-17
8644.236 1.743e-17
8645.784 2.605e-17
8647.331 7.63e-18
8648.877 1.753e-17
8650.424 1.403e-17
8651.97 2.231e-17
8653.517 1.537e-17
8655.064 2.164e-17
8656.61 2.088e-17
8658.158 1.884e-17
8659.704 1.402e-17
8661.251 2.013e-17
8662.797 1.679e-17
8664.344 1.705e-17
8665.891 7.155e-18
8667.438 1.969e-17
8668.985 1.36e-17
8670.531 1.683e-17
8672.078 1.727e-17
8673.625 1.187e-17
8675.171 1.122e-17
8676.719 1.467e-17
8678.265 1.741e-17
8679.812 1.124e-17
8681.358 1.763e-17
8682.905 1.884e-17
8684.453 1.932e-17
8685.999 2.055e-17
8687.546 1.321e-17
8689.092 1.837e-17
8690.639 1.853e-17
8692.187 1.571e-17
8693.733 1.879e-17
8695.28 2.014e-17
8696.826 1.416e-17
8698.373 2.193e-17
8699.92 1.51e-17
8701.467 1.605e-17
8703.014 1.946e-17
8704.56 1.8e-17
8706.108 1.891e-17
8707.654 2.121e-17
8709.201 2.244e-17
8710.747 1.525e-17
8712.294 1.854e-17
8713.842 1.847e-17
8715.388 1.512e-17
8716.935 1.871e-17
8718.481 2.199e-17
8720.029 1.503e-17
8721.576 1.833e-17
8723.122 1.566e-17
8724.669 1.723e-17
8726.216 1.893e-17
8727.763 1.975e-17
8729.309 1.788e-17
8730.856 2.204e-17
8732.404 1.172e-17
8733.95 2.004e-17
8735.497 2.286e-17
8737.044 2.009e-17
8738.591 1.923e-17
8740.138 1.649e-17
8741.684 2.25e-17
8743.232 1.798e-17
8744.778 1.474e-17
8746.325 1.656e-17
8747.871 2.338e-17
8749.419 1.875e-17
8750.966 1.437e-17
8752.512 1.966e-17
8754.06 1.771e-17
8755.606 2.554e-17
8757.153 1.875e-17
8758.701 2.987e-17
8760.247 1.242e-17
8761.794 3.514e-17
8763.34 1.705e-17
8764.888 3.187e-17
8766.434 1.145e-17
8767.981 5.997e-18
8769.529 2.075e-17
8771.075 1.271e-17
8772.622 7.244e-18
8774.169 2.657e-17
8775.716 1.157e-17
8777.262 3.408e-17
8778.81 1.844e-17
8780.357 2.893e-17
8781.903 1.077e-17
8783.451 1.42e-17
8784.997 2.011e-17
8786.544 1.205e-17
8788.092 1.079e-17
8789.638 1.701e-17
8791.185 1.684e-17
8792.732 1.779e-17
8794.279 1.56e-17
8795.825 1.603e-17
8797.373 1.875e-17
8798.92 1.426e-17
8800.466 1.892e-17
8802.014 1.833e-17
8803.56 2.267e-17
8805.107 1.471e-17
8806.655 1.746e-17
8808.201 2.045e-17
8809.748 1.898e-17
8811.295 2.095e-17
8812.842 1.871e-17
8814.388 1.706e-17
8815.936 2.254e-17
8817.483 1.817e-17
8819.03 1.693e-17
8820.577 2.173e-17
8822.123 1.86e-17
8823.671 1.696e-17
8825.218 4.213e-17
8826.764 4.549e-18
8828.312 4.949e-17
8829.858 1.28e-17
8831.406 1.255e-17
8832.952 3.2e-17
8834.499 2.141e-17
8836.047 1.502e-17
8837.593 2.82e-17
8839.14 9.82e-18
8840.687 1.353e-17
8842.234 1.604e-17
8843.781 2.036e-17
8845.328 2.037e-17
8846.875 2.248e-17
8848.422 1.179e-17
8849.969 1.744e-17
8851.516 2.418e-17
8853.063 1.49e-17
8854.61 1.663e-17
8856.157 2.059e-17
8857.704 1.79e-17
8859.25 1.388e-17
8860.798 1.685e-17
8862.344 1.875e-17
8863.892 3.094e-18
8865.439 2.881e-17
8866.986 8.874e-18
8868.533 2.185e-17
8870.079 1.361e-17
8871.627 2.076e-17
8873.174 2.057e-17
8874.721 1.361e-17
8876.268 1.63e-17
8877.814 1.467e-17
8879.362 1.481e-17
8880.908 2.403e-17
8882.456 3.116e-17
8884.003 1.404e-17
8885.549 2.387e-17
8887.097 3.683e-17
8888.643 6.635e-18
8890.191 1.304e-17
8891.738 2.005e-17
8893.285 2.232e-17
8894.832 2.077e-17
8896.378 1.895e-17
8897.926 1.629e-17
8899.472 1.886e-17
8901.02 2.819e-17
8902.567 1.58e-17
8904.114 1.627e-17
8905.661 2.096e-17
8907.207 1.679e-17
8908.755 1.474e-17
8910.301 1.242e-17
8911.849 1.593e-17
8913.396 1.66e-17
8914.943 -3.309e-20
8916.49 2.684e-17
8918.036 3.637e-17
8919.584 9.276e-18
8921.131 2.351e-17
8922.678 9.828e-18
8924.225 1.434e-17
8925.772 1.746e-17
8927.319 1.098e-17
8928.865 2.4e-17
8930.413 2.033e-17
8931.96 1.795e-17
8933.507 2.193e-17
8935.054 1.724e-17
8936.601 2.078e-17
8938.148 1.03e-17
8939.696 2.183e-17
8941.242 2.268e-17
8942.789 1.046e-17
8944.336 2.12e-17
8945.883 1.129e-17
8947.43 1.846e-17
8948.977 1.614e-17
8950.525 2.183e-17
8952.071 1.813e-17
8953.619 7.753e-18
8955.165 3.702e-17
8956.713 4.113e-17
8958.26 1.662e-17
8959.806 3.103e-17
8961.354 3.923e-18
8962.9 1.998e-17
8964.448 2.25e-17
8965.994 1.835e-17
8967.542 1.863e-17
8969.089 2.262e-17
8970.636 1.552e-17
8972.183 1.231e-17
8973.729 1.035e-17
8975.277 1.437e-17
8976.823 1.757e-17
8978.371 1.585e-17
8979.918 1.177e-17
8981.465 1.711e-17
8983.012 1.669e-17
8984.559 1.972e-17
8986.106 2.104e-17
8987.654 2.448e-17
8989.2 1.352e-17
8990.748 2.16e-17
8992.294 1.514e-17
8993.841 2.177e-17
8995.388 1.254e-17
8996.935 1.668e-17
8998.483 2.064e-18
9000.029 2.232e-17
9001.577 1.415e-17
9003.123 2.6e-17
9004.671 1.426e-17
9006.218 1.59e-17
9007.765 2.201e-17
9009.312 1.544e-17
9010.858 1.863e-17
9012.406 1.395e-17
9013.952 1.689e-17
9015.5 1.755e-17
9017.047 2.025e-17
9018.594 2.226e-17
9020.141 2.315e-17
9021.688 2.144e-17
9023.235 1.831e-17
9024.783 1.727e-17
9026.329 1.436e-17
9027.877 1.566e-17
9029.423 2.151e-17
9030.97 1.75e-17
9032.517 1.89e-17
9034.064 1.359e-17
9035.612 1.537e-17
9037.158 2.356e-17
9038.706 8.69e-18
9040.252 1.271e-17
9041.8 1.712e-17
9043.346 1.796e-17
9044.894 1.667e-17
9046.441 2.359e-17
9047.988 1.977e-17
9049.535 9.199e-18
9051.081 2.126e-17
9052.629 1.863e-17
9054.176 1.839e-17
9055.723 2.054e-17
9057.27 1.37e-17
9058.817 1.783e-17
9060.364 1.592e-17
9061.911 1.474e-17
9063.458 1.525e-17
9065.006 1.867e-17
9066.552 2.238e-17
9068.099 1.395e-17
9069.646 1.487e-17
9071.193 1.696e-17
9072.741 1.605e-17
9074.287 1.995e-17
9075.835 1.963e-17
9077.381 1.619e-17
9078.929 1.905e-17
9080.475 1.982e-17
9082.023 1.595e-17
9083.57 1.967e-17
9085.116 1.833e-17
9086.664 2.205e-17
9088.21 1.674e-17
9089.758 1.762e-17
9091.305 1.808e-17
9092.852 1.746e-17
9094.399 2.725e-17
9095.946 4.194e-17
9097.493 4.97e-17
9099.039 4.319e-17
9100.587 4.002e-17
9102.134 1.862e-17
9103.681 2.619e-17
9105.228 1.738e-17
9106.775 2.238e-17
9108.322 1.445e-17
9109.869 1.851e-17
9111.416 1.659e-17
9112.963 1.739e-17
9114.51 1.13e-17
9116.057 1.63e-17
9117.604 1.824e-17
9119.151 2.476e-17
9120.699 1.728e-17
9122.245 1.428e-17
9123.792 1.613e-17
9125.339 1.561e-17
9126.886 1.929e-17
9128.433 1.991e-17
9129.98 2.003e-17
9131.528 1.694e-17
9133.074 1.53e-17
9134.622 1.879e-17
9136.168 1.93e-17
9137.715 2.083e-17
9139.263 2.084e-17
9140.809 1.747e-17
9142.357 2.021e-17
9143.903 1.72e-17
9145.45 1.064e-17
9146.997 1.489e-17
9148.544 2.548e-17
9150.092 2.536e-17
9151.638 2.249e-17
9153.186 2.333e-17
9154.732 9.876e-18
9156.279 2.043e-17
9157.826 1.855e-17
9159.373 1.666e-17
9160.921 1.771e-17
9162.467 1.224e-17
9164.015 1.745e-17
9165.561 2.129e-17
9167.108 1.292e-17
9168.656 1.237e-17
9170.202 1.704e-17
9171.75 1.53e-17
9173.296 1.601e-17
9174.843 1.52e-17
9176.39 1.684e-17
9177.937 1.971e-17
9179.485 1.767e-17
9181.031 2.087e-17
9182.578 1.705e-17
9184.125 1.402e-17
9185.672 1.452e-17
9187.22 1.422e-17
9188.766 2.228e-17
9190.313 2.145e-17
9191.86 2.388e-17
9193.407 2.04e-17
9194.953 1.408e-17
9196.501 2.205e-17
9198.048 1.801e-17
9199.595 1.911e-17
9201.142 1.445e-17
9202.688 1.905e-17
9204.236 2.157e-17
9205.783 1.564e-17
9207.33 1.671e-17
9208.877 2.422e-17
9210.423 3.196e-17
9211.971 2.79e-17
9213.517 3.606e-17
9215.064 2.178e-17
9216.612 1.889e-17
9218.158 2.121e-17
9219.706 1.726e-17
9221.252 1.457e-17
9222.799 1.526e-17
9224.346 1.298e-17
9225.893 1.838e-17
9227.44 1.881e-17
9228.987 2.115e-17
9230.534 1.709e-17
9232.08 1.691e-17
9233.628 1.67e-17
9235.175 1.676e-17
9236.721 2.256e-17
9238.269 1.328e-17
9239.815 1.944e-17
9241.362 1.694e-17
9242.909 1.886e-17
9244.456 1.476e-17
9246.004 1.653e-17
9247.55 1.68e-17
9249.097 1.473e-17
9250.644 1.734e-17
9252.191 1.53e-17
9253.738 1.699e-17
9255.285 2.099e-17
9256.832 1.827e-17
9258.378 1.769e-17
9259.926 1.78e-17
9261.472 2.456e-17
9263.019 1.973e-17
9264.566 1.659e-17
9266.113 1.843e-17
9267.66 2.14e-17
9269.206 2.328e-17
9270.754 2.005e-17
9272.3 1.861e-17
9273.847 1.895e-17
9275.395 1.751e-17
9276.941 2.005e-17
9278.488 1.019e-17
9280.035 1.431e-17
9281.582 1.78e-17
9283.129 1.422e-17
9284.675 1.859e-17
9286.223 1.866e-17
9287.769 1.207e-17
9289.316 1.357e-17
9290.863 1.789e-17
9292.41 2.277e-17
9293.957 2.024e-17
9295.503 1.923e-17
9297.051 1.424e-17
9298.597 9.916e-18
9300.144 1.867e-17
9301.692 2.222e-17
9303.238 1.249e-18
9304.785 5.939e-18
9306.331 4.886e-17
9307.879 6.706e-18
9309.425 1.245e-17
9310.972 2.028e-17
9312.519 3.762e-17
9314.066 5.673e-17
9315.613 -1.447e-17
9317.159 5.027e-18
9318.706 4.308e-18
9320.254 2.744e-17
9321.8 7.646e-18
9323.347 4.884e-18
9324.893 2.051e-17
9326.441 -1.268e-17
9327.987 2.197e-18
9329.534 1.782e-17
9331.081 1.837e-17
9332.628 1.154e-17
9334.175 2.429e-17
9335.721 2.471e-17
9337.268 1.636e-17
9338.814 2.636e-17
9340.362 7.361e-18
9341.909 1.48e-17
9343.455 8.518e-18
9345.002 1.372e-17
9346.549 1.496e-17
9348.096 2.023e-17
9349.643 2.348e-17
9351.189 1.235e-17
9352.736 1.367e-17
9354.283 3.928e-17
9355.83 2.104e-17
9357.376 5.503e-18
9358.923 2.128e-17
9360.47 1.904e-17
9362.017 2.451e-17
9363.564 1.113e-17
9365.11 1.432e-17
9366.657 1.968e-17
9368.204 5.732e-18
9369.75 2.119e-17
9371.298 3.502e-17
9372.844 3.111e-17
9374.391 -3.666e-18
9375.937 1.989e-17
9377.484 7.536e-17
9379.031 -1.541e-17
9380.578 8.99e-18
9382.125 1.3e-17
9383.671 2.048e-17
9385.218 1.875e-17
9386.764 1.768e-17
9388.311 1.244e-17
9389.858 1.546e-17
9391.405 2.006e-17
9392.952 1.631e-17
9394.498 2.239e-17
9396.045 1.774e-17
9397.592 1.899e-17
9399.138 9.392e-18
9400.685 1.649e-17
9402.231 1.467e-17
9403.779 1.413e-17
9405.325 9.89e-18
9406.872 1.626e-17
9408.419 1.347e-17
9409.965 1.351e-17
9411.512 1.206e-17
9413.058 2.367e-17
9414.605 -2.742e-18
9416.152 3.264e-17
9417.698 1.01e-17
9419.245 3.451e-18
9420.792 2.749e-17
9422.339 1.37e-17
9423.885 1.93e-17
9425.432 1.445e-17
9426.979 2.061e-17
9428.525 2.037e-17
9430.072 1.441e-17
9431.618 1.882e-17
9433.165 4.672e-18
9434.712 1.228e-17
9436.258 3.801e-17
9437.805 6.75e-18
9439.351 2.648e-17
9440.898 9.423e-17
9442.444 -5.599e-18
9443.991 1.43e-17
9445.538 8.83e-18
9447.084 2.064e-17
9448.632 1.486e-17
9450.178 1.003e-17
9451.725 1.031e-17
9453.271 3.208e-18
9454.818 3.978e-17
9456.365 5.622e-17
9457.911 1.639e-17
9459.458 2.237e-17
9461.004 6.629e-18
9462.551 1.764e-17
9464.098 1.639e-17
9465.644 1.708e-17
9467.191 1.739e-17
9468.737 4.513e-18
9470.284 1.779e-17
9471.83 1.834e-17
9473.377 1.998e-17
9474.923 3.214e-17
9476.469 -1.854e-18
9478.016 2.111e-17
9479.562 -1.46e-17
9481.109 1.235e-17
9482.656 1.298e-17
9484.202 1.134e-17
9485.749 2.223e-17
9487.295 1.349e-17
9488.842 2.195e-17
9490.388 1.444e-17
9491.935 2.055e-17
9493.482 1.424e-17
9495.028 3.724e-18
9496.575 2.343e-17
9498.121 1.457e-17
9499.668 2.656e-17
9501.213 1.508e-17
9502.76 3.777e-17
9504.307 1.551e-17
9505.853 5.249e-18
9507.4 1.408e-17
9508.946 1.195e-17
9510.493 1.143e-17
9512.04 9.661e-18
9513.586 1.42e-17
9515.133 3.074e-17
9516.678 3.614e-17
9518.225 1.85e-17
9519.771 1.531e-17
9521.318 2.636e-17
9522.865 1.169e-17
9524.411 1.571e-17
9525.958 1.758e-17
9527.503 1.973e-17
9529.05 1.449e-17
9530.597 1.469e-17
9532.143 2.628e-17
9533.69 2.412e-17
9535.236 1.637e-17
9536.783 1.414e-17
9538.328 1.284e-17
9539.875 1.699e-17
9541.422 9.428e-18
9542.968 2.114e-17
9544.515 1.145e-17
9546.06 1.541e-17
9547.607 9.802e-18
9549.154 3.493e-17
9550.7 8.49e-19
9552.247 9.146e-18
9553.792 1.685e-17
9555.339 -3.315e-18
9556.885 1.475e-17
9558.432 1.869e-17
9559.979 5.564e-18
9561.524 4.817e-18
9563.071 -1.143e-17
9564.617 4.222e-17
9566.164 7.521e-18
9567.709 1.756e-17
9569.256 1.486e-17
9570.803 1.408e-17
9572.349 9.075e-18
9573.895 1.707e-17
9575.441 1.586e-17
9576.988 1.083e-17
9578.534 1.575e-17
9580.08 9.778e-18
9581.627 1.889e-17
9583.173 1.25e-17
9584.719 1.687e-17
9586.265 1.616e-17
9587.812 1.33e-17
9589.358 2.711e-17
9590.904 1.555e-17
9592.451 2.384e-17
9593.996 2.029e-17
9595.543 1.568e-17
9597.09 1.652e-17
9598.636 1.411e-17
9600.182 1.727e-17
9601.728 8.375e-18
9603.274 1.208e-17
9604.82 2.659e-17
9606.367 -1.794e-18
9607.913 1.85e-17
9609.459 2.18e-17
9611.006 8.873e-18
9612.551 1.151e-17
9614.098 1.623e-17
9615.645 7.507e-18
9617.19 1.935e-17
9618.737 9.032e-18
9620.282 2.063e-17
9621.829 2.13e-17
9623.375 1.786e-17
9624.921 1.047e-17
9626.468 1.836e-17
9628.013 1.845e-17
9629.56 1.687e-17
9631.106 2.366e-17
9632.652 1.843e-17
9634.198 1.633e-17
9635.744 1.387e-17
9637.291 1.172e-17
9638.836 1.268e-17
9640.383 1.862e-17
9641.929 1.041e-17
9643.475 1.388e-17
9645.022 1.932e-17
9646.567 1.726e-17
9648.114 1.321e-17
9649.659 1.875e-17
9651.206 2.11e-17
9652.751 1.554e-17
9654.298 2.414e-17
9655.844 2.227e-17
9657.39 6.47e-18
9658.936 2.289e-17
9660.482 2.836e-17
9662.028 1.37e-17
9663.575 6.48e-18
9665.12 3.165e-17
9666.667 4.599e-18
9668.212 7.178e-18
9669.759 3.679e-18
9671.304 9.212e-18
9672.85 9.364e-18
9674.397 1.821e-17
9675.942 1.121e-17
9677.489 1.757e-17
9679.034 1.689e-17
9680.581 8.593e-18
9682.126 1.627e-17
9683.673 -1.665e-18
9685.219 1.046e-17
9686.764 1.555e-17
9688.311 2.361e-17
9689.856 5.165e-18
9691.403 8.038e-18
9692.949 3.598e-18
9694.494 1.462e-17
9696.041 2.925e-17
9697.586 4.391e-17
9699.132 7.922e-18
9700.678 1.566e-17
9702.224 5.39e-18
9703.771 5.093e-18
9705.316 7.846e-18
9706.862 1.816e-17
9708.408 2.336e-17
9709.954 2.168e-17
9711.5 4.429e-18
9713.046 1.015e-17
9714.592 3.448e-18
9716.137 3.923e-17
9717.684 2.5e-17
9719.229 2.042e-17
9720.775 1.445e-17
9722.321 1.157e-17
9723.867 1.604e-17
9725.413 6.249e-18
9726.958 1.691e-17
9728.505 1.87e-17
9730.051 1.84e-17
9731.596 1.276e-17
9733.142 -2.44e-19
9734.688 1.455e-17
9736.234 1.508e-17
9737.779 1.074e-17
9739.325 1.535e-17
9740.872 1.821e-17
9742.417 8.594e-18
9743.963 7.254e-18
9745.508 2.193e-17
9747.054 9.453e-18
9748.6 1.286e-17
9750.146 1.388e-17
9751.692 1.183e-17
9753.237 1.622e-17
9754.783 6.683e-18
9756.329 2.006e-17
9757.875 8.829e-18
9759.421 1.269e-17
9760.966 1.807e-17
9762.512 1.13e-17
9764.057 1.755e-17
9765.604 1.528e-17
9767.149 8.264e-18
9768.695 1.805e-17
9770.241 7.455e-18
9771.786 9.516e-18
9773.332 1.741e-17
9774.877 1.281e-17
9776.423 1.313e-17
9777.97 2.142e-17
9779.515 5.53e-18
9781.061 1.147e-17
9782.606 7.626e-18
9784.152 1.127e-17
9785.697 1.064e-17
9787.243 2.444e-17
9788.789 3.826e-17
9790.334 9.624e-18
9791.88 2.857e-17
9793.425 1.634e-17
9794.971 5.778e-18
9796.516 2.53e-17
9798.062 1.409e-17
9799.608 1.8e-17
9801.153 7.535e-18
9802.699 -1.524e-18
9804.244 1.165e-17
9805.79 1.724e-17
9807.336 6.115e-18
9808.881 4.105e-17
9810.427 1.015e-17
9811.972 8.352e-18
9813.518 2.658e-17
9815.063 1.118e-17
9816.609 3.485e-18
9818.155 6.632e-18
9819.7 8.202e-18
9821.246 1.186e-17
9822.791 1.2e-17
9824.337 1.333e-17
9825.883 6.435e-18
9827.428 2.181e-17
9828.974 1.243e-17
9830.519 7.009e-18
9832.065 1.374e-17
9833.61 1.137e-17
9835.155 1.461e-17
9836.701 1.745e-17
9838.246 1.472e-18
9839.792 1.204e-17
9841.337 2.338e-17
9842.883 1.442e-17
9844.429 1.314e-17
9845.973 1.379e-17
9847.519 1.348e-17
9849.064 1.945e-17
9850.61 7.063e-18
9852.155 -1.355e-18
9853.701 1.944e-17
9855.246 7.164e-18
9856.791 1.974e-17
9858.337 1.455e-17
9859.882 1.242e-17
9861.428 2.144e-17
9862.972 8.268e-18
9864.518 9.895e-18
9866.064 4.567e-18
9867.609 4.119e-19
9869.154 -1.799e-18
9870.699 -1.381e-17
9872.245 -4.772e-18
9873.791 5.85e-17
9875.335 -9.929e-18
9876.881 1.923e-17
9878.426 1.849e-17
9879.972 3.009e-17
9881.516 1.148e-17
9883.062 1.395e-17
9884.608 2.267e-17
9886.152 1.066e-17
9887.698 1e-17
9889.243 1.606e-17
9890.788 1.434e-17
9892.334 2.963e-18
9893.879 3.656e-18
9895.424 1.301e-17
9896.969 2.101e-17
9898.515 8.324e-18
9900.059 1.931e-17
9901.605 1.055e-17
9903.151 2.691e-17
9904.695 1.333e-17
9906.241 1.27e-17
9907.785 1.39e-17
9909.331 -1.156e-18
9910.877 8.406e-18
9912.421 2.243e-17
9913.967 2.441e-17
9915.511 3.663e-19
9917.057 1.134e-17
9918.601 1.309e-17
9920.147 1.512e-17
9921.692 1.214e-17
9923.237 9.857e-18
9924.783 1.106e-17
9926.327 2.35e-17
9927.873 1.203e-18
9929.417 2.275e-17
9930.963 1.548e-17
9932.508 7.825e-18
9934.053 1.442e-17
9935.598 8.894e-18
9937.143 2.127e-17
9938.688 1.922e-17
9940.233 3.531e-17
9941.778 1.965e-17
9943.323 2.751e-17
9944.868 -1.358e-17
9946.413 -2.805e-18
9947.958 2.427e-17
9949.503 2.469e-17
9951.048 -5.416e-18
9952.593 2.601e-18
9954.138 1.552e-17
9955.683 1.63e-17
9957.228 -4.323e-18
9958.773 2.936e-17
9960.318 1.091e-17
9961.863 2.225e-17
9963.408 1.091e-17
9964.953 2.499e-17
9966.497 6.149e-18
9968.043 4.437e-18
9969.588 4.104e-18
9971.132 3.291e-17
9972.678 -8.442e-19
9974.222 1.958e-17
9975.767 6.92e-18
9977.311 1.001e-17
9978.857 3.211e-18
9980.402 9.654e-18
9981.946 2.12e-17
9983.492 8.601e-18
9985.036 1.008e-17
9986.581 1.793e-17
9988.126 4.994e-18
9989.671 1.205e-17
9991.216 2.759e-17
9992.76 1.693e-17
9994.305 2.031e-17
9995.849 3.691e-18
9997.395 3.652e-17
9998.94 2.859e-17
10000.484 5.92e-19
10002.029 4.024e-18
10003.573 2.025e-17
10005.119 2.222e-17
10006.664 1.318e-17
10008.208 1.252e-17
10009.753 4.23e-17
10011.297 2.522e-17
10012.842 1.179e-17
10014.386 3.889e-17
10015.931 9.843e-18
10017.477 -1.09e-17
10019.021 1.116e-17
10020.566 8.288e-18
10022.11 3.66e-17
10023.655 1.683e-17
10025.2 3.446e-17
10026.744 1.169e-17
10028.289 1.604e-17
10029.833 2.275e-17
10031.378 9.549e-18
10032.922 2.681e-17
10034.467 1.581e-17
10036.012 1.006e-17
10037.556 8.404e-18
10039.101 1.029e-17
10040.645 1.421e-17
10042.19 1.32e-17
10043.734 1.86e-17
10045.279 7.696e-18
10046.824 1.322e-17
10048.368 1.236e-17
10049.913 2.893e-17
10051.457 6.963e-18
10053.002 2.148e-17
10054.547 1.006e-18
10056.091 1.026e-17
10057.636 2.234e-17
10059.18 1.986e-17
10060.725 -9.274e-18
10062.269 2e-17
10063.813 1.482e-18
10065.358 2.076e-17
10066.902 2.513e-17
10068.447 2.708e-18
10069.991 1.278e-17
10071.536 3.243e-17
10073.081 2.153e-17
10074.624 4.949e-18
10076.169 2.277e-18
10077.713 2.159e-17
10079.258 9.922e-18
10080.802 4.325e-17
10082.346 1.839e-17
10083.891 2.894e-18
10085.435 1.622e-17
10086.98 -6.297e-18
10088.524 1.295e-17
10090.068 2.285e-17
10091.613 3.099e-17
10093.157 1.12e-17
10094.702 1.287e-17
10096.245 2.196e-17
10097.79 1.664e-17
10099.334 1.61e-17
10100.878 1.688e-17
10102.423 2.71e-17
10103.967 1.818e-18
10105.511 -8.812e-18
10107.055 2.905e-18
10108.6 -1.038e-17
10110.143 1.526e-17
10111.688 2.19e-17
10113.233 3.134e-17
10114.776 1.5e-17
10116.321 1.065e-17
10117.865 2.763e-17
10119.409 9.686e-18
10120.954 -1.065e-18
10122.497 3.907e-17
10124.042 2.806e-17
10125.585 -1.257e-17
10127.13 -5.094e-18
10128.674 9.62e-18
10130.218 3.378e-17
10131.763 2.935e-17
10133.306 4.267e-18
10134.851 3.305e-17
10136.394 6.928e-18
10137.939 5.784e-18
10139.483 1.661e-17
10141.027 3.743e-18
10142.571 2.069e-17
10144.115 9.248e-18
10145.659 3.447e-18
10147.203 -1.95e-18
10148.747 3.21e-18
10150.292 2.576e-17
10151.835 6.397e-18
10153.379 5.611e-17
10154.923 5.572e-17
10156.467 2.841e-17
10158.012 2.483e-17
10159.555 5.225e-19
10161.099 5.187e-18
10162.643 1.252e-17
10164.187 1.94e-17
10165.73 2.685e-17
10167.275 2.198e-17
10168.819 3.222e-17
10170.362 4.495e-17
10171.907 -2.101e-17
10173.45 1.794e-17
10174.994 -2.019e-17
10176.538 2.62e-17
10178.082 -1.014e-17
10179.626 2.209e-17
10181.17 2.193e-17
10182.714 -1.779e-17
10184.257 5.864e-18
10185.801 -5.843e-18
10187.346 1.905e-17
10188.889 1.146e-17
10190.433 -3.47e-18
10191.976 3.724e-17
10193.52 2.029e-17
10195.064 1.583e-17
10196.608 2.601e-17
10198.152 9.536e-18
10199.695 2.353e-17
10201.239 -4.294e-18
10202.782 1.25e-17
10204.327 3.959e-17
10205.871 -1.985e-17
10207.414 6.916e-18
10208.958 5.282e-17
10210.501 3.782e-17
10212.045 3.649e-17
10213.588 8.748e-17
10215.132 -2.877e-17
10216.676 -8.795e-18
10218.22 3.571e-17
10219.764 1.592e-17
10221.307 7.732e-18
10222.851 3.622e-17
10224.395 2.045e-17
10225.938 3.651e-17
10227.482 7.296e-17
10229.025 -2.678e-17
10230.569 1.976e-17
10232.112 5.658e-17
10233.656 1.572e-17
10235.2 9.616e-18
10236.743 1.203e-17
