 log(Bfield)      Mns    Pspin  cutoff_power  cutoff_wavelength  fnickel    kappa  kappagamma   mejecta  log(nhhost)  temperature  texplosion  thetaPB     vejecta      A_V        MJD_0   log(KE)      M_Ni  Peak_mag     Peak_MJD 
    13.52916  1.50383  1.98691       3.79079         2240.53322  0.01012  0.01836      0.0195  96.45725      20.4588   5330.52873   -48.81481  0.74131  2031.91302  0.15978  58726.37519  51.38917   1.00689  18.67097  58880.44487 
    13.87492  1.57019  1.41706       4.99941         2174.57251  0.16537  0.03412     0.06612  90.79362     19.98932   4446.22794   -24.57647  1.16567  2355.92995  0.05421  58750.61353  51.51384   16.3065  18.79925     58856.42 
    13.49477  1.43588  2.03736       0.38005         3748.49855  0.01247  0.02823     0.01634  78.59983     19.34124   4974.66944   -55.60429  0.94478  1861.17988  0.01219  58719.58571  51.29981   1.20354   18.6228  58894.49718 
    13.51898  1.90665  2.88662       3.39504         2417.98646  0.01026  0.01064     0.01552  86.20455     19.37005    4006.2974   -44.62448  1.11435  1956.58183  0.01303  58730.56552   51.3492   1.00387  18.72811   58886.6594 
    14.03898  1.72517  1.52754       4.57023         2189.80748   0.0176   0.0357     0.01733  97.98113     19.28371    6242.3517   -28.74674  0.49857  1969.66522  0.01068  58746.44326  51.36313   1.75512  18.82309  58859.22719 
    13.68934  1.82981  2.52609       4.92037         2103.42952  0.00145  0.02194     0.02184   81.4039     19.85886   4641.26194   -51.79324   0.7528  1892.77306  0.04014  58723.39676  51.31671   0.14078  18.77585     58860.28 
    13.40419  1.49336  2.22357       0.88538         3092.53855  0.00124  0.01966     0.02116  99.54998     19.29526   3810.13949   -54.11572  1.43125  1964.98681  0.01096  58721.07428  51.36206   0.12413  18.82713     58860.28 
    13.34813  1.23939  1.93847       0.81803         3692.64364  0.05057  0.02476     0.01298  97.41862     18.71705   6869.54917   -74.36687  1.44569  1626.01973   0.0029  58700.82313  51.19623   5.03769  18.78111  58877.69319 
    14.23932  1.28951  0.90749       4.97223         2066.01077  0.31133  0.05323     0.12096  62.32509     19.95456   5822.25853   -26.38458  0.45928  2611.56536  0.05004  58748.80542  51.57867  29.00391  18.87106    58855.251 
    14.04922  1.57073  0.96375       1.42461          2924.1174  0.01761  0.08337     0.09217  63.24096     19.84288   7004.83869   -30.49875  0.48844  2041.78088  0.03869  58744.69125  51.36587   1.64439  18.74284  58894.49718 
    14.47428  1.68339  0.80543       0.56269         3729.99374  0.31416   0.0332      0.4951  79.15688     19.71648   6178.06971   -29.61361  0.62546  2417.61481  0.02892  58745.57639  51.52747  30.35369   18.8025  58890.57829 
    13.37531  1.61408  2.64621       3.74427         2285.23281  0.03702  0.01047     0.02218  81.37097     19.71547    4128.8003   -51.79362  1.08599  1980.86675  0.02885  58723.39638  51.35619   3.59128  18.78116  58863.14607 
    13.49318  1.73083  3.06093       1.47911         3080.58091  0.10912   0.0101     0.02715  49.89439     20.05697   4380.99211   -35.78238  0.74609  2515.29288  0.06334  58739.40762  51.53078   9.81516  18.70308  58882.74052 
    13.54986   1.4914  2.27109        4.8838         2228.56422  0.01539  0.01479     0.01144  74.97334     20.16168   4784.90219   -44.87889  0.69496  1944.02358  0.08061  58730.31111  51.33455   1.47455  18.72974  58881.44546 
    14.56815  1.67744   0.7456       0.38635         3439.48169  0.38146  0.04434     0.28256  67.47929      16.8729   4179.17773    -31.6254  0.53655  2798.09048    4e-05   58743.5646  51.64391  35.97587  18.79815     58852.44 
    13.40942  1.06736  1.08383        4.2978         2183.20228  0.02388  0.03636     0.01623  96.08402     20.24937   5564.73376   -41.63535  1.09992  1799.15626  0.09865  58733.55465  51.28325   2.37408  18.76314  58847.47052 
    14.18002   1.3029  0.92909       4.89433         2261.80661  0.34713  0.04784     0.12653  55.97692     18.95427   5076.29235   -28.12575  0.60183  2344.30851    0.005  58747.06425  51.47759  31.79973  18.74009   58886.6594 
    13.57474  1.72759  2.53521       1.19982         3400.79192  0.00166   0.0112     0.03173  75.93872     20.27557   3796.91644   -46.01893  0.66843  2017.10307  0.10479  58729.17107  51.36744   0.15958  18.56374  58890.57829 
    13.49268  2.00067  3.37473        4.7074         2106.71165  0.05768   0.0101     0.02202  79.27081     18.95781   5970.55431   -55.57417  1.23341  2066.46163  0.00504  58719.61583  51.39124   5.57448  18.78349  58867.26072 
    13.46454  1.41635  2.24031       4.12705         2228.30544  0.02206  0.01305     0.02009  83.44749     20.04082   4640.78725   -45.03397  0.79381  1841.98141  0.06103  58730.15603  51.29468   2.14829  18.80592    58855.251 
    13.55285  1.82836  2.87967       4.74304         2345.42155  0.01275  0.01017     0.01232  82.45125     18.69789    4366.9948   -36.05134  1.06417   1952.6291  0.00277  58739.13866  51.34457   1.23974  18.73035  58869.24301 
     13.3243  1.68503  2.53936       0.87277         3575.47089  0.01735  0.01034     0.01101  76.68733     20.28051    4537.4013   -57.82104   1.3294  1971.54213  0.10598  58717.36896  51.34824   1.66804  18.74791  58871.22494 
     13.4134  1.62964  2.54347       3.46537         2356.82471  0.00429  0.01036     0.03335  92.27085     19.53116   3070.22403   -51.56678  0.97932  1995.39432  0.01887  58723.62322   51.3706   0.42428  18.71346  58867.06496 
    13.38027   1.2917   2.1444       4.43148         2157.23116  0.00856  0.01139     0.01797   80.9689     20.02454   5698.58268   -50.30638  0.78667  1805.84746  0.05879  58724.88362  51.27552   0.83013  18.76003    58855.251 
    13.43929  1.44015  2.21703       1.19491          3412.7305  0.00304   0.0206      0.0103  72.99859     19.55789    3986.1756    -54.6953  0.98518  1911.04189  0.02007   58720.4947  51.31794   0.29023  18.64629  58898.41607 
    14.40755  1.67938  1.65652       4.69999         2079.35764  0.34252  0.03605     0.10214  71.50354     20.43548    5535.9099   -23.41342  0.42595  2788.58255  0.15143  58751.77658   51.6448  32.59039  18.63951  58890.57829 
    13.37228  1.35841  1.87136       0.40889         3574.89169  0.02336  0.02933     0.01754  94.87531      19.0592   6635.34539   -68.34923  1.50766  1916.66611  0.00637  58706.84077   51.3374   2.31811  18.59714   58886.6594 
    13.36459  1.20065  1.65155       2.61819         2280.30551  0.00417    0.024     0.01813  79.57213      20.3975   4144.67845   -49.11631  0.88277  1998.22789  0.13875  58726.07369  51.36232   0.40294  18.70503   58886.6594 
    13.50879  1.36576  2.38015         1.148         3521.23032  0.01101   0.0114     0.01263  77.14164     19.68386   7427.54255   -54.95953  0.65626  1774.21204  0.02683  58720.23047  51.25702   1.05922  18.79906   58877.1189 
    14.37558  1.22736  0.77039       4.91124         2265.19895  0.49109  0.04568     0.05723  51.88469     19.41721    4725.3801   -17.29522  0.48855  2639.65389  0.01452  58757.89478  51.57542  44.44865  18.79217  58859.22719 
    13.90294  1.56748  1.31933       4.35473         2030.51101  0.06203  0.06028     0.18153   79.2174     18.79894   5993.35681    -45.4886  0.59773  2064.59648   0.0035   58729.7014  51.39041   5.99408  18.77218     58856.13 
    14.71258  1.86931  0.72221       0.36547         3417.67155  0.27227  0.05013     0.42057  72.86711     18.58407   5759.79105   -34.93342  0.32003  2568.58501  0.00213  58740.25658  51.57466  25.98051  18.82443  58863.14607 
    13.55377  1.62735  1.78654       0.19517          3677.5748  0.00461  0.05836     0.03274   78.0525     19.63923   5467.86596   -60.05469  1.18005  2150.46578  0.02421  58715.13531  51.42484   0.44435  18.79545     58860.28 
    13.39957  1.45958  2.22452        3.7557         2283.39684  0.00301  0.01621     0.02226  68.49674     20.13185   5265.27413   -47.63179  1.00199  2135.60132  0.07526  58727.55821  51.41023   0.28433  18.80997     58862.42 
    13.66474  1.53568  2.19605       0.40751         3509.57618  0.00108  0.01079     0.02467  86.77467     20.53311   3994.71305    -61.1066  0.39613  2181.56314   0.1896   58714.0834  51.44416   0.10581  18.72415  58894.49718 
     14.0038  1.25596  0.95735       4.90249         2228.40064  0.35942  0.05988     0.12604  54.54228      18.3523   4237.65896   -21.14208  0.87491  2696.21985  0.00125  58754.04792  51.59729  32.79078   18.5269  58894.49718 
    13.45194  1.25914  1.81004       1.27685         3238.30849  0.00106  0.01914     0.01346  93.64608     20.06533   6280.57023   -50.21238  0.76746  1799.04879  0.06457  58724.97762  51.28157   0.10527  18.55443  58902.33496 
    13.61384  1.50217  1.32315       4.44632         2047.76027  0.04003  0.05497     0.09791  79.45227     20.24517   6307.24809    -38.9585  1.17661  2149.56197   0.0977   58736.2315  51.42563   3.86941  18.58825  58894.49718 
    13.60504  1.61437  1.86126       0.02571         3790.95194  0.01194  0.04886     0.01458  81.93364      19.2456   5625.59678   -63.94618  1.01079  2073.06747  0.00978  58711.24382  51.39616   1.15918  18.57241  58890.57829 
    13.54157  1.93454  2.83227       3.46868         2330.94817  0.00836  0.01063     0.07239  85.10898     20.03522   3453.07085    -50.5655   1.0282  1907.32753  0.06025   58724.6245  51.32623   0.81646  18.80503     58862.42 
    13.49269  1.32225  1.60104       0.89767         3534.93472  0.00289  0.02842     0.01957  95.96127     20.19195    4651.6885   -43.27476   1.1018  1787.06439  0.08643  58731.91524  51.27731   0.28772  18.77442     58856.13 
    14.86059  1.71068  0.72257       0.53586         3697.25828   0.2842  0.02348     0.17167  78.31528     19.92502   5159.95977   -24.60289  0.30605  2530.92952  0.04675  58750.58711  51.56656  27.41556  18.71606  58867.26072 
    13.43063  1.78728  2.81217        4.3189         2058.85289  0.00707  0.01133     0.01088  59.93976     19.98932   3001.48303   -50.89692   1.2563  2119.37912  0.05421  58724.29308  51.39465   0.65459  18.82273  58869.24301 
    14.67229  1.45913  1.23398       4.86981         2350.36943  0.47387  0.02991     0.06404  50.77579     20.01972   4217.41177   -13.35895    0.308  2604.38804  0.05814  58761.83105  51.56224  42.74239   18.6976  58863.14607 
    13.88585  1.52168  2.35452       0.97342         3430.22967   0.0247  0.01557     0.02459  57.78627     20.37914    4515.7003   -43.52315  0.27104  2246.22217    0.133  58731.66685  51.44264   2.27432  18.77716  58902.33496 
    13.50888  1.49636  2.29953       4.61867         2210.52354  0.03059  0.01184     0.01207  88.77045     20.39855   4529.55524   -45.08278  0.73834  1919.43868  0.13908  58730.10722  51.33443   3.00674  18.73006  58874.90274 
    13.54833  1.42664  2.40457       1.65405         3059.93096  0.00691  0.01156     0.01719  83.88249     19.58438    4693.8529   -45.40418  0.66022  1943.09537  0.02134  58729.78582  51.34143   0.67309  18.51993  58902.33496 
    13.25223  1.07338  1.78454       2.29023          2750.7804  0.02553  0.01114     0.01377  92.97954     20.26824   5612.91206   -42.82036   0.9509  1877.87363  0.10303  58732.36964  51.31836   2.52632  18.76043  58871.22494 
    13.77937  1.72231  2.70147       2.96636         2669.89073  0.01358  0.01052     0.04994  99.32408     19.04719     4061.206   -50.58296  0.47741  1831.22342  0.00619  58724.60704  51.30068   1.35648  18.71537  58890.57829 
    13.78402  1.45463  2.46348       1.02067         3534.52763  0.01174  0.01432     0.02083  50.76059     19.21496   3470.34641   -47.51177  0.30377  2190.48436  0.00911  58727.67823  51.41189   1.05902  18.78212     58860.28 
    13.16495  1.26293  2.28206       3.67824         2138.05531  0.04207  0.01082     0.04314  94.66302     17.29189   5177.01016   -47.85219  1.55297  2370.00506  0.00011  58727.33781  51.52167   4.17387   18.6839  58894.49718 
    14.52971   1.8537  1.32204       0.36626           3602.175  0.28967   0.0288     0.43689  85.61862     19.97559   5393.56571   -28.51797  0.69412  2757.91176  0.05252  58746.67203  51.64692  28.31695  18.78183  58894.49718 
    13.32411  1.30505  2.15869        0.9386          3713.4137  0.00344  0.01227     0.01744  79.91702     19.21494   4274.07133   -58.24975  0.79953  1914.38063  0.00911  58716.94025  51.32537   0.33283  18.82005     58856.42 
    13.82333  1.56989  2.85269       0.87901         3603.45288  0.09507  0.01103     0.32067  59.95289     18.73539   4114.16909   -48.49937  0.29277  2328.06355  0.00302  58726.69063  51.47623   8.80395  18.71248  58867.06496 
    13.34984  1.44627  2.24127       1.13428         3578.92716  0.00105  0.01026     0.01147  78.61768     20.32539   4325.37516   -43.70612  1.09905  1910.06868  0.11752  58731.48388  51.32235   0.10114  18.81746     58862.42 
    14.83074  1.85991  1.18977       0.69395         3672.04019  0.41013  0.01741     0.12489  81.40204     20.68333   4388.72689   -19.29177  0.34578  2747.67603  0.26795  58755.89823  51.64044  39.79298  18.78801  58871.22494 
    13.54519  1.71179  2.69859       4.98432         2243.66742  0.02589  0.01261     0.03513  86.39084     19.20961   9332.11702   -55.32365  0.86964  1814.36659    0.009  58719.86635  51.28379   2.53418  18.78126     58860.28 
    13.95115  1.76512  2.77605       0.62026         3599.66923     0.03  0.02421     0.04813  52.09232     19.75071    3513.8697   -48.65696   0.3079  2195.43038  0.03129  58726.53304  51.41564   2.71723  18.70996  58880.87117 
    13.28452  1.36971  2.27005       1.54265         3129.65594  0.00256  0.01058     0.01124  81.69835     19.71599   6315.29656   -51.32167  1.11615  1893.98822  0.02889  58723.86833   51.3175   0.24863  18.74109  58859.22719 
    13.43413  1.39957  1.99687       0.82175         3523.61387  0.00183  0.02601     0.01906  89.49056      19.2572   6322.14894   -69.70275  1.03285  1708.09741  0.01004  58705.48725  51.23362   0.18053  18.75045  58902.33496 
    13.63295   1.8395  2.57712       4.46993         2026.50577   0.0658  0.01001     0.02778  79.93997     20.68091    4006.6001   -51.33545   0.5857  2121.31354  0.26646  58723.85455  51.41454   6.36679  18.75804  58867.26072 
    14.38332  1.64469  1.04316         0.523         3440.86898  0.36428  0.04059      0.2333  73.62384     18.35398   6494.30258    -34.7722  0.81611  2643.43347  0.00126   58740.4178  51.60029  34.81501  18.80343  58876.94275 
    13.86359  1.60117  1.28387       4.92382         2078.04933   0.1241  0.04408     0.20768  91.48397     19.26026   4884.53053   -37.23524  1.07643  2148.16845  0.01012  58737.95476  51.43414  12.24996  18.57804  58890.57829 
    13.79051  1.66082  1.33072       4.41441         2113.49487  0.08552  0.05836     0.02665  68.87753      19.4684   7254.00805   -34.94833  1.29935  2056.93685  0.01634  58740.24167    51.378   8.09102  18.73756  58871.22494 
    14.39778  1.41239   1.1865       4.92748          2198.4804  0.38388  0.04233     0.05807  55.32163      19.7616   5114.22917   -21.29403  0.44532  2534.16446  0.03209  58753.89597  51.54443  35.10153  18.69594  58894.49718 
    14.66995  1.72731  0.74434       0.71327         3520.33111  0.28348  0.02744     0.32289  79.83676     18.37697   3493.45981    -21.6013  0.47919  2712.40949  0.00132   58753.5887  51.62796  27.42518  18.77522  58882.74052 
    13.76913  2.10566  3.10029       3.12787         2361.48713  0.02104  0.01022      0.0236  95.41203     20.04935   3487.97935   -53.04142  0.73259  1843.07993  0.06224  58722.14858  51.30376   2.08928  18.72067  58863.14607 
    14.60527  1.32147  0.78854       3.00502         2942.84284  0.40532  0.01026     0.21373  67.93323     20.64881   3600.36779    -10.5845  0.57795  2470.97662  0.24748   58764.6055  51.53637  38.26513  18.70289   58886.6594 
    13.90788  1.68727  1.45073       4.30479         2076.78907  0.00659  0.07315     0.01494  62.50861      18.7483   4530.66566   -31.00418  0.65873  2300.15951  0.00311  58744.18582  51.46858   0.61436  18.52214  58894.49718 
    13.38388  1.48184  2.63676       4.52978         2275.30074  0.04753    0.011     0.01174  67.01812     19.07474   5416.17701   -43.59992  1.13222  1995.12547   0.0066  58731.59008  51.34967   4.47744   18.7347     58852.44 
    14.14446  1.38396  1.44585       4.73649         2162.07509  0.39718  0.04265     0.09644  59.78478     19.23625   4608.29062   -21.73653  0.88273  2875.29878  0.00957  58753.45347  51.65942  36.76349  18.63835  58894.49718 
    14.25396   1.7777  1.57069       4.74845         2100.42465  0.32873  0.04195     0.23364  84.15711     20.07156   7043.49258   -28.49062  0.83091  2668.86226  0.06551  58746.69938  51.61731  32.05307  18.69621  58879.87057 
    13.89754  1.74407  2.76996       4.07043          2150.6826  0.04637  0.01151     0.01143    63.128     20.22276   3721.91209   -46.43418  0.32078  2186.68532  0.09279  58728.75582   51.4253   4.32879  18.71751     58862.42 
    13.47068  1.77469  2.74668       3.01857         2391.86159  0.00535   0.0109     0.01649  72.21744     19.74665   6004.81095   -46.94615  1.05711  1976.61532    0.031  58728.24385  51.34653   0.51002  18.71951  58902.33496 
    14.24511  1.50891  0.92676       4.99873         2264.95679  0.39298  0.06004     0.25308  52.03688     18.32551   3737.12518   -22.81072  0.66804  2547.26647  0.00118  58752.37928  51.54468  35.58575  18.57085  58898.41607 
    13.87895  1.32705  0.94106       4.37449         2144.90744  0.00427  0.09019      0.0516   56.5421     19.12511   4526.29559   -24.86175  0.55535  2131.45652  0.00741  58750.32825  51.39561   0.39135   18.8134     58860.13 
    13.67433    1.705  2.87968       3.64295         2368.43226  0.03302  0.01159     0.01288  73.71124     18.43438   3597.29291   -47.41654  0.56332  2020.88443  0.00151  58727.77346  51.36712   3.15664  18.73392  58863.14607 
    13.42744  1.73355  2.87753       4.28096         2336.28441  0.03603  0.01001     0.01074  64.06712     19.31783   5031.08828   -43.07399  1.18074   2019.1487  0.01155  58732.11601  51.35706   3.37136  18.81332  58859.22719 
    13.77024  1.59858  2.35152       1.38419         3151.38363  0.00103  0.01066     0.02184  97.17427     20.29063   4761.40252   -46.55943  0.39418  1944.67201  0.10848  58728.63057  51.35152   0.10266  18.79142  58867.06496 
    13.50443  1.26664  2.07815       0.95737         3847.22587  0.01924  0.01313      0.0334  99.13283     19.68846   9819.29122   -53.86342  0.70986  1639.60805  0.02711  58721.32658  51.20456   1.92143  18.88183  58867.06496 
    13.46769  1.72435  2.53129       4.26081         2354.97438  0.03472  0.01286        0.01  71.30653     20.42369   3480.90785   -39.84553  0.97908  2117.52929  0.14737  58735.34447  51.40551   3.30198  18.68355  58870.98385 
    13.96663  2.07757  3.33926       1.37068         3414.89063  0.03586  0.01096     0.02471  65.38898     20.05433   4781.46333   -40.67714  0.44556  1964.93758  0.06296  58734.51286  51.33479   3.36539  18.55148  58894.49718 
    14.16876  1.39605  0.83929       4.92817         2006.79992  0.26309  0.05831     0.28836  62.55716     19.34978   5079.67049    -23.5755  0.58448  2573.69633  0.01243   58751.6145  51.56623  24.52417  18.68431   58886.6594 
    13.66222  1.39598  1.49636       4.13121         2073.34821  0.04613  0.03368     0.01932  98.55147     20.33842   5588.74978   -38.95507  0.79905  2198.92593   0.1211  58736.23493  51.45913   4.60338  18.70091  58880.87117 
    13.90058  1.11827  0.78527       4.81833         2154.33929  0.31246  0.05299     0.02657   55.0357     18.39882   5548.27219   -27.52771  0.86276  2478.73165  0.00139  58747.66229  51.52486  28.54714  18.83905  58859.22719 
    13.90414  1.93496  2.48835       0.55258          4131.0053  0.01781  0.03345     0.01954  72.83555     19.81899   3391.61506   -56.22148  0.56583  1889.69381  0.03662  58718.96852  51.30803   1.69915  18.50061  58902.33496 
    13.39456  1.50464  2.42144       0.37365         4004.61933  0.03248   0.0179     0.01939  96.47713     18.14265   6618.74008   -73.15783  1.21223  1820.24844  0.00077  58702.03217  51.29363   3.23136  18.64308  58898.41607 
    13.56076  1.86582  2.84572       0.96424         3734.07847  0.00225  0.01111      0.0165  70.94628     19.97061   4564.87307   -52.98814  0.77228  1993.62355  0.05192  58722.20186   51.3528   0.21389  18.64952  58898.41607 
     13.6403  1.66028   2.5812       4.87337         2226.73923  0.01014  0.01194     0.02826   70.4832     20.02439   3913.05877   -47.39759  0.57621  2091.05056  0.05877  58727.79241  51.39381   0.96225  18.65612  58902.33496 
    13.81486  1.93573  2.98212          1.56         3217.05574   0.0038  0.01007     0.01974  87.53595     20.07025   3810.07325   -43.38296  0.58715  1740.21535  0.06531  58731.80704  51.24839   0.37308  18.71184     58862.42 
    13.31019  1.54759  2.45514       0.61445         3418.63333  0.01427  0.01652     0.01927  64.81197     19.44143   6334.69814   -66.71676  1.39982  2025.13273  0.01535  58708.47324   51.3604   1.33715  18.84977     58862.42 
    13.87553  1.74951   2.7423       4.31422         2113.25242  0.02775  0.01151     0.01102    75.421     20.13172   4322.05017   -45.48795  0.34325  2185.66607  0.07524  58729.70205  51.43671   2.66138  18.78561  58871.22494 
     13.3984  1.40623  2.33077       4.92791         2103.66101  0.00146  0.01281     0.02246  71.20173     17.95377   3621.03391   -41.06196  0.81437  2214.70984   0.0005  58734.12804  51.44439   0.13887  18.56348  58898.41607 
    14.48694  1.47959  1.10382       4.89441          2173.0818  0.34308  0.04763     0.21594  56.01492     19.11117   3849.16747   -18.41465  0.36952  2823.39997  0.00718  58756.77535  51.63916  31.43273  18.87544     58856.43 
    13.73136  1.63307  1.83924       4.78388          2248.2833  0.03691   0.0343     0.03004  80.31366     19.09815   6971.15036   -40.76342  1.00298  1775.03968  0.00696  58734.42658  51.26005   3.57383  18.62042  58890.57829 
    13.66237  1.78287   2.3781       4.53971          2192.8746  0.03148  0.01829     0.02183  92.23892     20.35216   4691.74597   -46.73746  0.95843  1792.83502  0.12499  58728.45254   51.2776    3.1116  18.58497  58894.49718 
    13.58152  1.90384  3.11778        2.0601          2832.9332  0.04121  0.01023     0.07145  66.08173     18.29866   5407.51433   -47.44299  0.78933  1982.44457  0.00111  58727.74701   51.3432    3.8743  18.74286  58890.57829 
    13.69924  1.83906  2.44548       4.23369         2041.62331   0.0876  0.04071     0.12943  74.84097      19.3566   5133.64618   -46.88806  1.08402  2245.48453  0.01263  58728.30194  51.45965   8.39245  18.75192  58867.06496 
    13.46239  1.58086  2.34524       0.51431         3351.28992   0.0282  0.02244     0.01529  96.26614     19.19658   5627.55238   -61.57176  1.16825  1949.82912  0.00874  58713.61824  51.35322    2.8043   18.6598  58894.49718 
    13.34239  1.49063  2.52623       3.76081         2277.31055  0.01023  0.01323     0.01417  53.41855     18.97569   3283.67745   -39.40029  1.19105  2131.70477  0.00525  58735.78971   51.3918   0.93017  18.76762  58881.44546 
    13.33553  1.35791  2.32754       1.65823         2734.88627  0.02587  0.01208       0.011    84.556      19.6931   5857.37795   -51.57378  1.21994  2006.32488   0.0274  58723.61622  51.36976   2.52447  18.74735  58882.74052 
    13.44214   1.5079  2.56326       4.79073         2266.77633  0.02215  0.01152     0.01776  77.23458     18.80477   6976.11246   -45.54052  1.15717  1786.30619  0.00354  58729.64948    51.263   2.13199  18.76048  58882.74052 
     13.5495   1.3608  2.23458       4.21622         2244.17457  0.00309  0.01065     0.01933  65.05306     20.21002   3114.30261   -46.06043  0.48421  2048.29001   0.0901  58729.12957  51.37053   0.29004  18.63449  58898.41607 
    13.30288  1.19202  2.21264       3.59003         2493.90649  0.02845  0.01211     0.01434  60.47764     19.11545   5232.18345   -45.23557  0.91736  2127.22675  0.00725  58729.95443  51.39846   2.63821  18.71918  58894.49718 
     13.5128  1.44694  1.78547       0.14179          3721.9954  0.04815  0.04684     0.01793  78.17083     19.24963   7267.37634   -65.82878  1.27692  1939.72822  0.00987  58709.36122  51.33536   4.64369   18.5816  58902.33496 
    13.64148  1.76727  2.13095       0.03835         4052.43999   0.0378   0.0367     0.02823   92.9999     19.25417   8108.73521   -78.88534  1.11261  1775.07849  0.00997  58696.30466  51.26948   3.74081  18.81516     58863.09 
    13.31369  1.37454  2.18572       3.52228         2404.02644  0.00258  0.01232     0.02083  71.76847     20.09628   3023.49432   -44.48873  1.01156  1967.83144  0.06934  58730.70127  51.34225   0.24531  18.81389     58852.15 
    13.58094  1.98338  2.51338       0.55625         3657.73379  0.00605  0.02537     0.04135  78.63228     20.25745   4006.86924    -55.8237  1.34212  1964.80814   0.1005   58719.3663   51.3469   0.58431  18.73923  58867.26072 
    13.58737  1.38206  1.83181       4.01714         2213.46465   0.0016  0.01868     0.01957  95.67895     20.48086   4699.84928   -43.26768  0.61932  1934.59302  0.16811  58731.92232  51.34602    0.1594  18.52395  58898.41607 
    13.65475  1.93618   3.2741       1.44437         3101.56946  0.06229  0.01055     0.01346  63.29935     19.76372   4139.67337   -47.25803  0.75076  2053.75629  0.03224  58727.93197  51.37101   5.81752   18.7477  58894.49718 
    13.59195  1.25539  1.58122       0.31341          3742.1696  0.00421  0.05365     0.01609  70.07824     18.64389   7697.69038   -58.98236  0.67199   2022.4134  0.00245  58716.20764  51.36444   0.39899  18.73087  58863.14607 
    14.77937  1.68069  0.72778       1.13984         3623.70447  0.38978  0.02796     0.24591  63.94233     18.08245   3976.95196   -24.13135  0.51426  2407.43057  0.00067  58751.05865   51.5097  36.45728  18.76133     58852.44 
    14.48757  1.66622  1.06369       0.31056         3470.59225  0.41434  0.04267     0.21268  64.99707     16.78297   5071.25064   -35.81483  0.69827  2638.50943    3e-05  58739.37517  51.59041  38.85229  18.67519  58881.37146 
     14.5925  1.77862  0.84432         4.905         2297.06457   0.3342  0.05384       0.069  56.45947     18.31121   3752.38332   -23.29368  0.33361  2285.56623  0.00114  58751.89632  51.45614  30.65681  18.71639  58894.49718 
    13.30772  1.26438  2.09194       0.52862         4078.90623   0.0556  0.01941     0.01267  92.32245     18.40278     6959.381   -65.07223  1.53001  1772.64309   0.0014  58710.11777  51.26782   5.49538  18.78576     58862.42 
    13.52063   1.2803   2.2203        4.8754         2231.52498  0.04622  0.01573     0.03142  63.50205     19.83792   7039.41812   -50.68577  0.56866  2089.88704  0.03825  58724.50423  51.38637   4.31876  18.75709  58882.74052 
    13.30408  1.09088  1.40892       0.12873          4143.1876  0.03154  0.04768     0.02885  85.91971     19.19823   9946.19639   -63.92504  1.37014  1936.87211  0.00877  58711.26496  51.34019   3.08463  18.84683  58859.22719 
    13.48827  1.56602  2.24129       1.06821          3365.7947  0.00206  0.01387      0.0104  98.68817     20.26245    5035.8743   -63.00886  0.88481  1752.22655  0.10167  58712.18114  51.26198    0.2056  18.52433  58902.33496 
    13.47711  1.78146  2.75693       0.48822         3704.19637  0.03516  0.01485     0.02795  96.28695     19.25516   6843.42221   -70.97857  1.12762  1780.12293     0.01  58704.21143  51.27414   3.49646  18.67463  58898.41607 
    14.46649  1.40359   0.8346       4.82935         2213.09039  0.36408  0.04755     0.03879  53.44539     18.69002   4387.51682   -16.60493   0.4071  2770.99232  0.00272  58758.58507  51.61965  33.10963  18.71634  58894.49718 
    13.76239  1.90573  2.64345       3.99621         2140.53607  0.02423  0.02134     0.01495  84.00262     19.96853   7459.41431   -64.60425  0.64096  1935.85392  0.05167  58710.58575  51.33828   2.36221   18.6069  58894.49718 
    13.57818  1.67437   1.9898       0.71567         3202.88645  0.00199  0.04189     0.02421   78.8848     19.87783   3680.77281   -49.93152  1.24284  2036.41476  0.04193  58725.25848   51.3782   0.19248  18.54774  58894.49718 
    13.44533  1.35749  1.84141       0.49809         3420.52592  0.01456  0.02663     0.01493  96.39155     19.98921   9258.64479   -65.94072  1.11806  1831.43682  0.05419  58709.24928   51.2989   1.44812  18.80361  58859.22719 
    13.19368  1.09963  1.90995        4.4199         2310.12983  0.04546  0.01376     0.02191  73.86878     20.05184   6716.25564   -47.34266  1.15134  1954.28841   0.0626  58727.84734  51.33815   4.34717  18.55071     58856.43 
    13.63287  1.75703  2.58825       0.71593         3673.26137  0.05689  0.02846     0.01571   73.4909     19.59719   5722.43628   -57.02949  0.90989  1878.58047  0.02197  58718.16051   51.3035   5.43549  18.62861  58898.41607 
    14.59121  1.61705  0.97819       0.74068         3489.18898  0.32373  0.03055     0.04116  76.92115     17.95311   3902.77419   -28.23738  0.59157  2779.76389   0.0005  58746.95262  51.64684  31.14411  18.80492     58856.43 
    13.46333  1.49252  2.52101       3.70632         2463.97843   0.0043  0.01227     0.01698  58.71754     19.00585   4681.73166   -36.42404  0.98746  2068.26864  0.00563  58738.76596  51.37204   0.39699  18.49677  58894.49718 
    14.24393   1.4876   0.8445       4.93343         2015.83249  0.22013  0.06703     0.21335  61.51919      18.6881   6072.60099   -29.28226  0.43524  2399.49418  0.00271  58745.90774  51.50423  20.46673  18.52813  58910.17273 
    13.72553  1.55371  2.20358       1.53687         2875.19178  0.00122  0.02735     0.01297  72.09125     19.61258   6109.15503   -47.26996  0.59258  1978.85629  0.02277  58727.92004   51.3474   0.11626  18.81968    58855.251 
    13.47171  1.58752  2.51421       4.81495         2181.12493  0.00102  0.01032     0.11436  97.14812     19.80427   3163.79206   -46.51126  1.00688  2076.21356   0.0354  58728.67874  51.40835   0.10192  18.75591  58875.24228 
    13.30034  1.39614  2.30608       2.82486         2652.28779  0.00793   0.0103     0.01574    82.457     19.45677   6326.27564    -41.0069  1.55681  1942.04165   0.0159   58734.1831  51.33986   0.77115  18.64047  58898.41607 
    13.62747  1.88214  2.67399        0.2031         3541.36485  0.05713  0.01667     0.01424  66.83663     20.44311   3824.09572   -58.83489   0.6334  2297.44382  0.15411  58716.35511  51.47204   5.38038  18.77996  58867.06496 
    13.48337  1.58407  2.33216        4.7242         2252.82486  0.00421  0.01153     0.04762  97.28634     19.79564   5796.22438   -43.82014  1.14705  1820.11744   0.0347  58731.36986  51.29409   0.41894  18.74334     58862.42 
    14.43948  1.30345  0.86421       4.71901          2302.2177  0.45622   0.0481     0.04282  47.08915     18.46518   4692.06782   -20.71654  0.42944  2600.83293  0.00162  58754.47346  51.55577  40.65273  18.79328     58862.42 
    13.77621  1.64891  2.64173       1.06866         3616.11292  0.02529  0.01034     0.05882  69.76794     20.19284   3404.93277   -46.66623  0.37344   1947.5934  0.08661  58728.52377   51.3314   2.39766  18.74297  58890.57829 
    13.58357  1.57072  2.75376       4.83609         2332.89631  0.04737  0.01015     0.01592  65.55666     19.42571   3897.58685   -37.52245  0.66054  2060.17187  0.01481  58737.66755  51.37607   4.44793  18.64739   58886.6594 
    13.45691  1.91789  2.88795       1.13423         3328.58328   0.0193  0.01226     0.01869  72.02356     19.34764   3785.80641   -47.09591  1.35065  1962.80623  0.01237  58728.09409  51.34026   1.83851  18.89138  58851.29867 
    13.32924  1.36076  2.37991       4.17566         2213.53434  0.04451  0.01161     0.02832  79.13324     18.64471   7167.52837   -47.99986  1.05123   1818.2355  0.00245  58727.19014  51.27997   4.30041  18.50911  58881.44546 
    13.55687   1.6411  2.55462        1.8534         3032.68917  0.00129  0.01101     0.01286  83.00017     19.47687   3943.74005   -40.35314  0.88235  1851.25209  0.01666  58734.83686  51.29869   0.12596  18.72146     58863.09 
    13.66894  1.79735  1.81703       0.01201         3684.10515  0.02606  0.04637     0.05394   92.5249     19.85074   3644.34401   -57.00499  1.50145  2000.12516   0.0394  58718.18501  51.37283   2.57712  18.79637  58869.24301 
    13.43447  1.40669  1.99376       1.21009         3147.29602  0.00287   0.0136     0.05124  98.95887     20.48544   5048.67717   -52.04662  0.77356  1919.28719  0.16989  58723.14338  51.34125   0.28675  18.76724  58863.14607 
     14.4075   1.4168  0.79473       4.80031         2075.95712  0.32283  0.05515     0.42586  64.29863     19.75615   5258.76073   -12.23101  0.39557  3055.57571  0.03169  58762.95899  51.71715   30.2213  18.69945  58867.06496 
     13.3179  1.04962  1.76343       3.29188         2537.45529  0.02647  0.01339      0.0126  97.33056     19.78827   5431.59465   -43.20685  0.98967  1642.60766  0.03412  58731.98315  51.20499   2.63615   18.7258  58863.14607 
    13.71284  1.41955  1.53995       3.79812         2131.04105  0.01178  0.03005     0.05645  95.59501     20.57599   5509.28084    -46.5342  0.56321  1987.03344  0.20928   58728.6558   51.3692   1.17008   18.7654     58856.13 
    13.15313  1.12928  1.91648       4.34073         2216.03797  0.00187  0.01044     0.04133  89.66182     19.72004   7149.70007   -48.65102  1.56397  1952.57151  0.02916  58726.53898  51.34993    0.1838  18.75686  58869.24301 
    13.73559  1.87455  2.11834       0.15329         3183.82929  0.00108  0.05685     0.01525  64.94479     19.58968   3256.29527   -63.56327  0.81373  2092.23371   0.0216  58711.62673  51.38885   0.10091  18.59943  58898.41607 
     14.0285  1.83959  1.47354       0.36131         2886.74186  0.00285  0.06445     0.09677  85.24445     18.87301   7507.85638     -58.311  0.53385  1989.64856  0.00415    58716.879  51.36304   0.27843  18.75313  58863.14607 
    13.43422  1.64633  2.58858       4.89395           2163.026  0.02652  0.01054     0.01706  67.32955     20.06629   5225.82228   -47.47802  0.90161  2050.29897  0.06472  58727.71198  51.37368   2.50011  18.74873     58852.44 
    13.76452   1.6208  2.58768       4.05062         2238.26146  0.02059  0.01008     0.01566  74.37967     19.94765   3299.31937    -47.1638  0.38826  2242.53715  0.04925   58728.0262  51.45811    1.9704  18.52972   58886.6594 
    13.79452  1.94597  2.31542       4.30987         2217.99913  0.01816  0.02694     0.01516  82.69741     20.13686   6498.43553   -39.30865  0.88404  1821.41481  0.07614  58735.88135  51.28435   1.76657  18.75162   58886.6594 
