 texplosion  fnickel     Pspin  log(Bfield)      Mns  thetaPB   mejecta    kappa  kappagamma      vejecta  temperature    alpha  cutoff_wavelength  log(nhhost)      A_V         MJD0   kenergy  mnickel           TSD   log(L0)  Peak_mag     Peak_MJD  log(E_rad)  log(Peak_lum)  Rise_Time    E_fold  tau_1  delta_m15     r_peak     frac 
  -29.98383  0.17604   2.70858     15.01549  1.91342   1.4433   1.08996   0.1843     0.30159  11723.44815   4623.27144  0.79341         3345.36629     20.40541   0.1413  48269.31617   0.89361  0.19188   12137.70566  47.60104  16.19403  48284.63696    50.38991       44.15866    4.72963  14.18888   15.5    1.29972  -20.25867  0.99802 
  -37.91835   0.0148  10.13451     14.83984  1.78202  0.83421   1.34307  0.24159     0.46974  12958.66791   4323.56615  2.32506         2230.73447     20.04269  0.06129  48261.38165   1.34538  0.01988  355345.89201   44.9575  16.22505  48279.70968    50.23384       43.81844    9.45926  21.28332   19.5     0.9168  -20.00632  0.98977 
  -41.29607  0.04952   3.05752      14.9387  2.01633  1.35001   1.68828  0.17795     0.27651    8455.4221   4788.63484  0.79694         4495.99836     17.01122    6e-05  48258.00393   0.72002  0.08361    23212.1364  47.23695  15.48949   48274.7824    51.17376       44.93869    4.72963   16.5537   21.5    0.78121  -19.70547  0.99823 
  -39.99245  0.04498   2.46813     14.84253  1.91487  0.91866   4.85406  0.06056     0.07055  12368.42724   4872.53066  4.12518         3443.94588     20.97558  0.52517  48259.30755   4.42957  0.21833   22367.94087  47.41662  16.02452  48269.85513    50.20347       43.67862   14.18888  26.01295   19.5    0.94658  -20.97897    0.996 
  -31.08539  0.03438   3.90544     15.16096  1.77857  0.66434   3.68189  0.05383     0.09802  10600.28697   4860.06528  0.81236         4674.45219     17.75626  0.00032  48268.21461   2.46793  0.12658   12003.57344  47.25627  15.96183  48277.24604    50.61284       44.29224    7.09444  18.91851   16.0    1.28476  -20.22727  0.99405 
  -37.32193  0.04155   4.07706      14.7797  1.71442  1.47133   1.57086  0.15196     0.42087  11206.58273   4524.28126  1.29027         2675.10489     16.03834    1e-05  48261.97807   1.17682  0.06527   72984.68309  46.41904   16.3302  48282.17332     50.4141       44.11598    4.72963   16.5537   18.5    1.01608  -20.28693  0.99502 
    -50.874  0.03309   0.91125      14.8759  1.58054  0.93872   5.69907  0.08099     0.02603   8039.68501   4782.61998  0.45813         2349.03682      17.9758  0.00053    48248.426    2.1974  0.18859    2158.22069  49.21428  16.60979  48284.63696    50.11069       43.68729    7.09444  21.28332   28.0    0.59143  -18.95219  0.99992 
  -37.71809  0.01285   1.27998     15.17203  2.03052  1.23987  18.55172  0.02437     0.01801  10578.07041     4401.733   0.3042         3676.60599     17.76494  0.00032  48261.58191  12.38296  0.23844    1398.84578  49.21628  16.67673   48287.1006    50.01352       43.66576    9.45926  14.18888   20.5    0.78284  -19.44151  0.99993 
  -34.89575  0.09013   2.12259     15.10164   1.7272   0.7225   2.65025  0.08145     0.08673  10103.07812   4424.87489  3.48239         3997.31229     19.99058  0.05436  48264.40425    1.6137  0.23886    4524.94719  48.19684  15.54243  48269.85513    50.67079       44.32576    9.45926  18.91851   16.0    1.13813  -21.25147  0.99856 
  -27.11277  0.11869  15.08926     15.01146  1.74689  1.52546   1.68646    0.179     0.27988  13098.99489     4354.492  2.82089         3352.14099     19.18666  0.00854  48272.18723   1.72615  0.20016  350337.41207  44.60929  16.56886  48282.17332    50.21302       43.73664    7.09444  26.01295   17.5     1.0805  -19.50918  0.80926 
  -53.22193  0.07538   1.41948     14.83716  1.73586  1.32803   2.87663  0.16834     0.03493   7716.84747   5245.25921  4.80695         4486.04158     17.97483  0.00052  48246.07807   1.02186  0.21684    6874.82548  48.36684  16.57752   48287.1006    49.84084       43.48974    7.09444  15.03474   28.5    0.58729  -19.17386  0.99958 
  -40.73517  0.03869   3.66133     14.78042  1.41217  1.15896   4.44667  0.08274     0.04524   8853.72721   4840.82945  2.93622          4263.3934     20.16745  0.08169  48258.56483   2.07929  0.17203    48321.8963  46.60731  16.95783  48289.56424    49.80197       43.34938   14.18888  18.91851   22.5    0.70369  -19.86806  0.98738 
  -43.86445  0.00987   2.31917     14.78752   1.9409  1.46858   2.31428  0.13172     0.25724  10581.51287   4700.99456  4.97036         2836.44181     20.19282  0.08661  48255.43555   1.54575  0.02283   25789.51149  47.41474  15.63676  48272.31876    50.30152       43.91117    9.45926  18.91851   21.5    0.83223  -20.13683   0.9997 
  -53.07783  0.00586    1.0955     14.60146  1.33068  1.48872  11.35261  0.03998     0.02942   7407.95586   4803.18558  3.32451          4443.9949     19.27235   0.0104  48246.22217   3.71638  0.06656    9293.67183  48.34551  15.85665  48282.17332    50.61343       44.44207    4.72963  11.82407   25.0    0.63413  -19.22766  0.99987 
  -48.99738  0.00387   1.69691     14.70759  1.81924  1.50543   3.15453  0.11454     0.17371   9672.66639   4249.76274  1.42389         3615.17168     18.55513  0.00199  48250.30262   1.76058  0.01221   18699.94466  47.79758  16.07647  48277.24604    50.16074       43.84922    7.09444   16.5537   22.5    0.74156    -19.854  0.99993 
  -26.99811  0.09041  10.46168     15.05109  1.52882  1.00657   2.66282    0.082      0.0706  11095.90261   4581.75047  2.30559         4213.79902     16.47768    2e-05  48272.30189   1.95567  0.24074  122799.02225   45.3248  15.17898  48247.68237    50.92913       44.36383   14.18888  33.10739   17.0    1.17565  -19.78677  0.86093 
  -32.13687  0.03056  12.81086     14.98141  1.89634  0.99581   3.55879  0.05578     0.09153  10742.80506   4681.80548  3.95447         3011.68613     19.62578  0.02347  48267.16313   2.44999  0.10876  314828.73224  44.83353  15.23276  48267.39149    50.52215       44.14784    9.45926  18.91851   19.0    1.04955  -19.83256  0.92424 
  -34.00278  0.04519   6.65326     14.97047  1.62723  1.04687   3.28105  0.06945     0.07844   8720.06293    4863.1921  1.32518         4587.02126     17.71824  0.00029  48265.29722   1.48826  0.14826   76630.70839  45.94982  16.20914  48282.17332     50.0173       43.65518    7.09444   16.5537   18.5    0.99372  -19.91873  0.96642 
  -45.94509  0.02554   2.54458     15.12154  1.73848  0.57793   6.70519  0.06559     0.03011   8590.00425   4804.12118   0.7953         2679.12689     16.60446    2e-05  48253.35491   2.95138  0.17127    5972.35683  47.92164  15.39982   48274.7824    50.58481       44.30677    7.09444  14.18888   24.5    0.60466  -19.17251  0.99742 
    -56.512  0.02028   2.02641     15.14302  1.63855  0.30845   2.96017  0.16128     0.09071   8201.61096   4341.50718  0.71024         2865.69909     18.48467   0.0017    48242.788    1.1878  0.06003     3233.6719  48.36015  14.72287  48272.31876    50.63581       44.39367    4.72963   16.5537   26.5    0.57989  -19.32274   0.9991 
  -53.63225  0.01312   1.30818     14.71026  1.56985  1.35515    8.4205  0.07854     0.06194   9654.87197   4588.24641  1.66382         4114.11155     18.57785   0.0021  48245.66775   4.68229  0.11046    9472.93895  48.25489    15.571  48277.24604    50.50747       44.27495    4.72963  14.18888   27.0    0.63664  -19.12583  0.99973 
  -35.05477  0.00149   5.01807     14.78904  1.65361  1.06191   1.48546  0.12333     0.35247  10620.06857   4794.40271  1.24794         4634.68883     20.29662  0.10999  48264.24523   0.99941  0.00222  102149.89191  46.07697   16.5158  48279.70968    50.15851       43.68876    9.45926  23.64814   16.5    1.21828  -20.67566   0.9997 
  -30.03108  0.00655   1.36265     15.04486   1.4679  1.22101  14.50782  0.01144     0.01058   6947.35376   7926.74033  2.86157         5301.23331     19.27499  0.01046  48269.26892   4.17704  0.09503    2058.57823  48.85321  16.06383  48277.24604    50.58088         44.196    7.09444  21.28332   16.0    1.03146  -20.53056  0.99993 
  -46.84234  0.00719   3.68278     14.68187   1.3186  0.83312   5.12915   0.0818     0.07517   9345.44673   4824.06542  2.49648         4318.68717     18.46807  0.00163  48252.45766   2.67222   0.0369   71869.05661  46.40007  15.84906  48277.24604    50.44323       44.10792    4.72963  18.91851   23.0    0.71578  -19.82799  0.99631 
  -37.45923  0.00928   1.30789     14.70871  1.52469  1.15224   1.10404  0.13147     0.41408    9980.9183   4945.06895  4.60516         4002.83913     19.47435  0.01656  48261.84077   0.65607  0.01024    9262.27956  48.25217  14.96666  48267.39149    50.64906       44.29475    7.09444  21.28332   13.0    1.42427  -21.87696  0.99997 
  -44.87451  0.01367   4.73329     14.73522  1.61596  1.08612   1.57206  0.18599     0.15226   8454.47087   4697.13169  3.92142         3372.63205     16.06302    1e-05  48254.42549    0.6703  0.02149  113794.91293  46.07083  15.65778   48274.7824    50.79384       44.45075    7.09444  18.91851   23.0    0.75084   -19.8714  0.99732 
  -32.59504    0.016   6.63451     15.01588  1.53282  0.67654    6.1815  0.02343     0.02015   7673.90782   5437.92477  2.69318         5041.41797     19.67997  0.02659  48266.70496   2.17147   0.0989   58231.94775  46.04556  15.71785   48274.7824    50.41096       44.13105    7.09444  14.18888   16.0    1.13397  -20.65249  0.97439 
  -29.65609  0.20263   7.72012     14.99991  1.72417  0.95474     1.365  0.14426     0.10935   9568.79756   5357.55906  3.99631          4249.9974     20.97286   0.5219  48269.64391   0.74555  0.27659   95462.67571  45.75034  16.31362  48282.17332    49.99374       43.57474   11.82407   16.5537   17.0    1.05831  -20.55975  0.92286 
  -30.59637  0.13879   7.20812      14.9109  1.62908  1.56502   1.02341  0.28756     0.28644  11677.22534   4920.31067  3.17203         3264.02005     19.84661  0.03902  48268.70363   0.83244  0.14204  118469.48183  45.69154  16.16941  48282.17332     50.0371       43.69965    7.09444   16.5537   18.0    1.01774  -19.98185   0.9617 
  -41.88878  0.04302   8.83277     14.99444  1.66405  0.56259   2.37614  0.13233     0.09269   9644.33071   4547.58586  4.46302         3799.25483      17.6742  0.00026  48257.41122   1.31839  0.10221   123676.7592  45.50553   16.1527  48277.24604    50.28793       43.86582   11.82407  21.28332   22.0    0.77102  -20.01455   0.9574 
  -30.27826  0.07002   3.27674     14.92579  1.53563  1.34475   3.72007   0.0603     0.06127  12304.87376    4472.8044  0.36056         3452.08156     17.65954  0.00025  48269.02174   3.35995  0.26049   21548.32099  47.09083   16.0574  48282.17332    50.36677       44.05381    7.09444   16.5537   15.0    1.38903  -20.14914  0.99182 
  -38.08084  0.12484   4.68508     14.97964  1.68871  1.17256   2.53435  0.10079     0.04765   9032.50673   4617.52018  4.11752         4216.18425     18.82471  0.00371  48261.21916   1.23342  0.31638   37802.79242  46.57744  15.78998  48277.24604     50.6728       44.37287    7.09444   16.5537   20.0    0.85596  -20.28413  0.97327 
  -56.06822  0.12824   5.64614     14.73701  1.80171  1.34395   4.41362  0.14537     0.01157    8288.7492   4638.28207  0.75807         3230.25522     18.29588   0.0011  48243.23178   1.80884  0.56599  179054.91117  45.76804  15.77376  48269.85513    50.48423       44.09862    9.45926  21.28332   26.5    0.53955   -19.2871  0.91964 
  -36.05051  0.03417   1.40171     15.04532  1.49622  1.19154   9.59263  0.04254     0.01339   9927.77941   4868.22292  0.85212         4618.23311     18.15741   0.0008  48263.24949   5.63987   0.3278    2215.53377  48.80505  16.40116  48282.17332    50.13317       43.74432    9.45926  18.91851   22.0    0.70253  -19.71259  0.99974 
   -38.6501  0.00171   9.18989     15.07875   1.6244  0.43431   1.36041  0.14828     0.33991   9101.22849   4676.62504  4.31023         4295.67535     17.99057  0.00054   48260.6499    0.6722  0.00233    88639.9836  45.60529  16.28739  48282.17332    50.16867       43.85607    7.09444   16.5537   18.5    0.99905  -20.48263  0.99886 
  -37.67763  0.09932   2.61274     14.67809  1.29363  1.11978   1.62241  0.15556     0.14134  11118.83237   4603.75397    3.019         2593.62837     16.87181    4e-05  48261.62237   1.19648  0.16113   36110.23031  46.98883  16.45493  48282.17332    50.18719       43.80342    9.45926   16.5537   19.0    0.96239  -20.31623  0.99395 
  -31.75244  0.16965    3.7911     15.10962  1.54528  0.54432   0.88366  0.23331     0.35765  11948.23755   4918.96509  2.24527         2932.49398     19.92847  0.04712  48267.54756   0.75252  0.14991   12448.64536   47.2052  14.63463  48264.92785    50.78627       44.49974    7.09444   16.5537   16.0    1.17939  -20.44971  0.99037 
  -34.19881  0.15285  12.83994     14.92846  1.94005  1.32913   0.72375  0.30297     0.27031   9692.39223   4755.58601   4.3201         3463.34845     19.28283  0.01066  48265.10119   0.40558  0.11063  412883.27352   44.7237  15.66206  48279.70968    50.06656       43.75437    9.45926  14.18888   19.5    0.93189   -19.9088  0.92513 
  -47.47192  0.00898   6.99657     14.64389  1.64452   1.0905   1.39965  0.22652     0.31091  10361.15714   4162.77552  2.23003         3701.06553     18.60422  0.00223  48251.82808   0.89632  0.01257  385344.41453  45.20927  16.26887  48279.70968    50.34943       43.91066   11.82407  21.28332   23.0    0.78148  -20.03361  0.99651 
  -42.15624  0.00846   1.24851     14.82166  1.88597   1.4574   8.16466  0.02249      0.0326   7733.93987   4657.79999  0.86855         5481.78953     16.64744    2e-05  48257.14376   2.91318  0.06905    6206.06883  48.55878   15.4622  48277.24604    50.33203       44.07496    7.09444  14.18888   20.5    0.86387  -20.05515  0.99992 
  -35.60856    0.139   2.15435     15.07395  1.58255   0.7901   2.24606  0.11611     0.08302  10194.48363   4274.85526  4.10321         3695.13673     19.62924  0.02366  48263.69144   1.39245  0.31219    4851.90837  48.11566  15.59769  48277.24604     50.2027         43.927    4.72963   16.5537   18.5    0.88257  -20.60538  0.99802 
  -65.87849  0.01045   1.68112     14.65561  1.79395  1.22181  16.80392  0.03777     0.01155   8308.03259   4200.85613  3.51165         3012.35824     19.56168  0.02025  48233.42151   6.91886  0.17556   22993.65144  47.70985  15.22535  48267.39149    50.46862       44.07653    9.45926  18.91851   28.0    0.52744  -19.20633  0.99865 
  -34.53604   0.0333   0.86397     15.11042  1.63342  1.42868   7.73783   0.0505     0.02952  10294.33844   4806.09883  1.04991         3806.51032     16.18584    1e-05  48264.76396   4.89151  0.25766     680.89472  49.77587  16.27405  48282.17332    50.29437       44.02443    4.72963  14.18888   20.5    0.81413  -19.60259  0.99998 
  -41.71367  0.04789   8.49922     14.73713  1.57705  1.29482   1.50312  0.26213     0.32146   9307.38615   4347.53355  0.33058         3692.97011     16.67616    3e-05  48257.58633   0.77674  0.07199  354940.76728  45.05778  16.15365  48277.24604    50.47035       44.17992    7.09444   16.5537   22.5    0.68537  -19.47162  0.96958 
  -41.86619  0.12293    1.5721     14.86703  1.70871  1.18036   1.37854  0.21187     0.16269   8888.01372   4539.46547  3.58182         2331.74387       17.987  0.00054  48257.43381   0.64961  0.16947    7234.09799  48.24917  16.12304  48279.70968    50.35365       43.94093    9.45926  21.28332   23.0     0.7174  -19.59326  0.99953 
  -35.09045  0.23601  10.85497     14.74565  1.41485  0.99096   0.94195  0.32932     0.46881  13739.61207   4196.70703    0.869         2902.31669     19.47485  0.01658  48264.20955   1.06073  0.22231  499433.21157  44.64982  15.65014   48274.7824    50.33975       44.01929    4.72963  18.91851   19.5    0.97912   -19.8217  0.84222 
  -28.22437  0.12189  16.27399     15.17303  2.01879  0.99837   1.94737  0.16628       0.187  13652.97094   4378.01819   1.2333         4044.59594     19.07867  0.00666  48271.07563   2.16536  0.23737  223787.40617  44.80111  15.05085  48272.31876    50.67806       44.44055    4.72963  14.18888   17.5    1.08477  -19.57414  0.79268 
   -32.0919  0.13056   8.57067     15.02351  1.65251    1.068   1.82298  0.20518     0.17788  12039.14675   4285.96446  3.45534         2861.26639      16.1838    1e-05   48267.2081   1.57616    0.238  101149.13307    45.616  16.83615  48289.56424    49.87515        43.4106    9.45926  18.91851   19.5    0.84655  -19.67442  0.91446 
  -35.52443  0.06719   6.52889     15.14952  1.75895  0.60235   2.93517  0.08875     0.10149  10355.73385   4321.28537  2.88924         2750.45013     17.58784  0.00022  48263.77557   1.87768  0.19722   34970.34824  46.34072  16.40725  48284.63696    50.10999       43.78677    9.45926   16.5537   19.5    0.89698  -19.98071  0.96136 
  -48.24616  0.00554   0.93778     14.96935  1.72685  0.78816  23.09285  0.02084     0.01345   9171.34155   4832.70352  2.18931         2300.63787     16.03873    1e-05  48251.05384  11.58698  0.12803    1623.98191  49.35132  14.86313  48252.60965    50.80266       44.34413    7.09444  28.37777   25.0    0.63416  -19.18674  0.99995 
   -48.8046  0.00135    5.0244     15.04798  1.79144  0.44551   1.86596  0.23594     0.21463   10659.3191   4586.98844  0.65722         2024.37117     20.03259  0.05989   48250.4954    1.2647  0.00251   33668.68643  46.59265  15.65335   48274.7824    50.36691       44.00074   11.82407   16.5537   22.5    0.71694  -19.73799  0.99969 
   -53.7611  0.01756   0.72339     14.74648  1.71484  0.93856    2.7037   0.1304     0.06558   8156.16075   4482.40693  4.18091         3195.98171     18.36333  0.00128   48245.5389   1.07289  0.04748    2678.11254   49.3565  15.94043   48274.7824    50.44729         44.115    7.09444  18.91851   25.0    0.67061  -19.63495  0.99999 
  -39.88157   0.0062   1.15953     14.85775  1.86128  1.15117   6.58621  0.03459     0.06816   9710.89102   4514.39363  0.15034          2288.6951     18.34625  0.00123  48259.41843   3.70494  0.04085    4474.00959   48.7594  16.37931  48284.63696     50.0274       43.65655    9.45926   16.5537   19.5    0.96721  -19.90138  0.99996 
  -37.13043  0.03791   3.99376     15.13889  1.77077  0.86098   5.56103  0.06528     0.03654   8746.91221   4585.01706  0.67546         3367.80814     16.22748    1e-05  48262.16957     2.538   0.2108   13834.19248  47.17329  16.21346  48282.17332    50.30845       44.00163    4.72963   16.5537   21.0    0.74777  -19.52607  0.99128 
  -36.11359  0.01575   2.76766     14.83602  1.64498  0.74987   2.16884  0.09961     0.14965   9534.23922   6443.36094  2.34583         4814.22233      21.1146  0.72331  48263.18641   1.17605  0.03416   24897.89299  47.20462  16.31865  48279.70968     50.3406       43.87443    9.45926  23.64814   17.0    1.07297  -21.52582  0.99885 
    -36.083  0.03767   4.34421     14.79299  1.70882  1.37479   1.90744  0.13672     0.23071  12420.25744   4667.12234  0.23024         3148.72978     18.19615  0.00087    48263.217   1.75525  0.07185   77688.91479  46.33536  16.66337   48287.1006    50.12587        43.7752    7.09444   16.5537   17.0    1.17144  -20.26795  0.99363 
  -32.80506  0.03338   4.92397     14.84874  1.67513  1.57051   1.54026  0.16995     0.35246  12116.49723   4946.08111  2.19646         4420.80034     17.02487    6e-05  48266.49494   1.34889  0.05142   75687.30621  46.22924  16.33001  48284.63696    50.17215       43.79281    9.45926  18.91851   15.5    1.15309  -20.74561  0.99406 
  -32.02385  0.18189   5.13436     15.10789  1.81909  1.14128   1.75317  0.16533     0.10237  11878.14842   4593.08059  1.57506         2881.61073     19.41502  0.01445  48267.27615   1.47553  0.31888   27092.78465  46.67487  16.14287  48282.17332    50.40964       44.18856    7.09444  11.82407   18.0     1.0576  -19.85963  0.97472 
  -34.80947  0.15271   1.60819     14.90891  1.57271  0.81937   0.90198  0.24538     0.41083  12555.82822   4674.03111  1.81626         2968.42494     19.45763  0.01594  48264.49053   0.84823  0.13774    5745.36085   48.2935  16.49837  48282.17332    50.11277       43.65018    9.45926  23.64814   16.0     1.3427  -21.13651  0.99945 
  -34.26779  0.04055   3.90251       14.853  1.66746  1.37892    2.4055  0.10136     0.15307  11225.59014      5015.93  2.97027         2416.09318     16.47596    2e-05  48265.03221   1.80822  0.09753   46403.94356  46.64166  16.31397  48284.63696    50.12601       43.81622    7.09444  14.18888   17.5    1.03222  -20.28199  0.99386 
  -38.21672  0.00122   3.70216     15.12094  1.58036  0.39767   2.72112  0.06852     0.24614   8376.53984   4735.13061  0.37596         3579.90077     18.85111  0.00394  48261.08328   1.13895  0.00332   11524.16609  47.26908  15.57912   48274.7824    50.34058       44.01855    4.72963  18.91851   20.0    0.93853  -19.90735  0.99976 
  -29.29554   0.0533  12.76215     14.94343  1.80474  1.15439   1.52001  0.14507     0.41087  11646.07098   4906.99495  1.19515         3207.81179     20.14566  0.07769  48270.00446   1.22979  0.08102  354176.30167  44.76419  15.90886  48282.17332    50.12303       43.79105    7.09444   16.5537   18.0    1.15183  -19.65007  0.93879 
  -43.98333  0.03512   2.33951     14.72524  1.66015  1.54984   4.16034  0.07782     0.05733   9765.41882   4421.51665  1.34423         3301.14372     20.14156  0.07696  48255.31667   2.36667  0.14611   29904.54559  47.27501  16.55367  48282.17332    49.93364       43.44851   11.82407  21.28332   22.5    0.75709  -19.86004   0.9974 
  -36.87219  0.10538   1.79893     15.07215   1.6581  0.83256    3.6007  0.10733     0.05488  13413.79723   4668.62211  3.20564         2104.83253     19.11597  0.00726  48262.42781   3.86472  0.37943    3574.04218  48.42527  15.93547  48277.24604    50.30763       43.94433    7.09444  18.91851   18.0     0.9664  -20.38224  0.99889 
  -37.23659  0.06897   3.62909     14.87771  1.73226  1.56513   3.53567  0.07045     0.08914  10961.81681   4234.58311  1.03074         3683.83505     17.61002  0.00023  48262.06341   2.53434  0.24386    37205.3903  46.81726  16.49245  48279.70968    50.13669       43.67848   11.82407  21.28332   18.5    1.02316  -20.24807  0.98885 
  -30.41745  0.03139   1.01117     14.90249  1.62397   1.1278   9.07997  0.02008     0.02823  10651.78474   4648.39094  2.97029          3103.5179     20.90228  0.44362  48268.88255   6.14549  0.28506    2415.81737  49.08671  16.22796  48282.17332    50.26649       43.87448    9.45926  18.91851   16.5    1.23613  -21.06922  0.99988 
  -33.78279  0.03566   8.16824      15.0789  1.74284  0.76962   4.63612  0.05296     0.05698   9864.57501   4474.39591  2.44363         3114.51102     18.47454  0.00166  48265.51721   2.69116  0.16532   75081.21292  45.81031  15.37174  48277.24604    50.22572       43.94773    4.72963   16.5537   19.5    0.89672  -19.83635   0.9475 
  -33.86425  0.06397   9.32242     15.12894  1.80524  0.65381   2.97569  0.07391     0.06813  10585.31348   4474.94447  2.98914         2433.03637     18.90299  0.00444  48265.43575   1.98895  0.19035   80450.49877  45.68079   16.8668  48284.63696    49.96413       43.42978   14.18888  26.01295   20.0    0.95295  -19.78604  0.92558 
  -32.63261  0.03528    2.4005     15.07313  1.51503  1.02125   7.88756  0.04539     0.02299   9607.18507   4926.44829   3.6983          4316.4479     20.66893  0.25921  48266.66739   4.34272  0.27828    5788.61783  47.92609  14.88372  48272.31876    50.65488       44.46174    4.72963  14.18888   21.0    0.74907  -20.12691  0.99808 
  -51.70224  0.00334   4.32628     14.69405   1.7633  1.04665    2.3483  0.10471      0.2015   8595.93764   4052.02724  1.54066         3929.50258     17.37675  0.00013  48247.59776   1.03507  0.00784  125390.21961  46.14468  16.41832  48284.63696    50.15629       43.87037    7.09444  14.18888   24.0    0.77776  -19.93353  0.99927 
  -29.15123  0.10861   2.15347     15.06765  1.77427  1.35933   1.79407  0.06967     0.10323   8578.06999   4514.52223  3.80792         4350.31281      18.4243  0.00148  48270.14877   0.78749  0.19485    5595.12106  48.10378  16.30194  48282.17332    50.47976       44.07297    7.09444  23.64814   13.5    1.40283  -20.95174  0.99931 
  -24.64505  0.12905  17.15792     15.13114  1.96798  1.24541   1.31005  0.30205     0.39077  16242.33617   4839.98968  3.70138         3459.41519     18.54992  0.00197  48274.65495   2.06164  0.16906  294086.57424  44.62546  15.64204  48272.31876    50.60653       44.33008    4.72963   16.5537   16.5    1.19022  -19.52491  0.82289 
  -36.07043  0.38756     1.561     15.14533  1.70263  0.92304   1.55124  0.20757     0.06472  12348.33342   4143.93889     1.11         3532.71581     17.18923    9e-05  48263.22957   1.41098  0.60119    1972.83694  48.81807  16.72644   48287.1006    49.90583       43.44929   14.18888  18.91851   19.5    0.88185  -20.10459  0.99938 
  -33.90935  0.05993    3.3431     15.06088  1.89888  1.30644   4.07576  0.06486      0.0649  10423.41371   4496.40825  0.35359         3509.80013     18.43253   0.0015  48265.39065   2.64153  0.24427   14888.60569  47.32619  16.78501   48287.1006    50.06247       43.64442    9.45926  18.91851   17.5    1.08955  -19.92534  0.99519 
  -39.28756  0.09223   1.40309     15.10695  1.29059  0.34335   1.31876  0.14511     0.21014    8812.1048   4440.26442  2.09346         4007.59608     18.65557  0.00251  48260.01244   0.61087  0.12163    1441.72572  48.92658  15.28747  48272.31876    50.57495       44.33336    4.72963  14.18888   18.5    1.00209  -20.33613  0.99947 
  -27.13181  0.14823   8.10949     15.08956  1.89708  1.28777   2.09577  0.14249     0.18468  12362.94811   4581.90336  3.38814          3174.0398     20.89182  0.43306  48272.16819    1.9108  0.31066   76694.28541  45.84418  16.45013  48284.63696    50.24458       43.91106    7.09444   16.5537   19.0    0.95877  -19.93097  0.92252 
  -45.34748  0.17198   2.00324     15.06092  1.61823  0.65817    2.0654  0.24549     0.06607   9728.23477   4427.55067  1.67104         2140.20027     18.70411  0.00281  48253.95252     1.166  0.35522    4554.81662  48.21595  15.60277  48267.39149    50.52073       44.03732    9.45926  26.01295   25.5    0.58418  -19.25922  0.99763 
  -38.15296  0.00626   1.56367     14.87093  1.85795  1.30294  14.41339  0.01393     0.01286   9237.09146   4989.80036  2.91621         4345.07101     19.45757  0.01593  48261.14704   7.33608  0.09016    7643.25989  48.26631  15.73055  48279.70968    50.39884       44.13366    9.45926  14.18888   17.0    1.11874  -20.95039  0.99978 
  -34.23484  0.02473   2.46404     14.86884  1.63536  1.01942   5.37547  0.03603     0.06923  10337.22161   4651.21946  1.65029         4142.26118     20.38782  0.13569  48265.06516   3.42651  0.13291   16867.52122  47.47211  15.57312  48279.70968     50.1348       43.86069    4.72963   16.5537   16.0     1.1275  -20.77827  0.99775 
  -41.44625  0.36496   6.74543     15.04795  1.83668   1.1674   1.80304  0.19842     0.05522  11299.72645   4220.06519  0.19161         3390.95781      18.1184  0.00073  48257.85375   1.37331  0.65804   62225.94018  46.08089  15.60708  48269.85513    50.35735       43.91331   11.82407  23.64814   24.0    0.71083  -19.57297  0.88854 
  -47.56288  0.01862   1.45377     14.88076  1.58023  0.74705   7.15221  0.04996      0.0308   8684.66003   4543.68217  0.20466         4061.42699     18.23499  0.00095  48251.73712    3.2179  0.13315    5370.48258  48.41256  13.96076  48269.85513    50.79384       44.63481    4.72963  11.82407   24.0    0.68289  -19.43653  0.99954 
  -38.80299  0.00922   0.87738     14.86821  1.57579  1.48956  18.85368   0.0207     0.01627   11013.6507    4798.3549   2.6796         2775.31291     16.27257    1e-05  48260.49701  13.64225   0.1739    2066.65868   49.2647  15.73623  48269.85513    50.36003        43.9636   11.82407  18.91851   20.5    0.81776  -19.75847  0.99996 
  -44.84239  0.00228   1.41771      14.5647  1.34955  1.41123   4.88411  0.09293     0.17104  12546.35926   4607.86918  3.94581         3397.56421     18.26398  0.00102  48254.45761   4.58615  0.01111   18697.17991  47.82409  15.66973  48279.70968    50.14108       43.83866    9.45926  14.18888   20.5    0.88931  -20.12874  0.99993 
  -46.40234  0.00131   1.11866     14.78361  1.91481   1.1607   7.44624  0.05723     0.08752  11259.71879   4659.33785  0.67108         2910.22527     20.56096  0.20216  48252.89766   5.63144  0.00975    6027.14414  48.67346   16.2186  48282.17332    50.14094       43.78005    9.45926   16.5537   22.0    0.74414  -19.93978  0.99999 
  -36.62072  0.00686   5.12648     14.79777  1.71429   1.0623   2.48868   0.0817     0.23571   10938.1981   4635.61767  4.78108         2730.14789     20.05581  0.06317  48262.67928   1.77618  0.01706   106169.9021  46.05729   16.3733  48284.63696    50.04711       43.67761    9.45926   16.5537   18.5    1.04774  -20.64459  0.99772 
  -32.71403  0.11947   9.97114     15.02501  1.69482  1.04546   2.11692  0.10994     0.09233  10099.97727   4345.25463  3.67171          3927.4309     18.77785  0.00333  48266.58597   1.28817  0.25292   139450.0525  45.35606  16.01919   48274.7824    50.13345       43.67756   14.18888  21.28332   18.5     1.0078  -20.00186  0.88248 
  -30.72376  0.02084   6.66701     15.01375   1.7712   1.5235   6.19774   0.0316     0.02148   8397.80442   5624.34835  1.80263         5153.78299     18.77094  0.00328  48268.57624   2.60731  0.12913   68617.67067  46.03281  16.31979  48284.63696    50.25837       43.98628    7.09444  14.18888   17.0    1.09041  -20.11776  0.97574 
  -42.55837  0.01518   6.20948     15.17413  2.10209  0.54906   3.27873   0.1165     0.16469  10116.51484   4652.74887  0.94214         3774.46356     19.28113  0.01061  48256.74163   2.00168  0.04978   33753.08855  46.47707  15.72455   48274.7824    50.18635       43.79641    9.45926  18.91851   21.5    0.75412  -19.78765  0.99285 
  -35.59184   0.0755    2.6775     14.90374  1.37239  0.74423   2.57011  0.11296     0.13344  11857.79912   4353.61288   0.9847         3031.38138     16.08887    1e-05  48263.70816   2.15569  0.19404   14232.02947   47.3976  16.32688   48274.7824    50.29652       43.72594    16.5537  30.74258   17.5    0.97052  -20.24704  0.99422 
   -42.4064  0.03327   1.74526     14.82878   1.7239  0.92826   1.66762  0.16865      0.2284  10181.64995   4424.46295  0.33637         3875.45441     16.75833    3e-05   48256.8936   1.03124  0.05548   10727.08479  47.99115  16.47961  48282.17332    50.12045       43.68726    7.09444  21.28332   21.0    0.84661  -19.96455  0.99965 
  -46.77108  0.00543   3.10073     15.01447  1.95133  0.69155   5.74026  0.05602     0.03481   8122.06903   5000.91539  4.02078         2815.30445     17.26721   0.0001  48252.52892   2.25887  0.03119   16298.06384  47.36411  15.74502   48274.7824    50.12777       43.73828   11.82407   16.5537   24.0    0.68702  -19.58015  0.99906 
  -33.94001  0.02552   8.50424     14.82114  1.66104  1.08273   2.32201  0.12997     0.27489  12433.22832   4874.30559  1.78683         3294.87691     20.52335  0.18539  48265.35999   2.14121  0.05927  254203.94198  45.22477  15.94506  48269.85513    50.61242       44.15194    9.45926  26.01295   18.5    0.99318  -20.10171   0.9767 
  -38.73108   0.0766   2.87848     15.07565  1.77857  0.51943   2.30482  0.11548     0.16197  12449.16882   4145.91016  1.91247         3733.57786     20.48792  0.17086  48260.56892   2.13081  0.17656    9658.70263  47.61567  15.81815  48277.24604    50.44768       44.15636    7.09444   16.5537   18.0    1.05532  -20.70644  0.99492 
  -29.17776  0.12055   4.99505     15.05515  1.64115  1.52718   2.07218  0.17236     0.13694  14531.26206   4807.64118  3.10529         3740.48169      18.6551  0.00251  48270.12224   2.61013   0.2498   29494.20744  46.61718  16.39183  48277.24604    50.33286       43.88299    9.45926  23.64814   16.5    1.10293  -20.06814  0.97997 
  -46.42909  0.01715   3.59756     14.63237  1.48333   1.0299   1.52504  0.23109     0.45801  11308.20312    4239.5984  3.82253         3526.44697      19.6532    0.025  48252.87091   1.16331  0.02615   96901.89006  46.34173  16.51235  48282.17332    50.00201       43.61882   11.82407   16.5537   21.0    0.88617  -20.22016  0.99789 
  -27.23146  0.26587   7.47326      15.1324  1.76031  1.08666   0.97855  0.23185     0.26119  11993.46167   4544.54322  4.60167         2417.25712      20.0709  0.06541  48272.06854   0.83965  0.26017   49617.28032  46.07178  16.37375  48282.17332    50.14813       43.71414   14.18888  18.91851   17.5    1.15457  -19.68222  0.94161 
  -39.10554  0.06685     4.184     15.02664  1.49391  0.56495   1.61002  0.26847      0.3294  11299.07452   4628.23831  1.36024         3110.22958     17.28927  0.00011  48260.19446   1.22616  0.10764   21480.33191  46.86794  16.06504  48277.24604    50.40316       44.03486    7.09444  18.91851   20.0    0.78145  -19.84375  0.98957 
  -37.66337  0.00658   0.74726     14.85344  1.84279  0.58064   4.80086  0.03862     0.07754   8576.58414   6361.86678   2.0108         4058.92739     21.39764  1.38793  48261.63663   2.10657   0.0316    1876.55835  49.51401  15.15837  48272.31876     50.7282       44.43338    7.09444   16.5537   18.5    0.91937  -21.63798  0.99999 
  -48.96743  0.01162   5.54407     14.95913  1.76143  0.72676   3.91995  0.14945     0.14459   9270.11244   4908.35323  3.27794         4093.36152     19.66466  0.02567  48250.33257   2.00945  0.04555    60683.9052  46.24398  16.07788  48284.63696    50.28947       44.02841    4.72963   16.5537   25.0    0.61917  -19.33882  0.99319 
  -42.72533  0.02955   1.80378     14.84521   1.7484  0.99667   2.53647  0.11045     0.11022   9221.03261   4650.14572  2.08263         2022.44127     18.92068  0.00463  48256.57467   1.28652  0.07495   10774.62471  47.96672  15.97683  48279.70968    50.43138       44.13942    9.45926  14.18888   22.0    0.77356  -19.73732  0.99954 
  -31.32911  0.02136   0.77957     15.05855  1.80934  1.44186  17.65389  0.01441     0.01433  10044.16407   4574.61839  3.14333         2920.95397     20.94811  0.49299  48267.97089  10.62418  0.37702     779.70606  49.85073  16.26834   48274.7824    50.49163       44.05176    7.09444  26.01295   19.0    0.86385  -20.87263  0.99998 
  -33.05141  0.16354   2.63219     15.15841  1.66087  0.95885   2.02403  0.18717     0.11672  11404.32451    4212.9263  4.78592         2103.72805     17.30513  0.00011  48266.24859    1.5703  0.33102    5151.82442  47.93659  16.45788  48282.17332    50.23673       43.81956    7.09444  21.28332   20.0    0.86479   -19.6725  0.99758 
  -46.95534  0.00144   1.56879     14.94881   1.3047  0.36852   1.21021  0.26151      0.2868   9173.26419   4767.44675  4.61577         2359.25704     16.29301    1e-05  48252.34466   0.60748  0.00174    3774.23047   48.4164  15.24391   48274.7824    50.42669       44.15308    7.09444  14.18888   23.5    0.71843  -19.79304  0.99998 
  -81.71049  0.00204   1.53576     14.51138  1.89122  1.31111   4.70283  0.14011     0.02183   6615.97764   4307.30745  1.70904         3665.86981     16.99068    5e-05  48217.58951   1.22793   0.0096   39304.22166   47.5785  16.83833  48289.56424     49.8384       43.36548   14.18888  18.91851   29.0    0.50732  -19.21845  0.99992 
  -39.77013  0.02543   0.86802     15.13816  1.82124  1.14103  10.71643  0.05305     0.03316  10454.61504   4392.33073  2.45767         2168.06589     19.99291  0.05466  48259.52987   6.98704  0.27248     674.39896  49.82323  15.08917  48260.00057    50.45117       43.98187    9.45926  26.01295   23.5    0.63997  -19.05465  0.99998 
  -24.24665  0.06939   9.46232     15.12218  1.58224  1.36284   3.24995  0.03723     0.02241   7285.79931   5449.16007  1.73047         5966.80352     18.24167  0.00097  48275.05335    1.0291  0.22551   74940.09991  45.64141  15.92528   48274.7824    50.22846       43.79296    9.45926  21.28332   16.0    1.20777   -19.7962  0.90458 
  -27.56849  0.03722  16.54781     14.90464  1.77794  1.37046   1.91873  0.14989     0.26509  12845.96117   4842.04207  2.80465         2616.86353     17.28281  0.00011  48271.73151   1.88875  0.07141  701344.04608  44.23535  15.26189  48269.85513    50.65082       44.33773    7.09444   16.5537   17.5    1.08904  -19.39408  0.90958 
  -40.51392  0.02093   2.98349     14.88858  1.65359  1.26261   8.84365   0.0349     0.02459   8732.95504   4481.40694  3.18226         4185.44974     18.58919  0.00216  48258.78608   4.02329  0.18511   22831.59591  47.17929  15.16039  48262.46421    50.53399       44.07756    9.45926  23.64814   21.0     0.7745  -19.92322  0.99521 
  -32.86052  0.24128   0.94198     14.79678  1.44915  1.53692    1.0218   0.1624      0.1618  11029.26698   4568.88487  0.44571          4450.5486     16.41048    1e-05  48266.43948   0.74146  0.24654    3044.10205  48.99842  15.36838  48269.85513    50.71835       44.36303    7.09444  18.91851   13.5    1.46019  -20.60997  0.99989 
  -35.86306  0.00908   6.83258      14.8736  1.64578  1.21306   7.90345  0.01033     0.01046   4224.16863   5294.35432  1.83073         5688.64679     18.52347  0.00185  48263.43694   0.84125  0.07176  127688.96143  45.70989  16.53684   48287.1006    49.89617       43.49765   11.82407   16.5537   17.5    0.99793  -20.24156  0.98212 
  -30.76091  0.27323   7.46956      15.1009  2.10769  1.26832   0.88893  0.24132     0.32901  11979.95025    4322.0044  3.31284         2596.12477     16.16655    1e-05  48268.53909   0.76104  0.24288   68614.58342  46.00965  16.39976  48282.17332    50.07688       43.69655    9.45926   16.5537   17.5    1.11967  -20.04764  0.95499 
   -35.5638  0.15196   5.65789      15.1564  1.98978  0.82328   1.31959  0.21257     0.26129   9895.50887   4155.29261  3.59202         2371.37802     17.58985  0.00022   48263.7362    0.7708  0.20053   28782.62607  46.60321  16.07722  48279.70968     50.1588       43.74036   11.82407  18.91851   20.0    0.83054  -19.86276  0.97844 
  -45.32141  0.00299   1.71401     14.80237  1.97066  1.14706   2.44385  0.11856      0.1449  10984.22886   4655.58854  4.09701         3368.29843     19.22536  0.00933  48253.97859    1.7589   0.0073   13356.91176  47.96972  15.97914  48282.17332    50.32565       44.08115    4.72963  14.18888   20.5    0.92984  -20.34065  0.99996 
   -31.3002  0.04002   8.17227     14.74606   1.4213  1.43718    1.9817  0.09101     0.09689  10617.40509   5165.74701  4.72273         4316.78911     16.92622    5e-05   48267.9998   1.33261  0.07931  283838.61792  45.14377  15.81122  48272.31876    50.33318       43.89398   14.18888  18.91851   15.0    1.30466  -20.64535  0.96426 
  -32.42056  0.03169   2.43593     14.84209  1.46651  1.19554   5.36745  0.03042     0.04002   9960.22529   4630.78823  0.43414           5072.274     18.77224  0.00329  48266.87944   3.17639  0.17008   16720.38119  47.43856  15.49519  48277.24604    50.60908       44.39773    4.72963  14.18888   15.5    1.37135  -20.21236  0.99724 
   -37.1093   0.1163   2.75229     14.87692  1.39201  1.43486   2.04144  0.25236     0.15895  11384.22305    4664.3366  1.74874         3030.27094     18.24056  0.00097   48262.1907   1.57823  0.23743    17258.3778   47.2961  16.08271  48279.70968    50.32636       44.04068    7.09444  14.18888   21.0    0.70509  -19.74991  0.99519 
  -29.41582  0.05784   6.91889     14.96304  1.76589  1.25133   2.04869  0.12126     0.21905  12500.13657    4949.6243  2.48486         2770.29756     19.55839   0.0201  48269.88418   1.90956  0.11849   93061.38528  45.86697  16.29281  48282.17332    50.44696       44.15507    7.09444   16.5537   17.0     1.1527  -20.03072  0.97393 
  -36.47704  0.01139    2.0571     15.03831  1.74962  0.96233  15.70479  0.01572      0.0161   8617.55315   4703.19785  2.84686         4124.33473     17.73342   0.0003  48262.82296   6.95708  0.17881    5763.09868  48.12462  16.75358   48287.1006    49.95409       43.56951    9.45926  17.39955   19.0    0.79352  -20.73096  0.99916 
  -31.58397  0.09569    5.1539     14.89762  1.58088   1.5075    1.1443  0.27747     0.47934  12917.08118   5081.74705  1.82049         4682.44288     17.27549   0.0001  48267.71603   1.13893   0.1095   62480.68296  46.24773  15.81776   48274.7824     50.5502       44.19831    7.09444  18.91851   16.0    1.16359   -20.4052   0.9859 
  -33.84085  0.07653   8.30679       15.031  1.84075  1.50006   1.92686  0.22999     0.17135  10507.37653   4976.33306  2.01483         4537.34431     16.71782    3e-05  48265.45915   1.26901  0.14746  102254.81238  45.68529  16.06636  48279.70968    50.34141       44.00695    7.09444  18.91851   21.0    0.72898  -19.79066  0.95674 
  -39.14696  0.02936   5.13774     14.86702  1.85442  1.55766   4.94283  0.05722     0.06051  10110.86609   4399.88135  1.93153         3634.44539     18.42363  0.00147  48260.15304   3.01425  0.14512   83853.46902  46.19199  15.99912  48279.70968     50.3679       44.05412    7.09444   16.5537   20.5    0.87114  -20.11032  0.98398 
  -41.62453  0.03455   8.94444     15.13239  1.81665  0.46642    2.1295   0.1512     0.12098    9229.4959   4591.26848  1.00798         3524.57657     19.50517  0.01778  48257.67547   1.08209  0.07357   73352.44077   45.7596  15.69375  48279.70968    50.62023        44.4161    4.72963  14.18888   22.5    0.72158  -19.66874  0.97207 
  -38.68178  0.02672   5.09093     14.82643  1.74689  1.39861   2.43776  0.15629     0.24486  11284.16398   4751.03414  0.27924         4396.29117     16.41719    1e-05  48260.61822   1.85164  0.06515    93500.3521   46.1267  16.48871  48282.17332    50.07406       43.68668    9.45926   16.5537   19.5     0.8556  -19.94308  0.99206 
  -30.62984  0.18803   2.31348     15.16218  1.89498  1.39717   1.93524   0.1074     0.06584  11071.93809   4706.48069   4.6377         4178.51927     18.54838  0.00196  48268.67016   1.41517  0.36388    4462.70077  48.16832  16.54367  48282.17332    50.09109       43.72423    9.45926   16.5537   16.0     1.2045  -20.70183   0.9989 
  -35.93154  0.16188  11.81375      15.0462   1.7995   1.1614   2.72883  0.13447     0.04093  10232.60121   4779.55425  4.04798         3082.55217     20.37654  0.13221  48263.36846   1.70441  0.44174  188511.23836  45.10388  16.27499  48279.70968    50.09055       43.65492    9.45926  21.16929   24.5    0.66332   -19.5946   0.7684 
  -35.38836  0.02913     0.925      15.1377  1.79784  0.63149   5.72134  0.02982     0.05831   9783.67482    4301.6941  3.50971         3516.91597     19.44342  0.01542  48263.91164   3.26685  0.16669     757.63181  49.71185  15.55234  48267.39149    50.56823       44.19862   11.82407  18.91851   14.5    1.21097  -21.57944  0.99996 
  -27.92668  0.10562   3.87175     15.02222  1.65011  1.54108   2.11089  0.08883     0.10648  10210.05137   4530.33796  1.31349         3489.07302     17.21966    9e-05  48271.37332   1.31265  0.22295    20735.2352  46.99384  15.10925  48277.24604    50.30403       44.12076    2.36481  14.18888   16.0    1.23577  -19.94858  0.99157 
  -41.06682  0.03114   2.06441     14.81388  1.49528  0.85281   4.79531  0.10691     0.10753  12103.87468   4859.32338  0.23618         2139.45777     20.83927  0.38371  48258.23318   4.19076   0.1493   13943.71685   47.6696  16.83062  48289.56424     49.7735       43.31075   14.18888  18.91851   20.5    0.78154  -19.89476  0.99795 
  -41.53847  0.02484   1.16789     14.73128  1.29244  0.93631  14.03187  0.01993      0.0133  11428.83035   4342.95839  1.73338         3058.70398     20.25315  0.09951  48257.76153  10.93318  0.34852    5642.57895  48.49397   16.0976  48279.70968    50.29431       43.94617    4.72963  18.91851   21.5    0.91071  -20.00933  0.99927 
  -34.89721  0.08107   4.60738     14.84931  1.55542  1.42249   1.75246  0.23684     0.23287  13230.37157   4846.42674  1.44104         2231.93557     17.57399  0.00021  48264.40279   1.82987  0.14207   61368.72562  46.34584  16.48202  48284.63696    50.11023       43.74667    9.45926   16.5537   17.0     0.9998  -20.02034  0.98507 
  -29.47887   0.0388  15.59086     14.91273  1.94648  1.54676   2.08979  0.12742     0.34112  11726.59229   4755.21081  4.56989         3446.43475      20.4516  0.15715  48269.82113   1.71425  0.08109  656676.81632    44.355  16.42058  48282.17332    49.98581       43.57335   11.82407   16.5537   19.0    1.02188  -19.75081  0.91961 
  -30.68843  0.06083   5.09566      15.0117  1.70207  1.26882   3.61915  0.06397     0.05904   9732.51016   4489.86704  0.93245         3599.52908     20.33985   0.1215  48268.61157   2.04495  0.22015     38885.311  46.49564  15.58835  48279.70968    50.25581       43.95995    7.09444   16.5537   18.5    1.05186  -19.74751  0.97852 
  -34.06972  0.03563   1.18608     15.08647  1.78353  1.41954  11.50932  0.02517     0.01421  11625.26959   4382.55191  3.55149          2235.8616     16.87784    4e-05  48265.23028   9.27861  0.41005    1564.51603  49.17752   15.4278   48274.7824    50.62452       44.34197    7.09444   16.5537   19.5    0.90733  -19.93096  0.99988 
  -46.10422  0.00311   4.78536     14.90547  1.97201  0.99743     2.129  0.20347      0.4537   9741.16231   4949.78531  0.33143          2485.1669     18.38001  0.00133  48253.19578    1.2051  0.00662   64805.51101  46.39231  15.47399   48274.7824    50.73635       44.47841    7.09444  14.18888   22.5    0.71133  -19.51976   0.9994 
  -32.37871  0.00692   2.21846     15.04581  1.77133  1.03503  12.69979  0.01097      0.0111   6405.20251   5521.90642  2.51095         4786.70198     18.47778  0.00167  48266.92129   3.10806  0.08785    6555.27925  48.00845  15.60288   48274.7824    50.31309       43.98253    7.09444   16.5537   15.5    1.20102  -21.02144  0.99951 
  -30.24458  0.15946   0.93641     15.16337  1.70477  1.36335   1.66118  0.10077     0.06043   7923.50029   4658.51255  4.20247         4120.63276     17.55639   0.0002  48269.05542   0.62212  0.26489      654.1505   49.7419  15.41621  48257.53693    50.71404        44.1974   11.82407  28.37777   17.0    1.06381  -20.11354  0.99998 
  -45.41427  0.05059   3.36848     14.91941   2.1394  1.30504   2.34482  0.16036     0.11446   9777.99167   4559.49101  3.72864         3986.93524     17.76509  0.00032  48253.88573   1.33732  0.11862   32670.23881  47.03012  16.49692  48282.17332    50.13894       43.73589    7.09444  21.28332   22.0    0.78482  -19.95014  0.99649 
  -30.22689  0.19477   1.12127     15.16069  1.73548  1.11598   2.02824  0.11519     0.07969  12074.66248   4512.05639  4.74357         2038.62822     16.21833    1e-05  48269.07311   1.76399  0.39503     966.63944  49.42358  16.68999  48282.17332     50.0745       43.57179   14.18888  23.53411   18.5    1.10862  -19.76189  0.99992 
   -37.6161  0.02052   1.86959     14.85429  1.50079  1.00482   8.87383  0.02494     0.02135   9070.38898   4615.21943  3.56444         2027.64551     18.93537  0.00479   48261.6839   4.35502  0.18213     9528.7699  47.92264  15.95648   48274.7824    50.50934       44.17496    7.09444  18.91851   20.5    0.84993  -19.91074  0.99875 
  -42.81159  0.06244   3.70869     14.98462   1.5841  0.58314   1.37823  0.32043     0.29647  11125.95411   4603.67242  0.83968         2897.34765     19.59181   0.0217  48256.48841   1.01771  0.08605    21717.3312  46.99338  16.53614  48284.63696    50.03975       43.57514   14.18888  18.91851   21.0    0.79107   -19.7389    0.994 
  -35.62916  0.06425   1.52622     15.12788  1.87119  0.98118   3.41856  0.07028     0.06613   8618.12775   4304.17285  3.15043         3857.28627     17.39296  0.00014  48263.67084   1.51459  0.21965    2246.01633  48.82232  16.77733  48289.56424    49.86303        43.3907   11.82407  21.28332   18.5    0.90432  -20.41198  0.99979 
   -38.9144  0.02671   1.11942     14.89087  1.93923  1.47153   4.45019  0.05141      0.0812   9990.22059   4444.50315   2.3679         3728.66194     17.43521  0.00015   48260.3856   2.64945  0.11885    3729.90655  48.88679  16.65902  48284.63696    49.97421       43.51597   11.82407  21.28332   18.5    0.99618  -20.45465  0.99993 
  -25.81658   0.1679  10.95856     15.15111  1.61656  1.11001   1.98349  0.14988     0.14703  13633.19058   4318.26626  4.71183         2793.88103      17.4927  0.00017  48273.48342   2.19913  0.33302   89888.30396  45.44423  16.34126  48279.70968     50.1785       43.80428    9.45926   16.5537   18.0    1.12075  -19.51224  0.82196 
  -32.33937  0.02291   7.60457     14.77043  1.44642  1.17797   2.26952  0.07429     0.19794   9115.88051   5043.99685  0.62058         5831.50123     17.34309  0.00012  48266.96063   1.12501    0.052  223559.98308   45.3176  15.98542   48274.7824    50.54202       44.12498    7.09444  23.64814   17.5    1.11044  -19.91735  0.97998 
  -63.73596  0.00834   0.81729     14.51693  1.45459  1.45099   4.20505  0.10519     0.05231       6754.9   4321.57818  2.94904         4064.04569     17.30676  0.00011  48235.56404   1.14455  0.03508    8345.30006  48.68539  16.12195  48277.24604    50.41761       43.97889   11.82407  21.28332   27.5    0.57595  -19.23474  0.99997 
   -42.3139  0.02476   6.30376     14.73097  1.82497  1.56711   1.32071  0.20596     0.32975  10717.81046   4363.61501  1.95897         3983.74686     18.38338  0.00134   48256.9861     0.905   0.0327  232445.33704  45.56458  14.77484  48260.00057    50.86276       44.50077    7.09444  21.28332   20.5    0.92004  -20.29023  0.99381 
  -40.18077   0.0103   2.97454     15.16798  1.74778  0.45427   6.08703  0.04905     0.07529  10255.91447   4741.66811  4.30639         2272.83136     17.02861    6e-05  48259.11923   3.81928  0.06269    6624.81533  47.74332  15.95723  48279.70968    50.73651       44.48234    4.72963   16.5537   20.5    0.82227  -19.90324  0.99816 
   -30.6823  0.07803   7.01037     15.16043  1.30183  0.41395   2.14389  0.12999     0.14373  12278.11283   4687.58436  3.07777         3214.79941     18.70298   0.0028   48268.6177   1.92794   0.1673   28379.15477  46.23892  16.74525  48284.63696    50.09724       43.64989    9.45926  23.64814   18.0    1.08634  -19.94256  0.93997 
   -38.7688  0.00173   7.58727     14.82632  1.45434  0.67542   1.76818  0.18102     0.40161  11221.06731   4812.43845  1.71366         4265.91876     19.78341  0.03374   48260.5312   1.32807  0.00306  172986.78308  45.43333  16.05097  48282.17332    50.40048       44.11239    7.09444   16.5537   19.5    0.88624  -20.20248   0.9988 
  -38.14635  0.03641   10.0943     14.75083  1.66063  0.94716   1.59284  0.14593     0.17523   12216.4247   4470.73501  4.43278         3888.33146     19.71091  0.02855  48261.15365   1.41804    0.058  494960.40235  44.78639  15.80785  48277.24604    50.15233       43.75692   11.82407  18.91851   18.5    1.03713  -20.50852  0.96779 
