 log(Bfield)      Mns     Pspin  cutoff_power  cutoff_wavelength  fnickel    kappa  kappagamma   mejecta  log(nhhost)  temperature  texplosion  thetaPB      vejecta      A_V        MJD_0   log(KE)      M_Ni  Peak_mag     Peak_MJD 
    14.98538  2.05732   1.10195       2.99893         4506.27449  0.16909  0.07358     0.11978    2.2707     19.91384   4871.44072   -39.87229  1.21542  10154.60109  0.04556  48259.42771  52.44467     7.653  14.25206     48267.82 
    15.00942  1.86203   7.31371       1.32578         4228.00666  0.45682  0.19876     0.37354   0.95666     20.61984    4195.4375   -31.03444  1.38825  11823.34957  0.23151  48268.26556  52.43644  14.96506   16.4933  48279.60667 
    14.48551   1.4744   9.45825       0.49369         2334.79334  0.13505  0.28243     0.01771  16.85324     21.00965   4554.62814   -73.70923   0.9839   9989.36934  0.56804  48225.59077  52.64539  10.02763  17.55983     48294.34 
    14.68822  1.97196  14.45309       2.17058         2790.61624  0.00529  0.24389      0.0106   8.02158      20.6514   5045.14523   -44.78292  0.61602   5888.17363  0.24896  48254.51708  52.11844   0.33591  14.53959     48267.82 
    14.92965  1.67396   1.79491       2.05674         4362.16784  0.05017  0.23781     0.01504   9.26444     21.11901    5713.6246   -60.44009  0.78289   4529.08054  0.73069  48238.85991  51.90452   3.29083  15.79579     48276.66 
    14.66353  1.86218   4.20205        3.3126         3367.71873  0.01092  0.16731     0.26771   1.02528     18.79375   4850.15027   -48.55581  1.49038  10677.22514  0.00346  48250.74419  52.36096   0.36873   17.5724      48299.3 
    14.97881  1.55151   4.03683       4.44434         4255.06209  0.08179  0.03275     0.05405   4.65694     17.05998   5219.77436   -32.03743  1.22993  10303.01368    6e-05  48267.26257    52.547   4.55121  15.30542  48264.87333 
    15.08584  2.19716   2.40211       3.55818         2025.07805  0.21835  0.10227     0.18633   1.88262     16.14073   4128.08049   -36.84085  1.42115  11400.64048    1e-05  48262.45915  52.51838   9.29088  15.55025     48276.66 
    14.49608  1.67813  12.67714       2.18436         3894.75454  0.00132  0.32521     0.05612   3.33535     16.20631   5451.46365   -71.69971  0.79652   4963.96044    1e-05  48227.60029  51.87332   0.06719  14.81333  48264.87333 
    14.37472  2.00861  12.94446       0.28498         5147.92406  0.00166  0.26241      0.0589   1.31912     17.78037   4985.36671   -80.70836  1.19854   4375.13153  0.00034  48218.59164  51.63054   0.06195  16.20651  48279.60667 
    15.11149  1.84365   5.87719       1.99886          2674.5172  0.07674  0.02303     0.02975   5.45566      17.2305   4058.13265   -37.81723  0.79828   9520.04247    9e-05  48261.48277  52.49586   4.44597  16.21439  48279.60667 
    14.79234  2.00443   6.71374       1.79685         4580.89971  0.01379   0.0283     0.04706   4.94653     16.94026    4773.7407   -41.52628   1.4625   10311.2216    5e-05  48257.77372  52.55445   0.77961  17.52772  48291.39333 
    15.12499  1.80807   1.85756       0.55892         4556.94858  0.28942  0.10461     0.11988    1.8246     16.64125   3862.45203   -36.73348  0.81804  11531.38872    2e-05  48262.56652  52.52364  12.18355  14.67127  48270.76667 
    15.07569  1.61178  13.13892       4.72706         3988.92358  0.04011  0.01435     0.02153   8.86269     17.88575   4745.05956   -29.43742  1.05781   9200.01004  0.00043  48269.86258  52.51581   2.60529   15.4193     48267.82 
    15.13591  1.89262   1.06944       1.11653         4311.37781  0.45829   0.1513     0.16955   1.15448     17.70054   4156.39011    -33.3808  1.20323  10962.61985  0.00028   48265.9192  52.40541  16.25899  16.20098  48264.87333 
    14.91695  1.64161   5.96141       3.39668         3959.37799  0.03625  0.01359     0.01655   6.98942     17.26183     4989.313   -39.42376    0.955   7483.71515   0.0001  48259.87624  52.31288   2.22986  15.73753  48279.60667 
    14.02281  1.14436   7.79933       4.51378         3980.98271  0.00202  0.29819     0.10105   2.34056     20.89699   5025.81297   -75.00825  0.92648   6370.13707  0.43824  48224.29175  52.04383   0.09249  15.61153  48279.60667 
     15.0363  1.93109   8.89478       2.77251         3387.70159  0.25267  0.20465     0.31946   0.82734     17.22235   4412.53307   -29.85121  1.25096  12919.95466    9e-05  48269.44879  52.48471   7.74673  16.33786  48279.60667 
    15.14836  1.93166   7.30796       0.08377         5080.64178    0.376  0.14547     0.25865   1.36118     20.43209   4802.64992   -34.16124  1.51708  11778.90913  0.15025  48265.13876  52.49601  14.23523  17.63447  48291.39333 
     15.1494   1.9179   6.47297       1.44704          3813.4799  0.32664  0.12838     0.18501    1.7214     20.80305   4426.96407    -30.2347  1.00855  12405.96476    0.353   48269.0653  52.57836  13.47529  17.41685     48294.34 
    15.04696  1.74121   0.89409       2.15418          3931.2716  0.26206  0.11369     0.16645    1.3771     18.76857   4902.34962   -35.79469  0.84799  10779.78233  0.00326  48263.50531  52.42095   9.96543  16.06415  48282.55333 
    14.74082  1.86162   1.57049       2.15428         4601.36157  0.00455  0.01096     0.01701  12.69931     19.13428   4689.85828   -43.95419  1.21277  10022.01832  0.00757  48255.34581   52.6236   0.31927  15.33384  48273.71333 
     14.9829  1.52659   3.17513       0.37253         5555.90149   0.0921  0.04417     0.08162   2.54388       17.728   4970.16136   -36.15152  0.61961    9179.9451   0.0003  48263.14848  52.37251   4.31996  17.61466      48299.3 
    14.69588  1.66855   9.15203       1.76755         3297.19156  0.03727  0.12313     0.15914   1.45428     18.10249   4793.38205   -36.52479   1.4297  12374.32579   0.0007  48262.77521  52.54968   1.44663  13.84787  48264.87333 
    15.06883  1.72898  14.51102       4.58256         3612.63237  0.05226  0.01704     0.01497  11.89454       20.743   3687.06063    -44.1178  0.77546   6757.57929  0.30741   48255.1822  52.27537   3.61708  13.66003      48241.3 
     14.6911  1.93141   7.08032       0.33836         5674.80915  0.00111   0.1411     0.02533   0.64093     18.36765   4620.73616   -62.41149  1.08387   2343.61083   0.0013  48236.88851  50.94623   0.02997  15.26401     48250.14 
    15.10744  1.59524   3.67771       4.56531         4141.81792  0.15813  0.03746     0.02763      3.11     17.86427   4809.76071   -43.38002  0.49436   8731.79898  0.00041  48255.91998  52.35514   7.87619  17.72008     48294.34 
    14.94307  1.77911   15.2959       1.41416         4519.86089  0.00146  0.17512     0.05749   2.09504     18.55863   5712.28816   -57.04428  0.36851   3988.12981  0.00201  48242.25572  51.62156    0.0643  15.81084     48276.66 
     14.5717  2.06817   4.69398       1.32588         2763.66622  0.02273  0.32559     0.44487   0.66487     21.11772   4335.36428   -64.85863  0.92805  10166.15156  0.72853  48234.44137  52.22923   0.62503  16.84644  48261.92667 
    15.04168  1.99284  14.06692       2.57704         4802.58991  0.35033  0.19248     0.45657   0.84916     16.33725   3716.89021   -31.32894  1.09413  11952.46191    1e-05  48267.97106   52.4224  10.87254  17.07072  48282.55333 
    14.52282  1.57233   9.55201       1.67988          4334.1577  0.00453  0.32443     0.16167   1.25322     16.80863   4617.31159    -73.9023  0.70076   5075.64893    4e-05   48225.3977  51.75085   0.16609  15.67976  48273.71333 
     14.5247  1.29681   3.47514       2.31901         4592.62107  0.00373  0.22757     0.46931   0.63554      18.1734   5834.52059   -59.71214  0.72279   8226.33741  0.00083  48239.58786   52.0349   0.10012  15.60928  48279.60667 
    15.06168  1.61091   2.03381       2.28867         4115.44383   0.0993  0.03792     0.04405   3.76328     17.20514   3629.74412   -41.60307  0.53647   9438.58913    9e-05  48257.69693  52.44615   5.22008  17.59561  48297.28667 
    14.43516  1.64676   4.72145       1.25102         3766.86265  0.00112  0.33638     0.41049   0.95507     21.25234   6064.71617   -62.84742  0.75937   9357.88981  0.99327  48236.45258    52.233   0.03673  16.12879  48282.55333 
    15.16504  1.70139   3.38114       2.25966         2423.16021  0.00114  0.01869     0.07243    5.5876     17.01024   4167.85224   -43.32528   0.3096   7710.54329    6e-05  48255.97472  52.31534   0.06665  15.10393  48261.92667 
    14.96667  1.62033   6.59409       1.06953         4413.81909  0.03677   0.0275     0.08034    4.3907     17.52366   4339.29471   -39.79979  0.60375    9288.9723  0.00019  48259.50021  52.45031   2.01493  14.35306     48258.98 
    14.46874  1.61813   3.43548       4.42388         2888.82037   0.0015  0.17663     0.27194   1.08703      16.0974   4849.14793   -59.64091  1.41541  11448.10255    1e-05  48239.65909  52.43226   0.05176  15.56481     48276.66 
    14.92034  1.54429   2.52769       4.88736         2227.11279  0.14221  0.06363     0.14143   2.03699     19.95618   4334.70704   -31.11203  1.29832   8998.40727  0.05022  48268.18797  52.32433   6.21305  17.78931     48308.29 
    15.09307  1.93892  22.73624       3.01957         4027.70055  0.17197  0.30114     0.05653   2.79132      16.2407   3973.01621   -47.41211  0.76421   6061.02539    1e-05  48251.88789  52.02418   8.29692  17.54136     48294.34 
     15.0412  1.89367   5.31491       2.10911         3920.75623  0.23653  0.10999     0.16301   1.77137     18.23735   3297.90265   -41.78885  0.80334  10763.15529  0.00096  48257.51115  52.45932    9.8558  15.69303  48279.60667 
    14.46555  1.75023  11.48892       1.36374         4515.84399  0.03124  0.30743     0.01463   8.50649     19.07714   4539.73524   -68.94452  1.29769   5846.76859  0.00664  48230.35548  52.11808   2.01049  14.89934  48264.87333 
    15.17255  1.86678   3.15211       4.98165         2997.12448   0.2028  0.06017     0.07445    3.0343     20.90197   3168.75906   -28.49323  1.34702  11385.18666  0.44329  48270.80677   52.5825  10.02896  17.39606  48273.71333 
    15.07054  1.61928   8.21148       4.42041         4619.93792  0.11351  0.03424      0.0429   2.85194     17.40508   4224.71029   -31.42558  0.74827   8299.95438  0.00014  48267.87442  52.30002   5.51137  14.16481  48264.87333 
    15.07142  1.84686   7.26548       1.90207         3726.35223  0.45672  0.18783     0.20571    1.3745     18.46767   3788.94751    -35.7685   1.5685  13124.82659  0.00163   48263.5315   52.5916  17.35543  17.69239  48291.39333 
    14.94747  1.50683   1.13858       3.57175         2306.55561  0.05475  0.02665     0.04782   4.85327     17.08384   4588.48459   -35.49873  0.71282    9537.8908    7e-05  48263.80127  52.48462   3.07946  15.30984  48270.76667 
    15.13659  1.53209   0.98501       1.71671         4151.30409  0.08811  0.29766     0.01024   6.61181     19.53592   6428.28299   -46.41408  0.78869   5450.96702  0.01908  48252.88592  52.03188   5.34949  15.20572  48270.76667 
    15.14737  1.66058   1.16796       4.28499         3987.53717  0.27807   0.0861     0.09592   1.88983     20.20849    4635.2476   -31.14511  1.02027  11000.31259  0.08979  48268.15489   52.4879  11.84713  16.27111  48273.71333 
    14.66352  2.01321   7.02758       2.63834         3643.63352  0.02231  0.18202     0.20663   1.68136     19.76379   5551.01319   -51.05696  1.18666   14091.8275  0.03225  48248.24304  52.68544   0.91298  15.52549  48279.60667 
    14.84007  2.04609   4.55943        1.3726         4542.77038   0.0119  0.10254     0.36882   1.35072     17.04749   4825.63319   -39.06102  1.50124  10547.50163    6e-05  48260.23898  52.39882   0.44915  16.78191  48282.55333 
    14.97804  1.95607   3.73241       0.74629         3640.34628  0.02792  0.06497     0.28975   3.00713     18.90951   4576.38937   -34.13586  0.96892  13230.68234  0.00451  48265.16414  52.71184   1.37723  17.66106  48288.44667 
    14.19909  1.24033   8.81878       0.80139         5686.63802  0.00146  0.30158     0.23322   0.93706     18.03369   7415.57837   -68.84298  1.22497   4690.65742   0.0006  48230.45702  51.62944   0.04735  15.49621  48264.87333 
     14.4355  1.68382  14.71509       1.61816         5954.83984  0.00859  0.31482     0.08091   1.23962     17.04635   4738.05672   -55.62222  1.47988   4079.84893    6e-05  48243.67778  51.55929   0.31353  13.98662  48264.87333 
    15.14932  1.94847   6.24237       2.96394         4293.09518  0.33864  0.14519     0.19159   1.44058     16.13732   4096.22571   -31.85223  1.42897  11798.07026    1e-05  48267.44777  52.50673  13.09834  17.64566  48297.28667 
    15.16904  1.98517   7.47586       4.02563         3401.97425   0.2962  0.10784     0.12521   2.12314     19.98442    3416.6219   -33.36281    1.094  12910.75387   0.0536  48265.93719  52.64382  13.11812   15.5347     48276.66 
    14.91407  1.61767   6.40537       3.32814         4147.85529  0.04007  0.03718     0.08825   3.28388     18.47979   5034.74187   -27.71962  1.34284  11371.54996  0.00168  48271.58038  52.59138   2.02726   15.0831  48264.87333 
    14.28659   1.6868  12.25556       4.58526          4029.2576  0.00678  0.25855     0.03681   4.12913     20.70358    4975.1275   -62.33432   1.3407   6019.61591  0.28074  48236.96568  52.06642   0.36542  16.38118      48285.5 
    14.88101  2.16267  15.34944       2.88137           3985.056  0.05041  0.03257     0.08901   3.30042     16.61525   4691.96133   -42.53915  1.50933   8317.29915    2e-05  48256.76085  52.32033   2.55408  15.97795     48276.66 
    15.10956  1.89921   6.90682       1.65099         3422.19166  0.31153  0.15239     0.42804   1.15663     16.71626   3121.77464   -30.85099   1.5294  10524.03087    3e-05  48268.44901  52.37027  11.06059   15.0722     48267.82 
    15.06968  2.12442   8.06171       3.41609         3542.27779  0.09872  0.04681     0.08921   6.79918     20.93548   3586.45169   -34.45498  1.12576  15090.82434  0.47885  48264.84502  52.91924   6.03372  16.75826  48279.60667 
    15.16346  2.06815    3.1758       3.84086         3559.92991  0.18611  0.06738     0.11925    2.0765     16.20204     4173.433   -36.50496  1.25336   8363.82076    1e-05  48262.79504  52.26356    8.1829  15.64669  48279.60667 
    15.14899  1.97853   3.54997       4.21624         4075.53171  0.21412  0.09578     0.17809   1.38706     19.36657   4845.99358   -31.95085  0.93499   9598.78768  0.01292  48267.34915  52.32135   8.16476  15.63381  48273.71333 
    14.96667  1.48859   0.91703       2.53589         3627.88907  0.03352  0.01323     0.02173   11.2497     18.61065   4374.61265   -33.19758   0.9949  10064.93669  0.00227  48266.10242  52.61632   2.29289  16.99224  48270.76667 
    15.04463  1.64847   3.06612       3.79541         3920.37447  0.04071  0.02046     0.07508   7.17979     17.03935   4161.69881   -34.14182  0.90983   9500.97801    6e-05  48265.15818  52.52291    2.5204  14.79163  48270.76667 
    15.06554  1.87276   1.45169       4.77312         2618.80447  0.13754  0.05906     0.09406    2.6089     17.47401   3177.12054   -39.17878  0.81256   9122.91354  0.00017  48260.12122  52.37046   6.50133  15.89933  48282.55333 
    14.93275   1.7558  12.88597       4.56576         3173.94034  0.07829  0.03798     0.05698   4.66895      19.9474   3603.95255   -33.49097  1.16548  11274.95206  0.04922  48265.80903  52.62559   4.35964  16.12467     48276.66 
    14.38619  1.55182   3.17424       0.13428         5277.06095  0.00196  0.16516     0.17539   1.43795     21.45614   9291.62988   -52.47151  0.67567  10001.09043  1.58806  48246.82849   52.3629   0.07575  14.57009     48276.66 
    14.31979  1.66672  13.30091       0.35989         5521.87651  0.00111  0.32982     0.04785   1.68499     17.51476   5905.63242   -76.89417  1.19274   3523.76304  0.00018  48222.40583  51.48185   0.04551  16.31179  48279.60667 
    15.16151  1.94634   0.93533       1.27778          3974.1269  0.09905  0.04444     0.11735   3.33086     19.90982   5011.60494     -28.685  1.15574  11217.27251  0.04514    48270.615  52.58127   5.03177  15.91782  48279.60667 
    15.07642  1.72419  19.34385       4.37227         3872.90495  0.05429  0.03262     0.04056   4.58783      18.5135   4647.87271   -25.57416  1.02791  12787.72712  0.00181  48273.72584  52.73297   3.00924  15.96086     48276.66 
    14.32728  1.85399   9.79187       0.00551         4559.15906  0.00163  0.33989     0.08708   1.59516     17.54563   4921.00815   -89.81261  1.25554   5311.46679   0.0002  48209.48739  51.82978   0.06564  15.24483     48276.66 
    15.12706  1.92642   1.32575       4.10368         4349.23826  0.33589  0.12094     0.19848   1.08957     20.12099   4673.51886   -31.08777   1.1316   9900.97845   0.0734  48268.21223  52.30657  11.63541  14.09322     48267.82 
     15.0124  1.92477  17.30829       4.99424         2935.44591   0.0907  0.02208     0.01944   4.24923     18.60822   4704.97332   -36.96228  1.28407   7930.78568  0.00225  48262.33772  52.30924    4.9269  15.90532  48282.55333 
    14.98667  1.61088   5.67332       0.25383         4843.63644  0.02964  0.01618     0.04002    8.0268     18.34493   4852.92218   -33.09586  0.81545   9973.49471  0.00123  48266.20414  52.57624   1.88252  16.85469  48282.55333 
    14.99205  2.09854   3.14303       2.31849         3493.38347  0.48292  0.23885     0.39315   0.84736      20.4002   4619.64506   -35.48543  1.49988  12262.82541  0.13961  48263.81457  52.44424   14.9727  15.86317  48279.60667 
    15.11461  1.68592   4.54168       1.97165         4464.10892  0.35203   0.1286     0.22944   1.11763      20.5867   3986.13227   -30.40256  0.78309  10154.68298   0.2145  48268.89744  52.33313  12.32386  15.75785  48279.60667 
     14.9279   1.6353    1.7516       1.20983         4285.10891  0.15819  0.06367     0.17628   2.08305     20.87296   4291.93783   -30.16382  1.18965    9642.9811  0.41466  48269.13618  52.38763   6.96244  15.36669  48273.71333 
    14.48001  1.52899   3.46787        1.3758         5418.50526  0.00364  0.20815      0.3678    1.4313     21.11995   8174.97255   -52.87651  0.80248  12245.39111  0.73228  48246.42349    52.538   0.14056  14.89039  48273.71333 
    15.09805   1.7677  21.29463       0.57144         3562.44502  0.19541  0.30579     0.02657   4.04126     17.20129   3039.41048   -52.20064  0.42122   7040.56058    9e-05  48247.09936  52.19998  10.47328    14.068  48264.87333 
    14.88833  1.97318   9.14491       0.43822         2980.29777  0.05166  0.13841     0.35978    1.5075     18.74685   4978.30473   -32.84321  1.34009  13913.26592   0.0031  48266.45679  52.65728   2.03218  15.87805     48276.66 
    14.86643  1.73468   3.44114       1.62646         5052.19667  0.00104  0.07383     0.25058   1.95936     21.25671   6530.96428   -37.14896  0.47985   10098.4854  1.00332  48262.15104  52.41889   0.04483  15.93493     48276.66 
    14.74496  1.86867  11.83924       1.16507          5925.1383  0.02895  0.24813     0.02355   4.99596     20.76969   7103.51171   -41.20469  1.33409   5071.16345   0.3269  48258.09531  51.93915   1.64034  16.79506  48273.71333 
    14.59697  1.42431   1.22589       2.93408         4304.72634  0.00835  0.02362     0.05975   6.05553     19.65637   4904.55893   -43.17975  1.06369  10110.46087  0.02518  48256.12025  52.55929   0.49615  16.94704  48264.87333 
    14.43362  1.55707   1.92053       4.14544         4114.16875  0.00114  0.04211     0.06004   4.01946     16.43581   5336.63656   -67.87568  1.18638   7367.01313    2e-05  48231.42432  52.23872   0.06124  14.62646  48264.87333 
    14.52127  1.95344   5.53803       3.00249         2740.29645  0.03358  0.33185     0.49336   0.67199     17.70472    3624.1133   -67.51003  1.33342   9118.79025  0.00028  48231.78997  52.13721   0.92863  17.29095  48282.55333 
    14.87928  1.90298   16.2017       1.70291         4728.82259  0.00157  0.28196     0.11314   2.76504     20.16465   4636.55425   -55.23987   0.2807   5808.19992  0.08117  48244.06013  51.98593   0.07552    15.783  48253.08667 
    15.08443  1.88162   4.25175       2.44182         3982.57459  0.47269   0.1669     0.23794   1.01481     20.59675   4747.82581   -31.87431  1.28781  10898.89594  0.21952  48267.42569  52.37689  15.88824  15.87752  48279.60667 
    14.69181  1.81974  16.56674       4.94308         4639.60157  0.00296  0.09553     0.01057   0.47134     16.87692   6330.19942    -64.5721  0.75641   1378.55086    4e-05   48234.7279  50.40708    0.0667  16.47139  48261.92667 
    14.74356  1.41399  14.45548       4.40228         4362.57263  0.00829  0.25783     0.24142   0.77548     18.56368   4959.60962   -46.37085  0.40395   4965.44293  0.00203  48252.92915  51.64063   0.24634  14.58804  48253.08667 
    15.01408  1.69874   4.17272       1.36936         4368.51996  0.09491  0.03294     0.04001   4.16755     17.50659   4264.56736   -36.54482  0.89529   9399.94623  0.00018  48262.75518  52.45461    5.1293  14.84186     48267.82 
    15.04798  1.73946   2.32103       0.84168         5837.95065  0.10391   0.0356     0.03601   3.53262     19.55036   3060.41721   -30.83241    0.902   9059.59422  0.01973  48268.46759  52.40293   5.36717  16.03194  48261.92667 
    14.45812  1.88148  16.13905       2.50654         4252.79991  0.07765  0.28913     0.01148   5.32519     20.10151   4819.37932   -60.69834  1.43374   5373.94495  0.07018  48238.60166  51.99654   4.47181  15.55615     48267.82 
    14.90209  1.57278   9.29177       3.79301          2773.8868  0.08418  0.09529     0.17008    1.9956     19.88474   4893.26316   -28.96005  0.97402   14082.8751  0.04261  48270.33995  52.71042   3.65289  16.32318  48282.55333 
    14.91077  1.64166  10.54046       0.31123          5542.0462  0.04202   0.2747     0.02402   6.23458     18.41752   5478.44803   -52.76553  0.66196   5291.04125  0.00145  48246.53447   51.9999   2.51538  15.78792  48273.71333 
    14.95224  1.68567   8.89957       0.23649         5323.76331  0.01678  0.02639     0.11853   4.14627     18.18829   4491.31793   -36.88389  0.64948   9114.58481  0.00086  48262.41611  52.42724   0.90578  16.62027  48279.60667 
    14.93276  1.80776   7.09395       2.19317         4010.67766   0.0149  0.03916     0.09866   3.49221     20.56953   5311.39518   -31.93526  0.84464  11364.05079  0.20618  48267.36474  52.59838   0.76736  17.03102  48270.76667 
    15.05818  1.64722   2.52126       4.31753         3224.27844  0.03824  0.01234     0.02451   7.36434     20.23755   4755.28699   -30.43438  1.01084    7616.5733    0.096  48268.86562  52.33346    2.3814  16.14348  48282.55333 
    14.77261  1.74961   7.14756       1.25656         3898.71285  0.00114  0.19664     0.47809   1.40576     21.33679   5954.38671   -39.85129  0.46305  12497.91472  1.20647  48259.44871  52.55279   0.04358  17.37424  48288.44667 
    14.68308  1.74678   5.44572       3.12017         2637.86558  0.00145  0.17535     0.10897   8.97399     21.44221   5743.22793   -53.78851  0.49711   6007.99975  1.53792  48245.51149   52.1469   0.09422  17.95727     48312.02 
    14.78213  1.99951   2.12822       3.24051         3510.11461  0.01236   0.0433     0.08205   4.44114     20.63674   4920.91955    -42.0644   1.2307  12027.79865   0.2407   48257.2356  52.67606   0.67937  17.63375  48279.60667 
    15.00372  1.95926   7.75584       2.17935          3949.1711  0.06568  0.03154     0.06981   3.42151     16.35412   5882.79268   -34.44762  1.12965   8198.14541    1e-05  48264.85238  52.31224   3.36194  14.80586  48261.92667 
    14.83549  1.99278  15.13161       3.52991         5072.63485  0.02528  0.22203     0.03666   5.58192      19.4462   5786.92515   -39.37332  1.34572   5091.34099  0.01552  48259.92668  51.95472   1.47314  15.24131     48276.66 
    14.64744  1.50535   4.05757       1.07159         4665.58628  0.00345  0.04475     0.12674   2.60695     17.89668   5914.95054   -48.83455  0.82547   8095.29046  0.00044  48250.46545  52.26656   0.16322  15.79623  48273.71333 
    14.70773  1.64594   2.37592       4.37797         2806.48982  0.07304  0.08967     0.23257    1.6895     18.41268   5453.00988   -44.13387  1.11707  10033.16347  0.00144  48255.16613  52.39112   2.99336  17.38505  48279.60667 
    15.07849  1.82698   2.96893       2.45564         3434.57886  0.04072  0.01693     0.03496   8.85108     18.06605   4914.37916   -29.89882  1.49114  10468.02824  0.00065  48269.40118  52.62784   2.64433  16.95652  48264.87333 
    15.15786  2.00014  13.73475       4.57129         3912.93447  0.12492  0.05287     0.09733   3.04611     18.56173   4086.92342   -30.47603  1.37169  10461.45289  0.00203  48268.82397  52.50949   6.18466  16.10501  48273.71333 
    15.01371  2.08893   8.20498       0.36814         4359.27734  0.27695  0.13115     0.25356   1.25483     19.17873   3347.20914    -35.1177  1.45891  10546.88793  0.00838   48264.1823  52.38634  10.15917  15.18591  48270.76667 
     15.0329  1.77045  11.53983        2.8987         5585.20858  0.00104  0.13214     0.01426  12.35383     16.54445   5266.40498   -50.68355  0.42466   4452.03016    2e-05  48248.61645  51.91633    0.0728  15.71738     48276.66 
    14.73424  1.77792   3.31333       4.47269         3341.34224  0.01462  0.14952     0.34857   1.23864     19.18741   4814.64987   -39.05992  1.51268  12318.68765  0.00855  48260.24008  52.51899   0.53355  16.25599  48282.55333 
     14.9387  1.73775   4.63039       1.58705         3609.01412  0.01678  0.01545     0.03522   8.69702     18.81535   4415.38828   -43.78791  0.65187   9706.68989  0.00363  48255.51209  52.56055   1.08551  15.60582     48276.66 
    14.55064  1.79427   5.24353       0.58263         4871.32498   0.0074  0.32382     0.09274   0.97117     17.04498   4208.13431    -69.5584  1.18988    3816.0115    6e-05   48229.7416  51.45706   0.24403  15.38715  48270.76667 
    14.71682  1.56127    5.1642        2.1758         4099.93237  0.00167  0.03864     0.22657   3.31086     16.23133   5463.92522   -49.08979  0.76234   9026.85475    1e-05  48250.21021  52.39183   0.08468  15.93211  48279.60667 
     14.6949  1.81667   1.20396       4.81027         2908.13425   0.1267  0.07404     0.09841   4.43494     17.17023   3162.55466   -51.94141  1.56145  14167.95482    8e-05  48247.35859  52.81814   6.96116  15.85877     48276.66 
    15.13647   1.4507   3.73834       1.86807          2666.5253   0.1589  0.27683     0.48363   0.64596     19.81809   4891.07413   -35.46721  0.32351  12427.22529  0.03654  48263.83279  52.39702   4.30291  14.63036  48253.08667 
    14.86015  1.90066    23.006       0.39713         5733.51595  0.12414  0.31541     0.01856    3.4674      19.8888   4785.88332   -35.32838  0.92888   6452.64238  0.04301  48263.97162  52.10591   6.37842  17.57981  48291.39333 
    14.86731  1.91099   5.81767       2.34176         4335.71835  0.09556  0.06675     0.06951   2.61514     16.47394   6499.30112    -42.1207  1.12742  11752.11033    2e-05   48257.1793  52.59074   4.52001  16.07535  48279.60667 
    14.40944  1.70228  13.75583       3.82727         5069.18091  0.02064  0.31426     0.26216   0.50575     20.86183   5701.00232   -46.08312  1.30983    5404.0168  0.40416  48253.21688  51.61289   0.48584  15.56337  48270.76667 
    15.13096  1.77147   3.32522       3.73125         3535.53161  0.06477  0.02358     0.04361   4.90177     16.48229   4568.39429   -27.84663  1.41461   9954.54336    2e-05  48271.45337  52.52286   3.65213  15.01036     48276.66 
    15.10298  1.62225   3.99689       0.84718         3682.46092  0.00397   0.0425     0.20321   2.75929     18.32869   4375.29438   -39.22156  0.38183   9586.80423  0.00118  48260.07844  52.42093   0.19083  15.18994  48273.71333 
     14.1618  1.69041  11.97268       0.42933         5891.02085  0.00377   0.2578     0.16118   1.80362     19.38376   7002.95787   -70.95001  1.34493   6937.26885  0.01344  48228.34999  52.08052   0.15803  15.21835  48273.71333 
     15.0748  1.67708   2.99516       3.30821         4600.91213  0.15729  0.03771     0.04503   2.21353     16.48793   5357.04907   -35.48135  0.79866   7099.97242    2e-05  48263.81865   52.1303   7.06078  15.25282  48270.76667 
    15.04194  1.65923   5.32929        4.2388         2605.30162  0.07642  0.05547     0.06601   4.16177     19.00139   4728.60519   -29.41955  0.95939  15151.79596  0.00557  48269.88045  52.86913   4.12832  16.28368  48279.60667 
      15.035  1.98973    1.9741       0.14312         4176.35943   0.0399  0.01351     0.02244   9.29668     17.46464   4420.14638   -35.70583  1.54248    9563.8383  0.00016  48263.59417   52.5541   2.61902   16.5248  48270.76667 
    15.00999  1.43121   0.77078       4.10752         3887.41621  0.04072  0.01382     0.03259   5.76489     18.17318   4964.97016   -28.98369  0.89471   7822.10961  0.00083  48270.31631  52.33117   2.39185  17.44496  48279.60667 
    15.05035  1.79753  11.00361       1.18251         2279.54416  0.03507  0.02465     0.04924   6.65525     18.90817   4041.18029    -37.7399  0.55399  11300.98565   0.0045   48261.5601  52.66584   2.13288  15.57481  48279.60667 
    15.15173  1.59639   4.86746       3.15217         3356.96262  0.21425  0.08985     0.05564   2.38414     18.70088    4474.2234   -29.37058  0.91558  14662.59586  0.00279  48269.92942  52.77048   9.84782  16.53078      48285.5 
    15.00606  2.06189   5.49791       0.40729         5756.18587   0.0968  0.04983     0.09427   2.09309     18.41227   4546.17523   -36.75874  0.97499   8796.17575  0.00144  48262.54126  52.30848   4.26725  16.57379  48256.03333 
    14.84534  1.65655   7.80518       3.75426         4393.97393  0.04681  0.04292     0.05602   2.62642     17.84627   4889.29582   -31.47211  1.41107  10364.84599  0.00039  48267.82789  52.48221   2.21697  14.60376  48273.71333 
    14.86237   2.1106   3.24211       4.98391         4104.72726   0.0275  0.07045     0.10311   1.96534     20.11591   4554.31106   -38.46988   1.5687  10658.10505  0.07255  48260.83012  52.46618   1.18704  16.59573     48276.66 
    15.00393  1.91537   4.50342       0.32322         2815.71035  0.02997  0.09812     0.40697   1.85411     18.53104   4451.96389   -30.13918  0.99969  13348.21429  0.00189  48269.16082  52.65311   1.26868  16.24449  48279.60667 
    15.00042  1.54424   7.03223       2.79222         3464.42111  0.06937  0.02388      0.0305   5.27131     16.41591   5017.44314   -33.52111  0.94066   9981.94541    1e-05  48265.77889  52.53327   3.98475  16.28331  48282.55333 
    14.85704  1.69316   9.37307        0.8129         5592.54057  0.15751  0.33474     0.05553   3.18251     16.68624   5030.66766   -48.81967   1.0223   7515.43149    3e-05  48250.48033  52.22774   7.89784  16.02697  48279.60667 
    14.82845  1.86749   8.76922       0.38236         2719.41324  0.02887  0.06821     0.25263   2.85863     20.82589   4621.85632   -29.65041  1.31465  13881.80901  0.37206  48269.64959  52.74707    1.4028  16.11359  48270.76667 
    15.10716  1.87468   5.07385       2.98323         4201.98117  0.13086  0.05115     0.09505    2.8288     18.04724   4726.36077   -32.84275  1.12326   9632.38924  0.00062  48266.45725  52.42828   6.33883  15.37889  48279.60667 
    14.83929  2.11739  22.62715       1.96607         4281.82025  0.17365  0.33041     0.07503   4.05923     20.59401   4576.71336   -46.59415  1.31487   8449.75916  0.21814  48252.70585  52.35898   9.31825  15.47809  48270.76667 
    14.78424  1.73689   6.29747       3.05702         2512.80211  0.04833  0.11493     0.25708   2.26719        18.79   4297.89319   -34.27781  1.52515  15263.21175  0.00343  48265.02219  52.79842   2.18648  17.49813  48288.44667 
    15.12211  1.78716   1.14531       3.27701         3896.80642  0.43061  0.06551     0.03057   1.75633     17.61651    3292.8653   -42.90296  0.91449   8570.96669  0.00023  48256.39704  52.26021   17.8898  16.27841  48279.60667 
    14.43863  1.99085  11.68367       1.41543         3974.72146  0.00226  0.21237     0.02292  10.59124     16.21288   3651.22389   -92.14391   1.1544    4839.6554    1e-05  48207.15609  51.97476   0.15266  15.30276     48276.66 
    14.81404  1.89766    0.7484       2.38856         3900.77086  0.10016   0.0883     0.20872   1.60028     18.87622     4445.001   -43.29125  1.19537   9743.76448  0.00418  48256.00875   52.3573   4.02651   16.0428     48276.66 
    14.89635  2.00699   8.17584       0.66498         4811.03809  0.17125   0.3389      0.0182   4.23307     21.09919   5351.42734   -54.47867  1.11131   4943.77974   0.6981  48244.82133  51.89829    9.2932  15.35387  48273.71333 
    14.95263  1.98751   7.06202        2.5125         4512.36074  0.38113  0.15071     0.19133   0.97356     17.22086   4397.91843   -40.34265  1.41591  10278.73559    9e-05  48258.95735  52.31818  12.58208  17.47125  48288.44667 
    14.92228  2.01201   3.99802       3.71051         3529.27194   0.1194  0.06436     0.13956   2.88229     20.51846   4319.94648   -38.41829  1.52149  11429.96374  0.18331  48260.88171  52.57933   5.81577  15.15408     48276.66 
    14.93533  2.16216  16.28606       0.81765         4465.59179  0.44907  0.29754     0.44131    0.7963     16.40758   3601.06778   -42.95604  1.09515   12818.4061    1e-05  48256.34396  52.46995  13.51973  15.14897  48264.87333 
    15.11394  1.72665   1.03502       1.12026          4402.5764  0.07904  0.03206     0.06894   4.18012     18.20043   5331.89984   -31.86217  0.83287   9381.19437  0.00088  48267.43783  52.45323   4.27473  15.14561  48270.76667 
    15.16814  1.38178  16.40228        1.5131         3571.93312  0.03298  0.02075     0.03348   8.44377     16.51801   3574.85121   -34.22238  0.26563  11328.59855    2e-05  48265.07762  52.69188   2.11935  15.55469  48279.60667 
    14.40161  1.69487   13.4385       3.93704         4509.64996   0.0025  0.28099     0.03319     4.169     16.88061   5331.87666    -69.6158  0.63945   5441.49715    4e-05   48229.6842  51.97984   0.13502  16.62038  48264.87333 
    14.95951   1.6386   5.76688       1.24053         3706.00597  0.00193  0.25001     0.49691   0.93375     20.01572   5471.04458   -51.36977  0.34448  10572.98117   0.0576  48247.93023  52.33468   0.06261  17.14424  48282.55333 
    14.81667   1.7453   1.68203       3.80449         4137.81326  0.06281  0.04865     0.11136   2.41461     17.66047    4470.0716   -40.37729  1.11923   9367.04992  0.00025  48258.92271  52.38299   2.89883  15.76042  48279.60667 
    14.47237  2.07591  18.07171       0.38961         5985.24997  0.01877   0.2371     0.07089    3.3388     20.26471   5692.00953   -47.85109  1.53622   6641.28505   0.1022  48251.44891   52.1263   0.95426  15.94819  48279.60667 
    14.91887  1.67571   5.02906       3.90071         2833.06986  0.21074  0.10251     0.23594   1.53977      16.0571   4273.53094   -34.96607  1.34591  10140.97143    1e-05  48264.33393  52.38594   8.35416  17.42419  48288.44667 
    15.06501  1.72595   6.27608       2.62196         2786.08591  0.23087  0.17039     0.24619   1.59511     18.85176   4797.26337   -29.42098  1.19267  16656.77426  0.00395  48269.87902  52.82253   9.27002  16.05074  48282.55333 
