 log(Bfield)      Mns    Pspin  cutoff_power  cutoff_wavelength  fnickel    kappa  kappagamma   mejecta  log(nhhost)  temperature  texplosion  thetaPB     vejecta      A_V        MJD_0   log(KE)     M_Ni  Peak_mag     Peak_MJD 
    13.98929  1.50706  2.67556       3.36878         2906.87498  0.00329  0.01032     0.35431  37.17233     21.34619   7334.65745   -30.27326  0.86521  2092.15139  1.23288  58758.24247  51.34974  0.28205   19.4687  58811.11267 
    14.20228  1.74661  2.60023       4.43358         2852.10752  0.02593  0.01201     0.01703  37.99405     21.33557   9472.16428   -28.25048  0.87443  1976.60415   1.2031  58760.26524  51.30199  2.23014  19.44837  58811.11267 
    14.08074  1.54806  2.90854       2.28311         3049.42727  0.00274  0.01618      0.3631  29.41978     21.24441    5783.7009   -32.48799  0.92805    2136.317   0.9753  58756.02774  51.35039  0.22557  19.53026   58814.5831 
    14.08472  1.54543  3.75487       4.41974         3079.42381  0.00654  0.01428     0.02967  22.82839     21.27304   6338.75255   -31.22337  0.75049  2118.40136  1.04175  58757.29235  51.32327  0.51446  19.50812  58807.97298 
     14.0129   1.5697  5.18745        4.6863         3443.90114  0.00148   0.0371     0.06481   6.61202     21.16436   8956.34982   -27.23928  0.93107  2307.21176  0.81112  58761.27644  51.28511   0.0901  19.53171  58811.11267 
    14.09101  1.95298   5.1598       3.78709         3443.47915  0.00175   0.0118     0.39255   30.1683     21.23331   4326.18333   -29.03089  1.50577  2180.69336  0.95069  58759.48484  51.37016  0.14431  19.53737  58804.47883 
    14.03032  1.80253  4.22053       3.76388         3240.98567  0.00377   0.0134      0.1159  23.65907     21.26501   9233.55606   -29.46068  1.44784  2073.55758  1.02269  58759.05505  51.30753  0.29864  19.51041  58811.11267 
    14.08256  1.92361  5.86067       3.80954         3472.60613  0.00302  0.01806     0.08496  15.44602      21.1879   9626.38537    -28.2691  1.17122  2711.33692   0.8563  58760.24663  51.50524  0.22041  19.40143  58807.97298 
    14.03849  1.59464  2.90296       4.78325         3109.24986  0.01209  0.01388     0.26382  32.07628     21.37235   4363.87019   -31.54308   0.9143  1977.72381  1.30942  58756.97265  51.28994  1.01013  19.47467  58814.25236 
    14.05613  1.37769  3.28347       4.80628         3451.44792  0.03511  0.01106     0.01409  32.49598     21.37385   3324.24352   -31.49763  0.65315  1963.05833  1.31395   58757.0181  51.28445  2.94061  19.52877  58811.11267 
    14.41404  1.47658  3.03659       4.59885         3230.73326  0.02909  0.01179     0.02353  49.12586     21.24143   6298.11522   -38.10604  0.46754  1881.77762  0.96863  58750.40969  51.27766  2.61009  19.58445  58811.11267 
    14.11137  1.70381  3.89547       3.58092         3314.33044  0.08865  0.02673     0.02276  17.70145     21.28675   4336.08553   -28.34556  1.56326    2475.093  1.07518  58760.17017  51.43763   6.6452  19.49837  58814.25236 
    13.89988  1.55328  2.41455       4.23358         2858.05672  0.00458   0.0101     0.01415  42.40333     21.39908   5534.79295   -30.11499  1.35475  1970.43819  1.39253  58758.40074  51.30722  0.40121   19.4926  58811.11267 
    13.94998  1.56836  3.59775       2.76883         3672.38114  0.00588  0.01453     0.03969  28.20415     21.31634   5519.61465   -26.70753  1.55758  2281.92445  1.15097   58761.8082  51.40443  0.48059   19.5393  58814.25236 
    14.12557  1.74635  2.87777        1.7809         3721.00219  0.01781  0.01799      0.0371  29.95172     21.28305   5943.07284   -37.89021  1.10351   1997.0767  1.06606  58750.62552  51.29321  1.47011  19.50908  58814.25236 
    14.10944  1.48921  2.64281       2.75916         3543.75823  0.00421  0.01116     0.31909  50.79513     21.30725   6809.74692   -38.02342  0.79834  1852.11321  1.12715  58750.49231  51.26619  0.38021  19.46241  58814.25236 
    14.22214  1.52109  4.12447       2.29409         3505.06344  0.00183   0.0195     0.49114  23.23688     21.14426    6239.3768   -40.12717  0.55041  2291.43297  0.77443  58748.38856  51.39288   0.1441  19.39889  58814.25236 
    14.08092  1.59147   2.9348       4.16176         2961.61145  0.00388   0.0104     0.45478   39.8334     21.37216    4308.3175    -29.5174  0.73792  2077.24791  1.30883  58758.99833  51.34856   0.3367  19.51301  58811.11267 
    13.94696  1.75337  4.50589       4.97405         3513.95762  0.00138  0.11722     0.01076   1.31351     21.35156   8366.54864   -22.80314  0.86336  2061.64443  1.24822  58765.71259  50.97627  0.05148  19.52201  58811.11267 
    13.74583  1.73549  3.54604        4.9288         3299.96747   0.0016  0.17922     0.01412   0.55824     21.44143   8989.37617   -22.07005  1.06677   1763.5965  1.53518  58766.44568  50.66583  0.03995  19.46925  58811.11267 
    14.17379   1.9644  4.34782       2.53692         3351.28998  0.02105  0.01622     0.34793  29.68562     21.19666   6108.86939    -37.2566  1.36645  2131.30865  0.87375  58751.25913  51.34904  1.73515  19.51644  58811.11267 
    14.12853  1.98895  3.79652       4.68151         3401.20482  0.01447  0.01691     0.16375  33.00858     21.30822   6377.41584   -42.37911  1.51602  1762.16017  1.12966  58746.13662  51.19184  1.21529  19.47939  58814.25236 
    14.26779   1.6559  2.07701       4.94407         2768.16399  0.04899  0.01907     0.09395  34.70853     21.24119   9061.54037   -27.71082  1.23938  2204.65863  0.96808  58760.80491  51.39018  4.14913  19.50453  58811.11267 
    14.27399  1.81926  2.08979       4.69592         3522.81794  0.07594  0.01044     0.01472   43.6392     21.41885   9101.47291   -21.25044  1.53087  1770.95487  1.45739  58767.26529  51.21656   6.6831  19.48851  58811.11267 
    14.01131  1.56233  2.78457       2.39126         3537.66364  0.02718  0.01412     0.04465   40.7458     21.32263   5535.85846   -37.81612  1.29039  2141.08335  1.16777  58750.69961  51.37649   2.3654  19.51754  58814.25236 
    14.20996   1.5475  1.98875        3.9669         2399.59598  0.00206  0.01609     0.07111  42.87533     21.20921   6016.29965   -40.48571  0.75722   1965.6197  0.89938  58748.03002  51.30589  0.18078  19.49776   58816.5284 
    14.08494  1.95084  3.04655       3.49849         3251.50832  0.00318  0.01044     0.45013  52.96966     21.35157   8595.34606   -40.47683  1.33016  1906.40618  1.24824   58748.0389  51.29419  0.28878  19.43759  58811.11267 
    14.07953  1.44926  3.23648       4.85761          3455.3427  0.00123  0.01265     0.35687  34.96856     21.33686   4935.92738   -44.88226  0.58685  1705.17755  1.20665  58743.63347  51.16759  0.10394  19.47346  58814.25236 
    14.23514  1.45307  3.24987       3.67014         3570.31875  0.00283  0.01687     0.33228  40.69935     21.17937   4980.28543   -59.59763  0.51661  1716.11492  0.83965  58728.91809  51.18424  0.24597  19.50972  58811.11267 
    14.06212  1.45945  1.85285       3.41962         3382.07266  0.04524  0.01115      0.0796   45.6981     21.37402   4421.60606   -29.91895  1.27552  1811.54624  1.31446  58758.59678  51.23953  4.01147  19.50874  58807.97298 
    14.08881  1.82015  2.51831       3.73137         3350.56999  0.00295  0.01005     0.03691  54.79292     21.38406   6793.88802   -32.29954  1.46044  1770.04565  1.34521  58756.21619  51.23206  0.26958  19.58528  58811.11267 
    14.01763  1.81233  3.37598       4.48586         2898.52525  0.00128  0.01227     0.01108  30.41637     21.34319   4044.02895    -27.3358   1.4199  2079.69372   1.2244  58761.17993  51.32959  0.10591  19.50544   58814.5831 
    14.10172  1.89804  3.41817       4.61373         3250.62841  0.00199  0.01852     0.03696  31.38895     21.32193    8353.8314   -37.92365  1.40761  1850.16786  1.16588  58750.59208   51.2304  0.16594  19.47938  58814.50809 
    14.07804  1.70631  2.68384        3.9816         2738.37825  0.00357   0.0106     0.02218  51.32317     21.32031   3557.51913   -34.53275  1.06924  2107.13142  1.16155  58753.98298  51.37896  0.32295  19.50192  58807.97298 
    14.23634  1.65173  1.03954       1.19559         3739.49679  0.04214  0.01015     0.25478  53.91519     21.30341   8404.35018   -24.85881  1.55872  2354.13484  1.11722  58763.65692  51.47865  3.83727  19.49228  58814.25236 
    14.32803  1.74505  1.64672       3.72939         3174.33077  0.11005  0.01243     0.05245  34.44473     21.39031   9886.99622    -16.0051  1.11001   2064.0072  1.36471  58772.51063  51.33235  9.30897   19.4668  58807.97298 
    14.23325  1.71454   6.3736       4.76381         3642.90524  0.00282  0.01821     0.39636  25.70554     20.94129   4296.44462   -36.78988   0.7315  2344.87836   0.4853  58751.72585  51.42087  0.22642  19.44355  58814.25236 
    14.39871   2.0675  5.51483       4.66491         3643.29712  0.08188  0.01947     0.01555  21.70414     21.20359   4594.56103   -21.51833  1.47243  2172.71411  0.88781   58766.9974  51.34121  6.37927  19.44216  58811.11267 
    14.06402  1.81849  4.05913       3.91972         3475.17735  0.01426  0.24553     0.02014    0.6791     21.38963    8673.9157   -25.48694  0.58244  2048.32465  1.36256  58763.02879  50.84252  0.39647   19.5296  58814.25236 
    13.98419  1.84725   3.3044       4.06063         3037.85556  0.00215  0.15086     0.01195   1.76034     21.40502   4773.30807   -24.75866  1.10952  1850.33213  1.41172  58763.75707  50.92899  0.08948  19.50704  58814.25236 
    14.17548  1.69274  4.03295       1.90365         3842.76861  0.01705  0.01388     0.03761  28.91394     21.22221   7526.30646   -30.67761  0.85582  2217.26312  0.92671  58757.83812  51.38137  1.39869  19.49994  58814.25236 
    14.09561  1.79781  4.63015       4.22761         3254.44108   0.0297  0.01935     0.09313  19.68602     21.24913   8137.41308   -25.49488  1.55163  2330.39353  0.98595  58763.02084  51.39412  2.27216  19.46734  58814.25236 
    14.27671  1.61978  3.61317       4.74982         3283.43186  0.00217  0.01105     0.02051  28.92172     21.36378   9962.29939   -27.34455  0.44436  2007.17646  1.28384  58761.17118  51.29492  0.17778  19.41703  58807.97298 
    14.18794  1.46253   3.0269       4.85528         3504.79183  0.00173  0.01443     0.47129   36.9297     21.33003   5068.00218     -35.842  0.58821  1776.94232  1.18785  58752.67373  51.20742  0.14785   19.5624   58814.5831 
    14.07656  1.87741  4.15939       4.40513         3415.08796  0.00267  0.21596     0.01806   0.59879     21.39286   4118.33378   -17.88068  0.63277  2090.00874  1.37273  58770.63505  50.83062  0.06948  19.47539   58800.5157 
    14.33552  1.73934  4.19477       4.48246         3516.02493  0.00156  0.11101      0.0106   1.12204     21.36325   6447.03365   -24.95487   0.2644  2062.61527  1.28227  58763.56086  50.94934  0.05456  19.49999  58811.11267 
    14.10062  1.90647  3.78558       1.72524         3918.63071  0.00799   0.0126      0.2284  34.39941     21.26523   8801.20308    -39.4704  1.25852  1993.10432   1.0232  58749.04533  51.30189  0.67583  19.46376  58811.11267 
    14.16014  1.73302  5.53649       3.83249          3615.6024   0.0096  0.02369     0.02315  21.99033     21.02344   7561.71333   -39.97659   1.0402  2182.42477  0.58637  58748.53914  51.34614  0.74988  19.53448  58811.11267 
    14.31285   1.6811  2.25883       4.50355         3552.66471  0.03715  0.01029     0.02819  53.68689     21.39748   5340.26356   -33.01571  0.70854  1679.93634  1.38743  58755.50002  51.18528  3.38055  19.53189   58814.5831 
    14.23948  1.77669  3.80251       3.63919         3283.56875  0.00838  0.01244     0.01374  41.22915     21.24184   8444.64843   -39.28832  0.75585  1927.72967  0.96953   58749.2274  51.28617  0.73088  19.52441  58811.11267 
    13.88569  1.78833  3.76932       4.55128         3306.44596  0.00256  0.17085     0.01706   0.82029     21.42212   9002.53038   -25.86528  0.86322  2030.19177  1.46841  58762.65045   50.8755  0.07819  19.51808   58814.5831 
    13.98852      1.9  4.06707       2.86868         3817.35247   0.0017  0.03331     0.04018   8.37372     21.35728   9335.58813   -32.30203  1.41933  1880.42442  1.26475   58756.2137  51.13122  0.10891   19.4067  58811.11267 
    13.97288  1.57657  3.45349       2.67298         3068.06253  0.00643  0.01862     0.20517  21.36075     21.23056   4889.27347   -32.01426  1.55944  2188.39842  0.94468  58756.50147  51.34617  0.49916  19.38915  58814.25236 
    14.11044   1.7473   1.8816       4.96756         3225.98127  0.01325  0.01061      0.0312  58.54988     21.39179   8947.34792   -39.62184  1.33355  1522.43754  1.36935  58748.89389  51.10571  1.22267  19.46146  58811.11267 
    13.96249  1.25406  4.70825       4.86965           3732.776  0.02693  0.01134     0.01109  40.25724     21.08395   6705.85711   -37.93352  1.35258  1970.40554  0.67403  58750.58221  51.30346  2.33883  19.51736  58804.83329 
    14.08191  1.72153  3.27644       3.00209         3204.74589  0.00471  0.01261     0.06582  31.52857     21.32428   7525.36026     -27.255  1.02392  2038.44742  1.17222  58761.26073  51.31491  0.39225  19.44186  58814.25236 
    14.11442  1.80684  4.68463       4.63012         3643.66663  0.00753  0.16051     0.01786   0.81382     21.36355   3363.17099   -22.87906  0.52839   2107.1223  1.28316  58765.63667  50.90617  0.22908  19.46541  58814.25236 
    14.06929  1.70725  3.59445       4.40764         3282.16177    0.001  0.10713     0.01379   3.89758     21.32973   3475.41867   -28.20373  0.96065   2128.5975  1.18701    58760.312  51.15669  0.05312  19.50495  58807.97298 
    14.12759  1.68554  5.57082       1.68322         3586.47693  0.00101  0.04545     0.01068   5.39779     21.01971   7382.02297   -24.91236  0.90204  2836.28529  0.58135  58763.60337  51.44293  0.05834   19.5434  58811.11267 
    14.07408   1.7446   3.1215       4.28803         3498.49138  0.00442  0.01765     0.31746  35.59383     21.32884   9545.42092   -37.79757  1.39598  1864.89447   1.1846  58750.71816  51.24667  0.37582   19.5196  58807.97298 
    13.91536  1.45229  3.51395       4.45516         2759.70766  0.00406  0.01577     0.38718   17.8082      21.2632   3762.37504   -20.72906  1.17281  2685.41084  1.01841  58767.78667  51.50897   0.3044  19.57949  58807.97298 
    14.10885  1.72963  3.78724       4.00184         3558.64717  0.00836  0.01285     0.21022  33.57184     21.30955   4850.57496   -36.66117   0.9376  1750.55448  1.13313  58751.85456  51.18737  0.70402  19.46228  58814.25236 
    14.08709  1.70407  2.03956       1.93606         2165.14551  0.00891  0.01306     0.02119  37.71062     21.21438    5625.0762   -42.88385  1.13018  2107.54106  0.91013  58745.63188  51.35715  0.76545  19.49598  58814.25236 
    14.29157  1.60733  2.77223       3.73192          3227.0468  0.03242  0.01012     0.02831   44.0716     21.35477   5009.80449   -30.42963  0.56479  1896.48413  1.25747   58758.0861  51.27675  2.85778  19.47764  58811.11267 
    14.15334  1.78515   3.4633       3.82785         2723.89381  0.00216  0.01246       0.341  35.51578     21.30167   5389.48502   -28.49713  0.81503  2535.67371  1.11275   58760.0186  51.51338  0.18356  19.50615  58811.11267 
    13.94291  1.32352  2.58601        4.0703         3032.93963  0.02021  0.02074     0.05767  31.11921     21.23887   9829.28808   -44.92858  1.20763  1997.31577  0.96293  58743.58715  51.29621   1.6801  19.46656  58807.97298 
    14.27637  1.67202  1.87457       4.45927         3407.71368  0.08369  0.01103     0.01133  37.00556     21.40954   9783.53342   -14.95897  1.10311  1843.35081  1.42648  58773.55676  51.23944  7.16603  19.45366  58811.11267 
    14.13821   1.9263  3.70324       3.13191         3300.64668  0.01892   0.0106     0.03112  32.77629      21.3178   3460.88371     -29.197  1.16935  1912.42631  1.15485  58759.31873  51.26239  1.58712  19.48042  58804.53125 
    13.94379  1.30908  3.29992       4.92154         3456.29992  0.00563  0.01315     0.02158  46.03961     21.19303   4009.17492   -42.40716  1.25239  1747.64494  0.86648  58746.10857  51.20886  0.49949  19.51539  58807.97298 
    14.01475  1.64166  3.29982       2.95431         3283.53887  0.00135  0.01089     0.07883  40.24866     21.26818   6322.55935   -37.03042  1.17934  1807.06297  1.03016  58751.48531  51.22828  0.11712  19.41555  58811.11267 
    14.03374  1.57776   3.1028       3.45722         2932.43996  0.00237   0.0122     0.11872  32.26945     21.25204   4073.72289   -33.98212  1.02525  1869.99099  0.99258  58754.53361  51.24173  0.19802  19.45528  58814.25236 
     14.1544  1.38666  3.11402       3.95756         3461.44766   0.0011  0.29556     0.02937   0.39491     21.42293   4741.24199   -24.48138  0.25522  2065.68111  1.47115  58764.03435  50.70599  0.02202  19.51818  58814.50809 
    14.23153  1.58808  1.95579       3.33944         3571.31406   0.0335  0.01388     0.03737  41.23345     21.27439   8483.13177   -27.10943  1.30862  1808.35908  1.04499   58761.4063  51.23065  2.92114  19.53419  58811.11267 
     14.0321   1.5924   3.0581       4.86066         3332.45877  0.02206  0.01813     0.31737  31.65207     21.30322   7889.23269   -40.14386  1.39227   1798.1918  1.11673  58748.37187  51.20627  1.83931  19.49734  58811.11267 
    14.15228  1.73794  3.12386       4.43623         3305.88608  0.01987  0.01764     0.25528  33.03017     21.34052    4283.6268    -29.8499    1.028   2161.5268  1.21689  58758.66583  51.36932  1.66826  19.50065  58814.25236 
    14.23073  1.95971  2.35808       4.50211         2547.50947  0.07645  0.01298     0.28878  32.56724     21.34729   8171.87095   -22.28651  1.41816  2201.14039  1.23601  58766.22921  51.38404  6.40426  19.52078  58807.97298 
    14.05092  1.62104  2.04879       3.61783         3510.99205  0.00815  0.01377     0.06419  46.94665     21.37127   5187.85123   -38.99427  1.56805  1703.82948  1.30616  58749.52146  51.18818  0.72565  19.52536  58811.11267 
     14.2051  1.52462  2.16911       4.18535         3174.60754  0.08053  0.01284     0.31346  36.66564     21.37562    5181.5231   -24.51612  0.89353  2106.66071  1.31931  58763.99961  51.35473  6.88407  19.51821  58807.97298 
    14.02958  1.55746  2.78174        3.0724         3436.92822   0.0031  0.01045     0.35229  43.83038     21.35051   6144.35798   -34.89354  0.92741  1799.94596   1.2452  58753.62219  51.23098   0.2729  19.58568  58811.11267 
    14.11734  1.62289  4.80564       4.74864         3196.01021  0.01958  0.01794     0.02882  18.82874     21.18206   6189.03791   -26.90854  0.90109  2344.71046  0.84487  58761.60719  51.39577  1.48485  19.50027  58811.11267 
    14.02749  1.67849   4.3761       4.55074         3609.67498  0.01544  0.01269     0.05869  32.20602     21.27595    9838.7693   -37.41625  1.16259  1876.53561  1.04876  58751.09948  51.24462  1.29098  19.52152  58811.11267 
    14.20718  1.85549  3.59611       3.85501         3268.80157  0.00978  0.01213     0.04765  36.46853     21.34484   8250.15212   -36.02731  0.71645  2036.07901  1.22905  58752.48842  51.32473  0.83501  19.57594  58811.11267 
    14.23591  1.81676  2.51587       3.73974         2581.72206  0.03658  0.01763     0.11198  29.64036     21.24792   7501.70586   -26.96243   1.2228   2302.8102  0.98321   58761.5533  51.41614  3.01435  19.48141  58807.97298 
    14.13067  1.75744  2.53476       3.89218         2435.57712  0.00229  0.01548     0.09195  29.97678     21.30981    6528.6367   -24.06751   1.0273  2350.78963  1.13381  58764.44822  51.43491  0.18909  19.49455  58807.97298 
    14.16185  1.51689  4.05654       4.84032         3572.61253  0.00116  0.08429     0.01007   4.11135     21.26717   3362.91543   -34.06813  0.57828  1865.62364  1.02777   58754.4476  51.04843  0.06224  19.47433  58798.55392 
    14.01058  1.67298  4.28694       3.41163         3754.44226  0.00159  0.01209     0.07231  29.39595      21.2597   6947.23794   -29.91614  1.41699  1910.47475  1.01024  58758.59959  51.25328   0.1308  19.50598  58807.97298 
    14.32339  1.88172  5.59755       4.55586          3572.3662  0.02436  0.01539     0.05077  38.77071     21.07034   9303.45598   -40.03106  0.96767  2190.17192  0.65324  58748.48467  51.39258  2.10202  19.52857  58811.11267 
    14.21246  1.88338  2.60533        4.6332         3166.31319  0.03805  0.01023      0.1658  51.03527     21.35156   4158.44474   -30.26229  1.51243  1881.58624   1.2482  58758.25344  51.28023  3.43497  19.49207  58814.25236 
    14.09711   1.5713  1.46208       2.84865         2819.63484  0.00806  0.01509     0.19949  42.59938     21.30281   6042.40422   -34.42187  1.25068   1827.7093  1.11568  58754.09386  51.24224  0.70616   19.5562  58811.11267 
    14.20036  1.68019  1.83036       4.96836         2432.74737  0.04382  0.01685     0.28048  32.52134     21.28562   9317.79812   -19.99992  1.46576  2422.05642  1.07237  58768.51581  51.46701  3.67017  19.53967  58811.11267 
    14.14584  1.79973  3.69846       3.54958         2986.36867  0.00155  0.01195     0.11357  31.37373     21.28986    3464.4807   -26.89517   0.8805  2259.91164  1.08289  58761.62056  51.40412  0.12883  19.49357   58816.5284 
    14.29437  1.67132  2.98235       3.32312         3662.42149  0.03209  0.01445     0.20381  38.07299      21.3049   7567.31494   -38.59123  0.70139  1806.60079  1.12106   58749.9245  51.22402  2.76047  19.42703  58811.11267 
    14.22242  1.92165  3.43067       3.07994         3521.76027  0.04494  0.01258     0.02749  35.14149     21.32103   8194.48033   -32.70782  1.12947  1832.15239  1.16347  58755.80791  51.23033   3.8143  19.50721  58814.25236 
    13.99902  1.46801  4.33328       3.59733         3287.50776  0.02454  0.01254      0.0971  36.32421     21.14862   9962.83137   -36.86899  1.34284  2299.19971  0.78225  58751.64673  51.43001  2.09463  19.42752  58811.11267 
     13.8373  1.61922  3.77092       4.62936         3456.64006  0.00102  0.14458     0.01102   0.76832     21.33938   3603.23673   -20.80725  0.56065  2422.84631  1.21369  58767.70848   51.0154  0.03014  19.49537  58811.11267 
    14.24829  1.73905     4.83       4.79922         3815.15896  0.01972  0.12525      0.0138   0.86059     21.31571   5414.87135   -26.18879  0.33498   1994.5583  1.14932  58762.32694  50.86988  0.61592  19.47581  58811.11267 
    14.17023  1.83657  4.51756       3.39867         3275.64427  0.02907  0.01368     0.12308  20.09527     21.28744   5875.98265    -24.8494   0.8521  2406.99209  1.07687  58763.66633   51.4239  2.23243  19.53954  58814.50809 
    14.14445  1.69954  2.90145       3.06715         2911.37212  0.00438  0.01193     0.01299  40.94908      21.3082   8809.16014   -28.56642  0.87579  2220.41792   1.1296  58759.94931  51.40845  0.38111  19.47302  58811.11267 
    14.26487  1.52532  0.96405       3.18874         3374.37347  0.05658  0.01111     0.08419  47.60444     21.37651   6445.12969     -24.894  1.00412  1799.13363  1.32202  58763.62173  51.23644  5.05109  19.47223  58811.11267 
    14.09133  1.47585  1.28243       4.57616         3469.57854  0.00808  0.01088       0.035  56.21748     21.41267   5911.13311   -25.39175  1.29281   1566.0602  1.43681  58763.12398  51.12747  0.74039  19.52088   58814.5831 
     14.2535  1.76289  2.32934       4.96452          2946.5105  0.00217  0.01173     0.27037  54.26603     21.29896   3419.17598   -46.58939  0.73529  1557.93218  1.10583  58741.92634  51.12053  0.19793  19.44951  58811.11267 
    14.00304  1.58139  2.95648        2.9009         3117.10651  0.03611  0.01049     0.04231  38.38942     21.32337   3629.24854   -30.09124  1.33841  2113.79382  1.16977  58758.42449  51.36103  3.11141  19.46436  58811.11267 
    14.12678  1.43107  2.20798       3.78179         2939.44288   0.0017  0.01238     0.13672  38.83955     21.37805   6989.38626   -26.89319  0.61142  2130.27532   1.3267  58761.62254  51.36862  0.14682  19.47355  58811.11267 
    14.06725  1.68849  3.34359       4.94814         2832.79242  0.02066  0.01211     0.16504  27.50728     21.32244    3840.6262   -25.25507   1.0246  2069.14247  1.16725  58763.26066  51.31748  1.68008  19.48461  58811.11267 
    14.09071  1.58356  2.88293       4.95855         3044.64717   0.0242   0.0123     0.16889  37.37248     21.33989   5177.85174   -29.55041  0.97685  1898.29878  1.21511  58758.96532  51.26567  2.07554  19.57174  58807.97298 
    14.11078   1.5721  4.22353       4.84024         3389.03484  0.03307  0.01225      0.0233  40.93787      21.2086   4019.18587   -38.58232  1.15864  1865.23607  0.89811  58749.93341  51.25703  2.87947   19.4952  58814.25236 
    14.26334  1.41453  1.82847       4.56317         2993.29574  0.09357  0.01679     0.14357   28.8627      21.3296   4558.77937   -17.95919  0.84898  2230.55996  1.18667  58770.55654  51.38642  7.67569   19.5044  58811.11267 
    14.16851  1.68888  3.40829       3.38292         3678.66757  0.00773  0.01576     0.04349  31.34487     21.31385   7371.58319   -38.92583   0.7731  1794.25526  1.14441   58749.5899  51.20364  0.64369  19.48715   58816.5284 
     13.9798  1.57099  2.46734       2.50019         3246.79383   0.0091  0.01094     0.02095   42.2088     21.35645   4926.49172   -29.99019  1.30348  2011.86511  1.26234  58758.52554  51.32496  0.79611  19.52055  58811.11267 
    14.05445  1.68334   4.5448       4.51973         3374.47293  0.00928  0.01452     0.07105  23.74048     21.25886   8868.53098   -29.84339  1.00333  2117.42264  1.00829  58758.67234  51.32599  0.73532  19.54284  58811.11267 
    14.07502  1.43938  2.54332       4.29927         3105.16553  0.06226  0.01067     0.17979  39.01582     21.35062   9312.95554   -20.62044  1.22246  2164.82203   1.2455  58767.89529  51.38293   5.3782  19.53388  58814.25236 
    14.08033  1.73377  4.23435       4.42053         3631.90023  0.01887  0.01193     0.15055  39.95464     21.25697   9634.56188   -38.41555  1.45074  1911.30751  1.00391  58750.10018  51.27647  1.63644  19.47605   58814.5831 
    14.18736  1.94049     3.29       4.86259         2762.34155  0.00304  0.01039     0.08036  33.39049     21.36685   7482.32106   -24.73679    0.789  2132.94062  1.29293  58763.77894  51.35857  0.25611  19.50482  58814.25236 
    13.89343  1.43351  4.06645       3.80218         3267.92805  0.00495  0.01705     0.20113  18.49742     21.20766   7904.77604   -29.39003  1.45893  2339.33758  0.89615   58759.1257   51.3923  0.37429  19.44647  58811.11267 
     14.1615  1.69448  1.95118       3.14918           3562.026  0.06099   0.0146     0.06686  39.26438     21.38337   4724.84112   -32.45128  1.43317  1900.74151  1.34307  58756.06445  51.27039  5.27402  19.46531  58814.25236 
     14.0463  1.82363  3.16913       2.36293         3121.44097  0.00409  0.01078     0.06237  46.21542     21.27678   5855.26103   -40.13101  1.49662  1980.19859  1.05076  58748.38471  51.31764  0.36331  19.52516  58811.11267 
     14.0165  1.57011  2.69032       4.80681         3105.55729   0.0012  0.01142     0.11677  44.46665      21.3077   9497.62491   -38.62349  1.17749  1616.85786   1.1283  58749.89224  51.13883  0.10554  19.38712  58814.25236 
     14.1706  1.85984  3.92307       1.59248         3034.29764  0.00131   0.0187     0.15311  33.39856     21.01576   8110.62888   -49.70123  1.32591  2004.28968  0.57608   58738.8145  51.30455  0.11047  19.51052  58811.11267 
    14.11922  1.82735  3.88757       3.69438         3411.94087  0.03268  0.01278     0.38914  29.00395     21.29327   6626.41111   -28.39622  1.36733  1888.77356  1.09143  58760.11951  51.24233  2.68289  19.52138  58807.97298 
    13.99122  1.53054  3.99851       4.40001         2920.36378  0.00334   0.0206     0.04561  20.30643     21.20946   8944.30015   -30.96064  1.07773  2527.88586  0.89989  58757.55509  51.46732   0.2568  19.50591  58811.11267 
    14.13494  1.40086  3.95597       2.89231         3328.46411  0.05396  0.01286     0.02215  30.29866     21.19905   8163.73788   -27.63432  0.87257  2559.66546  0.87858  58760.88141  51.50966  4.46397  19.49259   58814.5831 
    14.09225  1.67518  2.38209       4.02858         2611.50082  0.02203  0.01147     0.11987  40.46836     21.29733   4845.50762   -29.32849  1.28769  2034.22275  1.10168  58759.18723  51.33153  1.91502  19.52564  58804.83329 
    14.13423  1.73896  3.30345       1.63067          3384.5341   0.0753  0.01398      0.0354  24.79779     21.24517   9500.53826   -31.19326  1.33813  2336.70606  0.97701  58757.32247  51.41502  6.01156  19.45943   58814.5831 
    14.20159  1.44746  4.56369       3.08495         3801.24451  0.03733  0.01772     0.01076  22.07976      21.1456   5845.40894   -33.25482  0.66689  2156.19993  0.77683  58755.26091  51.33596  2.91774  19.48974  58811.11267 
    14.34436  1.98593  1.44694       4.46462          2703.6979  0.05455  0.01607     0.02311  42.02065     21.31839   7512.37041   -29.90298  1.53372  2367.71526  1.15644  58758.61275   51.4661  4.77128  19.56894  58811.11267 
    14.24206  1.89196  1.88186       4.58706         3161.46068  0.03626  0.01255     0.29972  46.81728     21.35595   8426.44702   -32.13902  1.56067  1720.43854   1.2609  58756.37671  51.19642  3.22798  19.53131  58811.11267 
    14.52498   1.8704   3.6861       3.96553           3597.016  0.00567  0.30144      0.0206   0.47017     21.45731   8233.08212     -26.216  0.17985   1784.1104  1.59236  58762.29973  50.63039  0.12759  19.49811  58811.11267 
     14.0386  1.88245  3.22041       4.36604         3499.85664  0.00112  0.04132     0.30464   5.06605     21.47286   7376.56167    -26.4961  0.83802  1310.22462   1.6504  58762.01963  50.76517  0.06361  19.42783  58807.97298 
    14.06976  1.71435  3.92181       2.32793         3595.30826  0.00181  0.01319     0.28107  32.80845     21.21458   8028.36209   -31.74297  1.36834  2065.30461  0.91055  58756.77276  51.32927  0.15164  19.51324  58811.11267 
    14.06638  1.89701  4.71128       4.59081         3547.37778  0.00115  0.03005     0.02179  12.95302     21.27798   8674.00191   -30.63682  1.51386  2048.70243  1.05367  58757.87891  51.24642  0.08111  19.44493   58814.5831 
     14.0708  1.88324  4.54734       4.94911         3023.82357  0.00157   0.0156     0.09531  27.16408     21.21471   6742.73741   -35.52557  1.54839  2043.38078  0.91083  58752.99015  51.30563  0.12723  19.49852   58816.5284 
    14.08652  1.86751  3.79384       4.28178         3309.47736  0.01411  0.01044      0.0641  35.50607     21.31983   6303.20662   -27.86152  1.56331  1906.56528  1.16026  58760.65421  51.26568  1.19932  19.46226  58811.11267 
    14.09775   1.5024  2.33772       2.82933         3340.34848  0.02934   0.0143     0.08706  33.55633     21.37001   6489.75529   -29.66869  0.81393  2098.79097  1.30238  58758.84704  51.34492  2.47109  19.52237  58811.11267 
    14.29344  1.81953  1.25171       4.92051         2476.50514   0.0563  0.01444     0.01007  36.43569     21.35272    5288.0068   -17.68074  1.17004   2152.6525  1.25155  58770.83499  51.37303  4.80833  19.48152  58814.50809 
    14.18602  2.08154  3.59651       3.29606         3435.59869  0.00121  0.01982      0.0375  27.96482     21.29954   5966.82732   -33.64401  1.45628   1940.3997   1.1073  58754.87172  51.26295  0.09906  19.49188  58814.25236 
    14.18188  1.74067  4.44276       3.70025         3314.42613  0.01685  0.01128     0.02013  41.32345     21.17665   6080.26254     -32.636    1.032   2163.9216   0.8344  58755.87973  51.38672  1.46974  19.50404   58814.5831 
    14.02944  1.46281  4.00728       4.61103         3331.37323  0.00415  0.15112     0.01541   0.99125     21.31729   9413.75862   -21.38475  0.57113  1976.04019  1.15351  58767.13097  50.88931    0.138  19.48562  58814.25236 
    13.82307  1.60292  2.81302        3.0159         3582.38079  0.00103   0.1064     0.01187   0.66347      21.4684   5646.06388   -21.55962  0.45133  2319.07548  1.63352   58766.9561  50.94506  0.02822  19.52017  58811.11267 
    14.06711  1.70235  3.46271       3.70572         3379.09215  0.00138  0.01011     0.01167  56.27283     21.29918   5446.28351    -33.9708  1.21533  2044.92289  1.10639  58754.54493  51.35928  0.12636  19.33678  58814.25236 
    13.96425  1.20926  4.44104       4.41764         3353.81213  0.00102  0.04868     0.02029  14.35401     20.74843   3456.04139   -66.16913  0.73528  2097.01433  0.31129   58722.3466  51.27572  0.07321  19.39485  58807.97298 
    14.01997  1.67548  6.13107       4.94276         3652.68973  0.00269  0.01085     0.09987  28.97539        21.05   7186.86237   -32.98526  1.51408  2129.88802  0.62335  58755.53047  51.34661  0.22049  19.50236  58811.11267 
    14.04907  1.41608  5.03658       4.19455         3184.49936  0.00174  0.01038     0.45483   43.4377     20.98607   4782.17272   -38.24046  0.75846  2811.24603  0.53802  58750.27527  51.61762  0.15331   19.4925  58811.11267 
    14.20764  1.85404  3.33128       3.78818         3413.36742  0.01087  0.01066     0.03918  52.34508     21.32456   4584.59321   -37.16126  0.91382  1885.97343  1.17296  58751.35447  51.28401   0.9852  19.51065  58807.97298 
    14.09979  1.59519  3.52738       2.97367         3301.15558  0.00166  0.01771     0.01228  23.70745      21.2852   3402.61588   -29.03275  0.84483  2196.59784  1.07133  58759.48298  51.35776  0.13114  19.53491  58811.11267 
    14.10122  1.74901  2.44552       4.60063         3458.78036  0.00608  0.01116     0.30535  47.18029     21.38486   5024.20272   -29.64683  1.43933  1561.01625  1.34767   58758.8689   51.1125  0.54227  19.42381  58807.97298 
    13.73213  1.11577   2.1716       3.80972          3364.7702  0.00496  0.01127     0.44564  41.23789     21.37722   7121.52138   -29.05695  1.50775  1898.78829   1.3242  58759.45878  51.27304  0.43229  19.44545  58811.11267 
    14.48317  1.82476  4.22371       4.07858         3593.54941   0.0176  0.23656     0.02356   0.36804     21.37678   8960.91802   -18.94162  0.17514  2112.10409  1.32285  58769.57411  50.70254  0.33346   19.5073  58811.11267 
    14.27446  1.92966  4.07244       4.18255         3376.24787  0.00219  0.27049     0.02449   0.77951     21.39187   9857.34379   -22.93145   0.4886  2057.75527   1.3696  58765.58428   50.8766  0.06519  19.52993  58804.83329 
    14.17186  1.69235   3.2525       3.96363         3615.25455  0.05732  0.01424     0.01004  28.87363      21.3731   3545.92757   -23.62302  1.01501  1929.32636  1.31169  58764.89271  51.26044  4.70242  19.53231   58814.5831 
    14.17936  1.74544  4.05552       2.73193         3512.16781  0.01168  0.01297     0.34842  36.33681     21.19752   6513.68618   -45.84947  0.83869  1738.86008  0.87547  58742.66626  51.18741  0.99662  19.57009  58807.97298 
