 texplosion  fnickel    Pspin  log(Bfield)      Mns  thetaPB  mejecta    kappa  kappagamma      vejecta  temperature    alpha  cutoff_wavelength  log(nhhost)      A_V         MJD0  kenergy  mnickel             TSD   log(L0)  Peak_mag     Peak_MJD  log(E_rad)  log(Peak_lum)  Rise_Time    E_fold  tau_1  delta_m15     r_peak     frac 
   -3.56505  0.00571  3.30937     13.60714  1.78863  1.04376  1.19226  0.27251     0.01724  11088.93001   5843.35161  1.18508         3020.11549     18.83843  0.00383  58700.71495  0.87454   0.0068  11105809.02295  44.43632  17.14417     58732.68    50.81894        44.2842   21.66561  26.13256   35.0    0.42691   -21.1854  0.99958 
   -3.57126  0.00154  2.93498     13.85395   1.6173  0.41266  2.01878  0.17612      0.0103  11875.86124   6249.78113   0.9264         2888.88827     17.10438    7e-05  58700.70874  1.69842   0.0031   2534660.33731  45.13851  17.12261  58732.33579    50.83507       44.31825   21.61136  24.48639   34.0    0.44171  -21.19899  0.99982 
   -3.53942  0.02536  3.20412     13.87886  1.72685  0.45375   2.0011  0.17596     0.01137  11926.03242   6074.46739  1.20208         2754.27591     18.13882  0.00076  58700.74058  1.69781  0.05074   2875864.00098  45.03591  17.14365     58732.68    50.82091       44.28977   21.66561  25.81608   34.0    0.44374  -21.20093  0.99692 
   -3.55541  0.29547  4.10054     14.08121  2.09731   0.4612   2.0221  0.17752     0.01214  11349.78691   5944.71838  1.49072         2785.66024     17.16216    8e-05  58700.72459  1.55383  0.59747    2252919.3624  45.01208  17.12805     58732.68    50.83769       44.30971   21.66561  25.81608   34.0    0.41802  -21.20316  0.95813 
   -3.44755  0.00956  3.55221      13.7349  1.91608  0.85874  1.03063  0.32746     0.02175  11553.30848   6065.77073  1.38907         2724.93702     17.68616  0.00027  58700.83245  0.82062  0.00985   7610699.37053  44.56884  17.12875     58732.68    50.81732        44.2861    22.6205  25.17767   34.5    0.43756  -21.19823  0.99937 
   -3.77768  0.01503    4.033     13.73939  1.98271  1.20199  2.11683  0.15642     0.01369  11651.25784   6019.77835  1.14949           2892.523     18.70413  0.00281  58700.50232  1.71419  0.03182   9943814.99666   44.3573  17.13172     58732.68    50.80466       44.26358    22.6205  25.94398   34.0    0.41974   -21.2046  0.99756 
   -3.47507   0.0244  3.17627     13.90277  1.51249  0.40233  2.06649  0.14506     0.01264  11508.06664      5853.64  1.05435         3078.84004     18.42377  0.00147  58700.80493  1.63254  0.05041   2217156.38951  45.09891  17.13301     58733.14    50.81414       44.27288    22.6205  25.94398   34.5    0.43734  -21.20634  0.99637 
   -3.47384  0.00152  3.03638     13.66896  1.51113  0.66775  2.44087  0.14744     0.01167  12652.31166   6033.11548  1.06495          2915.1812     18.58551  0.00214  58700.80616  2.33083   0.0037   5941716.72249  44.70952  17.11091     58733.14    50.81201       44.27787    22.6205  25.32196   33.0    0.45771  -21.24515  0.99975 
   -3.50545  0.01674  2.80832     13.48956  1.23168  0.97242  1.98982   0.1529     0.01447  11868.18144   6130.70894  0.90188         2978.80007      17.2378   0.0001  58700.77455   1.6719   0.0333   9464327.40398  44.48636  17.11223     58732.68    50.83343        44.3087   21.61136  25.29727   33.5     0.4449  -21.22255  0.99748 
   -3.38007  0.00508  2.65051     13.42703  1.34888  1.03723  1.78325  0.19057     0.01109  11181.86655   5994.89112  1.49764         2815.31804     16.75931    3e-05  58700.89993  1.33005  0.00906  12313758.09122  44.46177   17.1325     58733.14    50.81162       44.27428    22.6205  25.32196   34.5    0.41313  -21.19147  0.99946 
   -3.63103  0.15218  3.04285      13.5461  1.47395  0.98688  2.30685  0.13637      0.0103   11192.3261   5962.94017  1.17523         2971.13436     19.55461  0.01992  58700.64897   1.7238  0.35105  10248553.39574   44.4601  17.11983     58733.14    50.81592       44.28474    22.6205  25.17767   35.0    0.42357  -21.20833  0.97639 
   -3.73125  0.05917  3.58854     13.85618  1.91437  0.62901  2.01154  0.17452     0.01103  11393.61955    6005.4831  1.16024         2899.30651     17.46785  0.00016  58700.54875  1.55768  0.11903   4439385.67896  44.79371  17.12424     58732.68    50.80455       44.26761    22.6205  25.94398   34.5    0.43023  -21.19678  0.99236 
    -3.4094  0.01755  3.28553     13.70521  1.75068  0.74149  1.19889  0.28033     0.02036  12081.25152   6084.09323   0.8252         3112.72986     16.24787    1e-05   58700.8706  1.04383  0.02105   6820384.03025  44.64503  17.13773     58732.68    50.82056       44.28352   21.66561  26.27684   33.5    0.44079  -21.21549  0.99868 
   -3.72485  0.01126  3.29905     13.59792  1.78927  1.12357  1.47516  0.24268     0.01368  11148.60076   5964.64659  1.16804         3024.36501     18.40673  0.00142  58700.55515  1.09372  0.01661  11519504.68944  44.42331   17.1247     58732.68    50.83347       44.30682   21.64753   25.2611   34.5    0.42253  -21.18987  0.99899 
   -3.51186  0.01314  3.55314     13.63509  1.85988  1.16314  2.23534  0.14511     0.01045  11269.15886   5829.62568  1.18409         3023.43051     17.70329  0.00028  58700.76814  1.69338  0.02937  11704225.71831  44.36876  17.12445     58732.68    50.81634       44.28509   21.66561  25.81608   34.5    0.41823  -21.19736  0.99805 
   -3.53619  0.02428  3.82347     13.72353   1.9694  1.10671  2.29829  0.15271     0.01198  12156.85886   6091.09948  0.95303         2882.46309     17.69196  0.00027  58700.74381  2.02616  0.05581   9549995.67901  44.41826  17.13403     58732.68    50.81259       44.27524    22.6205  25.94398   33.0    0.43319  -21.22359  0.99611 
   -3.39777  0.06705  3.55756     13.60626  1.86037  1.38645  2.38123  0.13604      0.0109  12123.57238    6160.5154  0.87214         3030.06499     17.70197  0.00028  58700.88223  2.08781  0.15965  13403150.29715  44.30893  17.13642     58733.14    50.82535       44.29565   21.66561  25.81608   34.0    0.44775  -21.21667  0.98945 
    -3.3753  0.02943  3.61564     13.89946   1.8375  0.54078  1.98687  0.15274     0.01294   11613.9761   5898.87658   1.2581         2923.79366     19.20296  0.00887   58700.9047  1.59867  0.05848   3543950.84823  44.86721  17.13161     58733.14     50.8187       44.28178    22.6205  25.32196   34.5    0.42239   -21.2177  0.99593 
   -3.58453  0.01066  3.08994     13.66648  1.55884  0.71812  1.36601  0.25367      0.0196  12297.26185   6018.85815  0.66544         3151.62548     17.68831  0.00027  58700.69547  1.23224  0.01456   6420439.60482  44.67418  17.13505     58732.68    50.81128       44.27463   22.62329  25.94119   33.5    0.43045  -21.22281  0.99905 
   -3.48718  0.00795  2.88474      13.4817  1.63197  1.12979  1.43289  0.24463     0.01227  11122.61163     5967.443  1.19144          3120.9227     18.76365  0.00322  58700.79282  1.05743  0.01139  13719902.52107  44.42399  17.12805     58733.14     50.8158       44.28126    22.6205  25.32196   35.0    0.41962  -21.19435  0.99938 
   -3.33841  0.11158  3.16182     13.71871  1.73102  0.66776  1.81469  0.18163     0.01037  11034.82462   5947.01921  1.03047         3243.28075     16.93239    5e-05  58700.94159  1.31814  0.20248   5869058.64071   44.7387  17.12298     58733.14    50.82939       44.29552   21.66561  26.13256   34.5    0.43248  -21.19511  0.98816 
   -3.39426  0.05532  3.42568     13.76693  1.78602   0.6663  1.54532  0.20263     0.01388  10873.43463   5812.62634  1.66218         2892.25782     16.00276    1e-05  58700.88574  1.08988  0.08549   5693034.71001  44.69589   17.1423  58732.33579     50.8258        44.2975   21.66561  25.25361   35.5    0.42647  -21.18246  0.99437 
   -3.52842  0.00236  2.36668     13.59542  1.20544  0.47926  1.52974  0.22801     0.01252  11127.84097   5896.52853  1.15515          3176.6578     19.09637  0.00694  58700.75158  1.12997  0.00361   4040111.08868  44.99532  17.14335     58732.68    50.81403       44.27745    22.6205  25.32196   34.5    0.42909   -21.2039  0.99979 
   -3.41347  0.10797  2.96009     13.62434   1.4437  0.74788  1.08478  0.30368     0.01897  10841.34339    6071.4293  1.85118         2693.70774     18.34993  0.00124  58700.86653  0.76056  0.11712   6625603.14935  44.66449  17.13072     58733.14    50.81579       44.27572    22.6205  25.94398   34.5    0.43218  -21.17984  0.99221 
    -3.4873  0.00949  2.70259     13.63263  1.37931  0.58371  1.54076  0.22864     0.01342  11340.41143   6005.79936  1.13396          3119.9059     19.13431  0.00757   58700.7927  1.18201  0.01462   5078883.60709  44.83918  17.13627     58732.68    50.81605       44.28348    22.6205  25.17767   34.5    0.43142  -21.20491  0.99911 
   -3.49359  0.00268  3.21492      13.5826  1.57773  1.00596  1.61701  0.18937     0.01349  10774.03305   5889.62483  1.32628         3091.39075     17.05772    6e-05  58700.78641  1.11969  0.00434  10350950.08283  44.43756  17.12229     58733.14    50.81565       44.27741   22.62329  25.94119   35.0    0.42887  -21.18307   0.9997 
   -3.40487  0.00145  3.38018     13.92443  1.66784  0.43742  2.16217   0.1372      0.0117  11485.61724   5875.29759  1.06532         3123.30868     18.19742  0.00088  58700.87513  1.70148  0.00314   2506048.98141  45.03413  17.12877     58732.68    50.80633        44.2721    22.6205  25.32196   34.0    0.44573  -21.21184  0.99978 
    -3.6321  0.03721  3.02535     13.69855  1.54205   0.6285  1.70313  0.18888     0.01239  11037.65278   5761.49964   1.0356         3109.79036     17.47933  0.00017   58700.6479  1.23774  0.06337   5252365.90478  44.77504  17.13588     58732.68    50.81671       44.28568   21.66561  25.81608   35.0    0.42074  -21.18439  0.99596 
   -3.62455   0.0249  3.34259     13.76184   1.8275  0.67991  1.68876  0.20437      0.0134  11675.99959   5948.59985    1.176         2884.44748      19.3632  0.01282  58700.65545  1.37336  0.04205    5677583.8205  44.72837  17.13252     58733.14    50.81447        44.2734    22.6205  25.94398   34.5    0.43579  -21.21974  0.99745 
   -3.58997  0.00192  3.15756     13.67676  1.62834  0.72685  1.14583  0.29081     0.01982  11472.63554   6035.05124  1.27915          2839.1149      18.0367   0.0006  58700.69003  0.89965   0.0022   6679526.02994  44.65714  17.13919     58732.68    50.81421       44.28121   21.66561  25.81608   34.5    0.43346  -21.18509  0.99986 
   -3.54699  0.00163  3.11899     13.68799   1.6466  0.71969  1.76912  0.19651     0.01126  11087.20248    5951.5575  1.23184         2976.14068     17.92138  0.00046  58700.73301  1.29727  0.00287   6258255.67016  44.70095  17.11636     58733.14    50.81649       44.28324    22.6205  25.17767   34.5    0.42604  -21.18963  0.99982 
   -3.52612  0.00879  3.69003     13.69398  1.98992  1.01881   0.9941   0.3349     0.02437  11614.28836    5748.0552  1.89671          2593.3296     17.20327    9e-05  58700.75388  0.79991  0.00874  10297904.45461  44.42087  17.12597     58732.68     50.8281       44.29541   21.66561  26.13256   35.0    0.41013   -21.1895  0.99943 
   -3.41907  0.00179  3.15193     13.60577  1.60875  0.92743  1.79254   0.1859     0.01268  11133.98304   6105.45656  1.38592         2961.43424     19.89104  0.04323  58700.86093  1.32555   0.0032   9118432.74633  44.51826   17.1316     58732.68    50.83188        44.3089   21.61136  24.59458   35.0    0.41293  -21.22887  0.99979 
   -3.61193   0.0059  3.42277     13.62246  1.79138  1.08061  2.20345  0.15218     0.01084  11413.49016   5729.31793  1.37857         2803.34677     19.09928  0.00698  58700.66807  1.71225  0.01301   11087812.8727  44.40843  17.12953     58732.68    50.81612       44.28309    22.6205  25.32196   34.5    0.41446  -21.19751  0.99915 
   -3.41935  0.02316  3.12734     13.74813  1.64403    0.612  1.27401   0.2607     0.01592  11211.02206   5886.74991  0.99489          3177.7597      16.1225    1e-05  58700.86065  0.95519   0.0295   4762231.70675  44.81659  17.13209     58733.14    50.82119       44.28464   21.66561  26.27684   34.0     0.4358  -21.19963  0.99817 
   -3.34053  0.00995  3.59786     13.87752  1.97316  0.57265  1.97747  0.15545     0.01226  11888.83583   6183.38742  1.01024         2889.31255     19.11924  0.00731  58700.93947   1.6673  0.01968   4168933.37753  44.83189  17.11643     58732.68    50.80752       44.27443    22.6205  25.30427   34.5    0.44174  -21.20975  0.99876 
   -3.41177  0.00476  2.64862     13.43336  1.33936  0.97477  1.68651  0.19977     0.01343  11814.97147   6085.40265  1.26283         2730.48037     16.74752    3e-05  58700.86823  1.40437  0.00802  11858669.14848  44.47567  17.14146     58732.68    50.82434       44.29757   21.66561  25.81608   34.5    0.43888   -21.1949  0.99951 
     -3.569  0.06514  3.71772     13.70607  1.98465  1.12077  1.11725  0.30227     0.02189  11957.70802    6196.8695  0.73876         3128.23954     17.91359  0.00046    58700.711  0.95295  0.07278    9860726.4966  44.43207  17.13181     58733.14    50.81629       44.27633    22.6205  25.94398   33.0    0.44585  -21.22318  0.99525 
   -3.42738  0.00798  3.65151      13.6637  2.13579  1.26181  1.77019  0.18043      0.0123  11921.54139   5934.94546  0.81073         2945.71866     19.36638  0.01292  58700.85262  1.50076  0.01413  12442601.27828  44.37855  17.13599     58732.68    50.84464        44.3102    22.6205  25.32196   34.0     0.4232   -21.2104  0.99919 
   -3.46697  0.00375  3.65351     13.73087  1.89188  0.91903  1.34126  0.23312     0.01568  10750.02583    5814.4489   1.3492         2980.27718     18.27006  0.00103  58700.81303  0.92461  0.00502   8098351.23909  44.51192  17.13914     58732.68    50.81928       44.28534    22.6205  25.17767   35.0    0.42448  -21.17641  0.99966 
     -3.669  0.00932  3.35704     13.85788  1.75828  0.52476  1.77366  0.18508     0.01267  11212.24672   5868.39937  0.91697         3243.71701     19.41586  0.01447    58700.611  1.33009  0.01653   3540435.52375  44.91296   17.1321     58732.68    50.81418       44.27828    22.6205  25.32196   34.5    0.41406  -21.20226  0.99893 
   -3.35179   0.0044   3.6812     13.82562   1.9168  0.67227    1.249  0.23456     0.01765  10961.99445   5804.87807  1.07222         3411.69979     18.39911  0.00139  58700.92821   0.8953  0.00549   5384227.67197  44.68832  17.12193     58732.68    50.82054        44.2887    22.6205  25.17767   35.0     0.4447   -21.2032  0.99962 
   -3.47789  0.10295  3.66336     13.94875  1.81889  0.49192  1.60628  0.21271     0.01566  11297.06504   5806.07909  1.14033         3217.79614     17.68448  0.00027  58700.80211  1.22286  0.16536   2869924.94974  44.94302  17.12536     58733.14    50.82218       44.29001   21.66561  26.13256   34.0    0.43913  -21.21684  0.98813 
   -3.71267  0.00412  3.06565      13.6014    1.551  0.94496  2.12317  0.17949     0.01159  11574.94844   6015.48306  1.53133          2704.3335     19.95821  0.05046  58700.56733  1.69688  0.00874   8485331.90694  44.55774  17.13548     58732.68    50.82076       44.28471    22.6205  25.29523   34.0    0.43123   -21.2607  0.99944 
   -3.38447  0.00965   3.2338     13.80293   1.7123  0.56071  1.33811  0.23392     0.01566  11214.87379   5948.00716  1.26589         2828.02229     16.15897    1e-05  58700.89553  1.00394  0.01292    4120664.9016  44.86803  17.11842     58732.68    50.82239       44.28706    22.6205  25.32196   35.0    0.43333  -21.18199  0.99919 
   -3.44224  0.24299  3.30232     13.71259  1.71561  0.72231  2.08137  0.15098     0.01079  11384.61582   5896.33148  0.90517         3236.02343     17.57541  0.00021  58700.83776  1.60921  0.50576   6526670.35656  44.65093  17.11512     58733.14     50.8217       44.29166   21.66561  25.81608   34.5    0.43353  -21.20805  0.96807 
   -3.61186  0.04417  3.34415     13.67772  1.60069  0.84265  2.62755  0.12938     0.01008  11499.15708   6048.11354  1.52969         2691.23387     16.10704    1e-05  58700.66814  2.07257  0.11607   7332633.34135  44.55932  17.12326     58733.31    50.81491       44.27364    22.6205  25.94398   34.5    0.41555  -21.19964   0.9916 
     -3.519  0.06935  3.16157     13.59676  1.65782  0.95101  1.39801  0.25849     0.01634  11851.76786   6107.65103   0.9855         3154.59286     17.39051  0.00014    58700.761   1.1714  0.09695   9854407.14684  44.49495  17.12768     58732.68    50.81383       44.28018    22.6205  25.32196   33.5    0.44804  -21.21872  0.99395 
   -3.44656  0.00105  3.60174     13.80967  1.90226  0.71861  1.29635  0.27319     0.01707    11316.933   5982.01101   1.5127          2872.1491      18.3085  0.00113  58700.83344  0.99039  0.00136   5505171.44076  44.69432  17.12715     58732.68     50.8183       44.29003   21.66561  25.81608   34.0    0.43624  -21.21144  0.99991 
   -3.51857  0.00549  3.61853     13.84982  1.87957  0.64248  1.93202  0.18186     0.01213  11402.36233   5879.21485  1.73427         2684.66596     17.50579  0.00018  58700.76143   1.4984  0.01061   4563497.14662  44.76654  17.11011     58732.68    50.82809       44.30047   21.66561  25.25361   34.5    0.42924  -21.20074  0.99928 
   -3.60035  0.00123  3.11724     13.72838   1.4917  0.61961  2.25406  0.15033      0.0107  11254.34074   6102.70606  1.31221         2926.56462     18.44905  0.00156  58700.67965  1.70307  0.00277   4701903.23406  44.78271  17.09568     58733.31     50.8243       44.29602    22.6205  24.86119   34.0    0.42145  -21.19461   0.9998 
   -3.51992  0.03077  3.35942     13.79754  1.72355  0.61075   1.5749  0.19947     0.01423  11215.92283   5975.19997  1.14132         3011.41709     18.74403  0.00308  58700.76008  1.18181  0.04845   4588658.67035  44.79105  17.12463     58732.68    50.80857       44.27384    22.6205  25.32196   34.5    0.43501  -21.19229  0.99678 
    -3.5926  0.01127  3.11881     13.63124  1.69253  0.82395  1.72668  0.20137     0.01139  11059.04941   5898.67429  1.41493         2945.11315     18.54174  0.00193   58700.6874  1.25972  0.01946   8353111.68102  44.58756  17.11104     58733.14    50.82651       44.30016   21.61136  25.29727   35.0    0.42774  -21.19118  0.99884 
   -3.73777  0.00267  3.13445      13.8429  1.60691  0.49169  2.22794  0.16594     0.01003  11487.78546   5876.58654  1.03471         2980.77482     17.31908  0.00012  58700.54223  1.75389  0.00595   3022279.19491  45.00218  17.14206     58732.68    50.81931       44.28359   21.66561  26.13256   33.5    0.42108  -21.20485  0.99962 
   -3.72879   0.0017  3.60158     13.93321  1.74708  0.49981  1.47621  0.22936     0.01849  11394.83457   5879.86612  1.40047          2877.1331     19.20359  0.00888  58700.55121  1.14338  0.00251    2862167.5558  44.94148  17.11247     58732.68    50.81542         44.286    22.6205  24.86119   34.5     0.4365  -21.21502  0.99981 
   -3.45073  0.05105  3.08699     13.64335  1.51495  0.75236  1.58589  0.20405     0.01614  11825.41388   6098.09625  0.92339         3111.89215     16.70584    3e-05  58700.82927  1.32292  0.08096   6927752.97882  44.62958  17.09471     58733.31    50.82541       44.29761   21.66561  25.81608   34.0    0.43842   -21.2172  0.99451 
   -3.40676  0.33725  3.02646     13.69949  1.62558  0.63545  1.11242  0.31781     0.01675  10946.37417   5919.65335  1.64144         2752.73682     16.43441    2e-05  58700.87324  0.79512  0.37516   5517064.82596  44.77627  17.12815     58732.68    50.82094       44.28745    22.6205  25.17767   35.5    0.41834  -21.17218  0.97816 
   -3.49031  0.00595  3.23073     13.81833  1.66819  0.53915  2.35182  0.14546     0.01026  11584.12807   5889.95495  1.35744         2758.69223     19.37537  0.01319  58700.78969   1.8826  0.01398   3732457.20362  44.90049  17.12781     58733.16    50.81236       44.28165    22.6205  25.32196   34.5    0.41617  -21.21593   0.9991 
   -3.56483  0.00396  3.29649     13.56175  1.60657  1.22371  2.02344  0.15365      0.0139  12074.10419   5921.54613  1.13138         2710.24747     17.90005  0.00044  58700.71517  1.75965  0.00802  12198954.08941  44.35232  17.13217  58732.33579    50.81864       44.28774   21.66561  25.81608   34.0    0.44583  -21.21111  0.99943 
   -3.48036  0.00849  3.17023     13.60718  1.65061  0.90697  1.62568  0.18938     0.01248  10786.48103   5792.10396   1.1683         3078.68402     18.28397  0.00107  58700.79964  1.12829  0.01381    9403105.7106  44.51104  17.11528     58733.14    50.81303       44.27857   22.62329  25.94119   35.5    0.41561  -21.17529  0.99912 
   -3.31053  0.01534  3.59436     13.70069  1.92028  0.97268  1.31019     0.25     0.01651   11236.2258   5949.15469  1.13483          3198.7642     18.93476  0.00478  58700.96947  0.98674   0.0201   9141918.35074  44.47993  17.12619     58733.14    50.81953       44.28354    22.6205  25.30427   34.0    0.43905  -21.21511   0.9987 
   -3.47836   0.0011  2.72721     13.46646  1.42132  1.04231  1.59763  0.23686     0.01213    11250.705   5897.61484  1.25185         2968.45523     17.85015  0.00039  58700.80164  1.20632  0.00175  11455626.52981  44.49108  17.13165     58732.68    50.81065        44.2776    22.6205  25.32196   34.5     0.4213  -21.20606   0.9999 
   -3.48048  0.00579  3.57876     13.84606  2.04019   0.6164  1.90481  0.17119     0.01189  11684.29821   5770.02133  1.12516         2874.79386     18.37243  0.00131  58700.79952  1.55126  0.01103   4929803.91569  44.77822  17.11236     58732.68    50.81932       44.28696   21.66561  25.81608   35.0     0.4281  -21.20409  0.99934 
    -3.4965  0.00796  2.70686     13.77645  1.43351  0.41307  1.44901  0.23899     0.01413  11448.36476   5781.18768  1.19258          2851.3312     17.86283  0.00041   58700.7835  1.13288  0.01153    2730501.7553  45.12407  17.11607     58732.68    50.81242       44.28014    22.6205  25.17767   34.5    0.42262  -21.19551  0.99934 
   -3.45986  0.03348  2.55004     13.37359  1.30856  1.08022  1.40523  0.24556     0.01416    11287.226   5839.54913  1.20188         3113.35372     16.98528    5e-05  58700.82014  1.06794  0.04705  14142585.41432  44.42202  17.12319     58732.68    50.82515       44.29607   21.66561  25.81608   34.5    0.43934  -21.20288  0.99724 
    -3.6435  0.00798  2.48774     13.60528  1.30076  0.52372  1.43257  0.25058     0.01431  11509.09325    5784.9788  1.16198         2897.76796     16.96189    5e-05   58700.6365  1.13195  0.01143   4603330.11415  44.92836  17.12715     58732.68    50.80844       44.26773    22.6205  25.94398   34.5    0.42119  -21.19652  0.99935 
   -3.74742  0.00763  2.86326     13.48543  1.33713  0.98459  2.30788  0.15187      0.0116  11749.36437   5988.78937  1.21132         2930.25421     17.23932   0.0001  58700.53258   1.9005  0.01761  10885601.39396  44.44445  17.11371  58732.33579    50.82055       44.29177   21.66561  25.81608   34.0    0.42432  -21.20407  0.99876 
     -3.593    0.027  3.40157     13.85063  1.76016  0.53252  1.25639  0.25961     0.02096  11913.25897   5931.35373  0.84565         3104.74028     16.23744    1e-05    58700.687  1.06368  0.03392   3762475.43693  44.87556  17.12282     58733.14    50.81717       44.28516    22.6205  25.32196   34.0    0.42255  -21.21206  0.99775 
    -3.6088  0.00314  3.40077     13.70093  1.73312  0.83651  2.35306   0.1374     0.01011  11498.02136   6059.59525  0.81048         3237.68352     18.02229  0.00058   58700.6712  1.85569   0.0074   7378034.12213  44.57658  17.12269     58733.14    50.81786       44.28493   21.66561  26.13256   33.5    0.43062   -21.2019   0.9995 
   -3.71183   0.0294  3.06422     13.55947  1.63644  1.06925  1.23053  0.33577     0.01922  12258.83392    6072.8719  1.01688         2834.26075     18.09485  0.00069  58700.56817   1.1031  0.03618  10849619.05974  44.47469  17.12747     58732.68    50.82233       44.28411   21.66561  26.27684   33.0    0.42794  -21.23244  0.99784 
   -3.49974  0.09042  3.09188     13.63151  1.60948  0.74726  1.20325   0.2403     0.01691  10864.06357   5783.94685  1.08341         3230.72612     18.23168  0.00095  58700.78026  0.84716   0.1088   7797052.97187  44.60316   17.1309     58732.68    50.81048       44.27644    22.6205  25.32196   35.0    0.41298  -21.16825  0.99313 
   -3.81532  0.01528  3.62837     14.04881   2.0781  0.39752  1.96312  0.19042     0.01138  11838.95639   5874.76627  0.81872         3021.66214     16.49038    2e-05  58700.46468  1.64135     0.03   2028993.54761  45.15981  17.13223     58733.14    50.82614       44.29853   21.66561  25.25361   34.0    0.41766  -21.20196  0.99823 
   -3.59454  0.00129  3.67769     13.88882  2.02721  0.59586  1.78358  0.20115     0.01266  11414.52133   5801.02854  1.32516          2849.0252     19.16668  0.00815  58700.68546  1.38623   0.0023   4248353.27027  44.81637  17.11615     58733.24    50.82497       44.29737   21.66561  25.81608   34.5    0.40812  -21.19705  0.99986 
   -3.66594  0.00849  3.28333     13.66412  1.69572  0.83156  2.22586  0.16262     0.01093  11743.20125   6036.03352  1.31703         2858.57137     17.25457   0.0001  58700.61406  1.83104   0.0189   7971757.98612  44.56402  17.14539     58732.68    50.81464       44.28323    22.6205  25.17767   34.5    0.42983   -21.2041  0.99877 
   -3.33758  0.07006  3.45982     13.89816  1.84011  0.50212  1.21537  0.27209     0.01894  11622.61681   5994.68911  1.18256         2901.46621     16.76328    3e-05  58700.94242  0.97936  0.08515   3269193.33041  44.94114  17.12861     58732.68    50.81731       44.28642    22.6205  24.86119   34.5    0.43546  -21.20056  0.99456 
   -3.56401  0.01366  3.20036     13.62914   1.5924  0.88482  1.24565  0.24812     0.01598  10532.09462     6040.518  1.14835         3227.63419     17.48367  0.00017  58700.71599  0.82424  0.01701   8355807.01825  44.53851  17.12845     58733.14    50.80784       44.26793    22.6205  25.94398   35.0     0.4258  -21.17621  0.99885 
   -3.39593  0.14573  3.00923      13.6496   1.5152  0.71794  1.40305  0.24422     0.01525  11319.58499   5980.05611  1.02962         3244.49198     16.35757    1e-05  58700.88407  1.07241  0.20447   6397423.95146   44.6864  17.12913     58732.68    50.82029       44.29094   21.66561  25.81608   34.0    0.43891  -21.21437  0.98693 
   -3.52764  0.04986  3.19153     13.56265  1.65083  1.11474  1.74519  0.20295     0.01323  11615.72215   5860.21166  1.29078         2828.52246     17.19273    9e-05  58700.75236  1.40463  0.08702  11700971.24622  44.41033   17.1414     58732.68    50.81016       44.26931    22.6205  25.94398   34.0    0.42773   -21.2022  0.99444 
   -3.55054  0.00208  3.00255     13.66856  1.62875   0.6753  2.10868  0.16342     0.01076  11821.64477   5832.91805  1.00204         2893.02603     18.58116  0.00212  58700.72946   1.7579  0.00439   6273867.45771  44.72819  17.12898     58732.68    50.81657       44.27935    22.6205  25.32196   34.5    0.42222  -21.21096  0.99974 
   -3.38931  0.00115  3.35372     13.66349    1.918  0.90862  1.19744  0.26302     0.01603  11159.14603   5860.59735  1.12649         3033.47938     19.16255  0.00808  58700.89069  0.88949  0.00138    9434943.8611   44.5259  17.14315  58732.33579    50.81746       44.28782    22.6205  25.17767   35.0    0.41508  -21.19001  0.99992 
   -3.50659  0.01884  3.53553     13.86605   1.9207   0.5636  1.93977  0.16477     0.01082  11064.69101   5680.67962  1.27302         3006.03136     16.90035    4e-05  58700.77341  1.41663  0.03654   4131225.31902  44.83932  17.13043     58732.68    50.81324       44.27838    22.6205  25.32196   35.0    0.42887   -21.1824  0.99769 
   -3.56745  0.33091  3.49282     13.84751  1.82583  0.57545  1.22997   0.2795     0.01785  11112.08069   5901.82996  1.20137         3083.42925     18.10424  0.00071  58700.71255  0.90596  0.40701   4174451.51022  44.82336  17.14041     58732.68    50.81024       44.27405    22.6205  25.32196   34.5    0.41487  -21.19704  0.97374 
   -3.42755  0.00101  3.15809     13.73717  1.48887  0.60568   2.3758  0.12912     0.01125  11615.86878   6139.10063  1.14869         2906.89199      18.8005  0.00351  58700.85245  1.91223   0.0024   4625806.83759  44.77767  17.11654     58732.68    50.81922       44.28854   21.66561  25.81608   34.5    0.43215  -21.19724  0.99983 
   -3.30001  0.03787  3.09775     13.59102  1.47785  0.87712  1.46627  0.22179     0.01756  11460.47508   5870.42881  1.40505         2859.85154     16.87508    4e-05  58700.97999   1.1488  0.05553   8659747.42882  44.51888  17.14162     58732.68    50.82221       44.28904   21.66561  26.13256   34.5    0.43945  -21.20674  0.99607 
   -3.39493  0.00284  3.65844     13.81101  1.82547  0.71349  1.34561  0.23862     0.01705  10977.78101   6108.23622  1.14655         3248.31888     18.33718  0.00121  58700.88507  0.96734  0.00382   5417015.32666  44.66987  17.12229     58732.68    50.82818       44.29555   21.66561  25.81608   34.5    0.42653  -21.19786  0.99973 
   -3.44994  0.13543  3.56132     13.98389  1.83716  0.41999  1.17186  0.25965     0.02033  11448.12278   5871.17439  1.05049         3062.45298     17.94608  0.00049  58700.83006  0.91616  0.15871    2330265.7036  45.06236  17.14477     58732.68    50.81307       44.27842    22.6205  25.17767   34.5    0.44164  -21.19263  0.98929 
   -3.62982  0.01031  3.33955     13.62072  1.70088   0.9959  1.30691  0.25535     0.01797  11221.08355   5834.58789  1.19819         3042.12225     18.22732  0.00094  58700.65018  0.98162  0.01347  10102298.07959  44.44772  17.13636     58732.68    50.81801       44.28653    22.6205  25.17767   34.5    0.41366  -21.19689  0.99909 
   -3.41901  0.15935  3.83698     13.88829  1.97646  0.60745  2.13726  0.13989     0.01244  11852.30452   5864.16738  1.05892         2938.70124     18.02993   0.0006  58700.86099  1.79098  0.34058   4519703.49876  44.74165  17.14064     58732.68    50.81041        44.2701    22.6205  25.94398   34.5    0.42353  -21.19285  0.97633 
   -3.78324  0.02456  3.50418     13.65479  1.79709  1.09067  1.46033  0.24812     0.01703  11754.03964   6233.58033  0.94605         3068.81039     16.40318    1e-05  58700.49676  1.20352  0.03586  10045697.15972  44.43226   17.1391     58733.14     50.8311       44.29411   22.62329  25.94119   33.5    0.43055  -21.21587  0.99758 
   -3.40402  0.00131  2.87984     13.47512  1.50361  1.10193  1.84505  0.17974     0.01232  11668.68181    5774.5788  1.42621         2661.10721     16.62038    2e-05  58700.87598  1.49858  0.00241  12985471.04684  44.41379   17.1388     58733.14    50.82026        44.2802    22.6205  25.94398   35.0    0.42696  -21.20306  0.99985 
   -3.48219  0.01409  2.64323      13.4868  1.29607  0.81388  1.13967   0.2606     0.02043  11670.16725   5951.61544  0.79596         3089.24905     18.31039  0.00114  58700.79781  0.92589  0.01606   8935616.81636  44.58608  17.12595     58732.68    50.82088       44.29468   21.66561  25.81608   34.5    0.44333   -21.1984  0.99898 
   -3.39781  0.01105  3.16763     13.82641  1.57833  0.49528  1.33563  0.23309     0.01613  10897.59181   5898.40919  1.33679         3044.10248     18.25057  0.00099  58700.88219  0.94618  0.01476   3270860.01852  44.95091  17.13375  58732.33579    50.81515       44.28295   21.66561  25.81608   34.5    0.43188  -21.19457    0.999 
    -3.4565  0.00667  2.91004     13.75407   1.4193   0.5008  1.96832  0.17049     0.01058  10802.88921   5899.55524  1.59501         2912.60502     17.07917    7e-05   58700.8235  1.37026  0.01313   3463772.84886  44.95357  17.12774     58732.68    50.82903       44.30161   21.66561  25.25361   35.0    0.42196  -21.18818  0.99913 
   -3.44795  0.01546   2.6765     13.77637  1.32402  0.38954  2.00227  0.16723     0.01135  11449.26193   5878.95858  1.18558         2942.21192     17.95973  0.00051  58700.83205  1.56569  0.03096    2466598.2358  45.14351  17.11397     58733.31    50.82194       44.29078   21.66561  25.81608   34.5     0.4185  -21.19809  0.99805 
   -3.53411  0.00111  3.20838     13.52748  1.59688  1.29016   2.4422  0.12455     0.01047  11710.16957   5892.79277  0.86564         3012.92761     18.45094  0.00157  58700.74589  1.99772  0.00271  13449429.84562  44.33084  17.11679     58732.68    50.81983       44.29179   21.66561  25.25361   34.0    0.42959  -21.19611  0.99982 
   -3.52579  0.12941    3.493     13.98493  1.79521  0.42462  1.52849  0.24392     0.01542  11594.10985   6071.27526  1.22731         2998.87651     18.60081  0.00222  58700.75421  1.22565   0.1978   2180027.36704   45.0981   17.1325     58732.68    50.82454       44.29917   21.61136  25.29727   34.0    0.43062  -21.22134  0.98687 
   -3.25776  0.00629  3.42729     13.88922  1.81756  0.51084   2.0858  0.13703     0.01093  11606.49038   6179.17542   0.7843         3189.90886     18.84435  0.00388  58701.02224  1.67611  0.01313   3301995.44137  44.93966  17.13165     58732.68    50.81721       44.28718   21.66561  25.81608   34.0    0.42807  -21.20779  0.99916 
    -3.4513  0.03009  3.57849     13.93841  2.02659  0.49795   1.3922  0.23451     0.01399  11051.39555    5967.9135  1.07836         3082.83275     17.07388    7e-05   58700.8287   1.0143  0.04189   3200043.30898  44.96305  17.12526     58733.14    50.81655       44.28034   22.62329  25.94119   35.0    0.42426  -21.18164   0.9975 
   -3.33235  0.00173  3.72681     14.04381  1.99944  0.41876  2.12758  0.14228     0.01087  11276.89417   6013.04296  1.35552         2857.62692     19.68419  0.02685  58700.94765  1.61395  0.00368   2107581.26855   45.1033  17.12996     58732.68    50.82125       44.29284   21.66561  25.81608   35.0    0.43516  -21.22239  0.99976 
   -3.26801  0.49803  2.97686     13.72577  1.53389  0.56213  1.74608  0.20443     0.01124  11213.12873   6055.35174  1.18261         3058.93216     16.70839    3e-05  58701.01199  1.30962   0.8696   4462657.79986  44.85753  17.13039     58733.17    50.81506       44.27647    22.6205  25.94398   34.5    0.43005  -21.19695  0.94834 
   -3.63644  0.12641  3.50584     13.78119  1.88424  0.71168  1.86081  0.20733     0.01186   11501.2095   5887.87535  1.45966         2868.67036     18.01975  0.00058  58700.64356  1.46831  0.23523    5890493.9415  44.68425  17.12379     58732.68    50.81911       44.28612   21.66561  26.13256   34.5    0.42459  -21.19964  0.98525 
   -3.48835  0.01339  3.11371     13.73374  1.70037  0.61116  1.97712  0.18251     0.01056  11360.16657   5723.82455   1.4345         2867.29763     18.37012   0.0013  58700.79165  1.52205  0.02647   5217228.37136  44.79539  17.09442     58732.68    50.81046       44.27568    22.6205  25.32196   34.5    0.41656  -21.19704  0.99844 
   -3.40115  0.11387  3.47929     13.74065  1.86106  0.76719  2.12935  0.14926     0.01245  12409.55657   5934.00504  0.79212         2842.75172     16.58271    2e-05  58700.87885  1.95608  0.24248   6906614.53259  44.61636  17.10783     58732.68     50.8298       44.30673   21.66561  25.24301   33.5    0.44575  -21.22243   0.9847 
   -3.46492  0.00522  3.09442      13.5841  1.60608  0.92158  1.93695  0.17073      0.0103  10829.17883   5974.14523  1.27624         3127.28368     16.36189    1e-05  58700.81508  1.35499   0.0101   9694791.12198  44.50692  17.13333  58732.33579    50.81819       44.28801   21.66561  25.81608   35.0    0.42138  -21.18984  0.99936 
   -3.51211  0.00186  3.31644     13.64188  1.76575  0.89784  1.33486  0.26205     0.01929  12245.53888   6086.61106  1.13685         2750.06696     16.45189    2e-05  58700.76789  1.19404  0.00248    9382879.8626  44.50209  17.13725     58732.68    50.83244       44.29827   21.66561  26.13256   34.0    0.43366  -21.20365  0.99984 
   -3.55534  0.07359  3.04749      13.5704  1.45568  0.94501  1.33627  0.26719     0.01943  11863.44874   6045.56848  1.03763         2945.54071     18.89817  0.00439  58700.72466  1.12187  0.09833   9077441.91073  44.50606  17.13191     58732.68    50.82062       44.28944   21.66561  25.81608   33.5    0.42963  -21.21705  0.99317 
   -3.54003  0.08344  3.55204     13.77208  1.81561  0.73002  2.09742   0.1599     0.01078  11184.21162   5872.20899  1.09915         3287.76758     17.08884    7e-05  58700.73997  1.56503  0.17501   6076286.37859  44.64327  17.11807     58733.14    50.81854       44.28857   21.66561  25.81608   34.0    0.43505  -21.20343  0.98809 
   -3.65629  0.15148  3.81571     13.85537  2.09913  0.69319  1.41103  0.22805     0.01515  11046.19741   5768.92049  1.12138         3094.01295     16.87397    4e-05  58700.62371  1.02705  0.21375   5524091.25488  44.68547   17.1388     58732.68    50.81591        44.2802    22.6205  25.32196   35.0    0.42346  -21.18815  0.98643 
   -3.41288  0.00513  3.14773     13.69872  1.67923  0.68194  1.65331  0.18047     0.01362  11553.00485   5913.98912  0.90201         3130.88979     19.18521  0.00851  58700.86712  1.31635  0.00848     6187078.583  44.70648  17.13072     58733.14    50.81727       44.27901    22.6205  25.94398   34.5    0.41754  -21.21115  0.99948 
   -3.44418  0.00231  3.08516     13.62757  1.49987  0.78192  2.55611  0.12472      0.0101  11794.37217   6061.44764  0.94802         3063.14332     16.52511    2e-05  58700.83582  2.12108  0.00591   7366901.83345  44.59906  17.11126     58733.16    50.81989       44.29035    22.6205  24.86119   34.0    0.43694  -21.20704  0.99959 
   -3.53903  0.10885  3.16343     13.62909  1.66848  0.83242  1.20316  0.27946     0.01958  11716.86707   5770.90276  1.13832         2856.48146     17.50224  0.00018  58700.74097  0.98531  0.13096   8555925.76147  44.55858  17.11885  58732.33579    50.82228       44.29103   21.66561  25.81608   34.5    0.42489  -21.19941  0.99187 
   -3.41475  0.08103  3.01528     13.58198  1.52441  0.86227  1.63128  0.21901     0.01422  11768.74188    6114.7228  1.15552         3035.84617     17.33982  0.00012  58700.86525  1.34777  0.13219    8822886.6662  44.54768  17.12124     58732.68    50.84106       44.31636   21.66561  25.25361   33.5    0.44474  -21.21468  0.99152 
   -3.39072   0.0108  3.18324     13.74633  1.76863  0.64901  1.65824  0.19914     0.01085  10891.51782   5917.58462  1.28934         2938.78796     17.78031  0.00033  58700.88928  1.17342  0.01791   5352118.78836  44.78222  17.13586     58732.68    50.81848       44.28831   21.66561  25.81608   35.0    0.43201  -21.18109  0.99896 
   -3.74038  0.07897  2.91244     13.47548  1.51854  1.15792  1.82465  0.20321     0.01199  11514.79783   5964.44999  1.05092         3075.62828     19.07137  0.00655  58700.53962  1.44318  0.14409  13390724.59675  44.39495  17.13215     58732.68    50.83775       44.31811   21.61136  24.59458   34.0    0.41795  -21.20579  0.99129 
    -3.4036   0.0075  3.50133     14.05757  1.71279  0.35575  1.78185  0.19027     0.01378  11365.33978   5984.15432  1.09246         3048.75134     16.01504    1e-05   58700.8764  1.37298  0.01337   1495724.67965  45.23923  17.12181     58732.68    50.82491       44.29664   21.66561  25.25361   33.5    0.44468  -21.20089  0.99904 
   -3.26129  0.26018  3.07422     13.57225  1.62849  0.91905  1.43815   0.2227     0.01408  11220.35267   5940.23118  1.19853         3050.68737     18.41813  0.00145  58701.01871  1.08005  0.37418  10246455.25488  44.49459  17.14931     58732.68    50.82104       44.28615    22.6205  25.30427   34.5    0.41649  -21.19417  0.97751 
   -3.57128  0.01972  3.55354     13.90663  1.76651  0.53288  1.94745  0.18573     0.01338  11720.62681   6041.30335  1.23123         2882.62819      16.5918    2e-05  58700.70872  1.59586   0.0384   3184111.56561  44.91165  17.11531     58732.68    50.81533       44.28461    22.6205  25.17767   33.5    0.42391   -21.2165  0.99728 
   -3.48358  0.01501  3.33821      13.7293   1.5958  0.68957  2.11007  0.13921      0.0131  11604.90439   5761.87367  0.91391         3174.78325     17.79959  0.00035  58700.79642  1.69515  0.03168   5744088.39476  44.66558  17.12107     58733.14     50.8193       44.28753    22.6205  25.32196   34.0     0.4269  -21.20463  0.99767 
   -3.54212  0.00116  3.90111      14.0355  1.98442  0.46554   1.6005  0.20974     0.01556  11405.57357   6096.48692  1.35731         2858.12738     16.38606    1e-05  58700.73788  1.24198  0.00186   2381335.53163  45.00728  17.12726     58732.68    50.82697        44.2923   21.66561  26.13256   34.0    0.43111  -21.19698  0.99987 
   -3.62179  0.00462  2.77617     13.53507  1.32352  0.78051  1.51908  0.21453     0.01789  12142.82884   5969.67374  0.82309         3122.19845     18.36007  0.00127  58700.65821  1.33613  0.00701   8059187.71087  44.59739  17.13314     58732.68    50.82583        44.2932   21.66561  26.13256   34.0    0.44576  -21.22324  0.99953 
   -3.47253   0.0233  3.18665     13.78163  1.59501  0.56273  1.75438  0.19642      0.0144  11919.01709   6179.70086  1.01048         3038.63991     17.28984  0.00011  58700.80747  1.48673  0.04088    4111420.7899  44.85095  17.12396     58732.68    50.81246       44.27687    22.6205  25.32196   34.0    0.44019  -21.21645  0.99726 
   -3.57637  0.00244  2.80602     13.50604  1.38622  0.91327  1.24164  0.26067      0.0186  11525.30733    5849.1501  1.07461         2955.96371      16.3834    1e-05  58700.70363  0.98384  0.00303   9857037.83879  44.52075  17.13338     58733.14    50.82225       44.28498   21.66561  26.27684   34.5    0.43799  -21.20508   0.9998 
   -3.51295  0.00212  3.23046       13.558  1.77048  1.15403  1.82581  0.19109     0.01122  11232.85091   5740.14691  1.24641         3122.64334     16.04307    1e-05  58700.76705  1.37424  0.00388  13134971.93228  44.37998  17.12971     58733.14    50.80608       44.26357    22.6205  25.94398   34.5    0.42898  -21.20065  0.99977 
   -3.21457  0.13031   3.6588      13.8179  1.95007  0.70056   1.2585   0.2552     0.01878   11660.4346    5961.4148  1.35327         2838.32501     17.16964    8e-05  58701.06543  1.02073    0.164   5607192.16862  44.68347  17.12166     58733.17    50.82154       44.28411    22.6205  25.32196   34.0    0.44664  -21.21405  0.98932 
   -3.50877  0.00353  3.37622     13.91802  1.76142   0.4762   2.1828  0.17074     0.01046  11569.97979   5931.69372  1.54578         2689.33925     18.26474  0.00102  58700.77123  1.74303   0.0077   2719578.01976  45.02335  17.12815     58733.14    50.82177       44.29335   21.66561  25.81608   33.5    0.42436  -21.20763   0.9995 
   -3.53501  0.09794  2.94755     13.82927  1.42864  0.41717  1.31728  0.25547     0.01997  12014.98693   6092.72972  1.00946         2900.84098     17.46395  0.00016  58700.74499  1.13436  0.12901   2529991.63704  45.08173  17.10411     58733.24    50.82029        44.2871    22.6205  25.32196   33.5     0.4355  -21.21099  0.99131 
   -3.63307  0.06065  3.28165     13.69208   1.7344  0.75086  1.25662  0.24885     0.01763  11174.05862   5687.44212  0.91312         3334.93684     17.09308    7e-05  58700.64693  0.93595  0.07621   7161156.89617  44.62083  17.15658  58732.33579    50.81266       44.27691   21.66561  26.13256   35.0    0.42091  -21.20002  0.99518 
   -3.33796  0.04515  2.89749     13.50148  1.45712  0.99037  1.11766   0.2817     0.01759  10762.18157   5819.62513  1.15213         3309.47014     17.93555  0.00048  58700.94204  0.77222  0.05046  11282187.91857   44.4559  17.13206     58733.31     50.8223       44.28744   21.66561  26.13256   34.5    0.43103  -21.19238  0.99678 
    -3.5327  0.00322  2.78542     13.58443  1.45456  0.71208  2.00762  0.16823     0.01146  12002.80679   6045.72132  0.88083          2864.6642     16.95072    5e-05   58700.7473  1.72534  0.00647   7103274.53894  44.69034  17.14119     58733.19    50.81662       44.27594    22.6205  25.94398   34.0    0.43542  -21.20056  0.99961 
   -3.39175   0.0359  3.20052     13.59163   1.7084   0.9889  1.29349  0.24502     0.01574  11029.13751   5868.08734  1.05979          3217.3672     16.78315    3e-05  58700.88825  0.93858  0.04644  10655881.75858   44.4634  17.12649     58733.14    50.82827       44.29316    22.6205  25.32196   35.0    0.42516  -21.19664  0.99714 
   -3.61297  0.05872  3.31042     13.68624  1.62701  0.82484  2.55032  0.13451     0.01037  11951.06004   6172.51958  0.75599         3084.19708     16.45186    2e-05  58700.66703  2.17288  0.14975   7022543.12628  44.59397   17.1087     58732.68    50.82935       44.30822   21.66561  25.24301   33.5    0.42798  -21.21706  0.98965 
   -3.74834  0.00995  3.36227     13.91665  1.75351  0.47914  2.33876  0.17062     0.01184  12758.67535    6170.9247  0.66948         2876.81837     17.71112  0.00029  58700.53166  2.27103  0.02327   2701991.93908  45.02781  17.15207     58732.68    50.81677       44.28124    22.6205  25.32196   32.0    0.45989  -21.24556   0.9985 
   -3.55067  0.00153  3.12519     13.83127  1.60821  0.46529  1.38146  0.21869     0.01574  11054.76655   5941.53974  1.24273         3009.56496     18.55717    0.002  58700.72933  1.00708  0.00211   3172348.86154  44.98405  17.12349     58733.14    50.81754       44.27529   22.62329  25.94119   35.0    0.43252  -21.18508  0.99986 
   -3.52568  0.01056  3.23739     13.67487  1.71239  0.82111  1.89391  0.16841     0.01109  10817.97678   6005.58711   1.3474         3066.75867     20.02545  0.05891  58700.75432  1.32214     0.02   7448584.38746  44.60999  17.14733     58732.68    50.81533       44.28326    22.6205  25.29523   35.0    0.42038  -21.24325  0.99875 
   -3.52768  0.01079  3.39387     13.78771  1.76264  0.63869  2.09307  0.15266     0.01074  11210.26074   5944.23731   1.1809         2964.72311     16.68256    3e-05  58700.75232  1.56907  0.02258   5011202.68057  44.75368   17.1401     58733.14    50.82415       44.28824    22.6205  25.32196   35.0    0.42391  -21.18787  0.99852 
   -3.50304  0.00301  3.22249      13.7205  1.60916  0.66629  1.24545  0.25395     0.01889  11271.02071   5867.00812  1.11132         3113.18513     18.39013  0.00136  58700.77696   0.9438  0.00375   5620778.20195  44.70927  17.12208  58732.33579    50.80924       44.27532    22.6205  25.17767   34.5    0.42797  -21.19693  0.99975 
   -3.41084  0.00417  3.00476     13.56964  1.51623  0.89543  1.78679  0.18149     0.01237  11264.45673   5905.33541  1.20688         3010.17176      16.7652    3e-05  58700.86916  1.35245  0.00745   9223887.26511  44.52908  17.11249     58733.16    50.80888       44.26766   22.62329  25.94119   34.5    0.43141  -21.20426  0.99952 
   -3.54341  0.00509  3.72918     13.79062  1.92815  0.79352  1.08662  0.29521     0.02411  11775.91106   6019.16185  0.96216         2965.85748       17.187    9e-05  58700.73659  0.89886  0.00554   6530491.98534  44.59581  17.11761      58733.2    50.84519       44.31007   22.62329  25.94119   34.0    0.42806  -21.20628  0.99962 
   -3.50468  0.10211  3.57371     13.64401  1.78617  1.09725  2.00855  0.14873      0.0125  11305.33528   5875.34432  1.08787         3045.36397     17.86983  0.00041  58700.77532  1.53136   0.2051  10913222.82758  44.37658  17.14302     58732.68    50.82486         44.298   21.66561  25.25361   35.0    0.42482  -21.19267  0.98556 
   -3.32222  0.00143  3.14693     13.85528  1.70197  0.45191  1.02853   0.3256     0.02276  11856.29088   5676.38651  1.37043         2786.54967      19.0633  0.00643  58700.95778  0.86246  0.00147   3047819.47235  45.02003  17.11935     58732.68    50.82787       44.29753   21.66561  25.81608   34.5    0.43654  -21.21824  0.99991 
   -3.65435  0.01913  3.37947     13.76754  1.75896  0.68222  2.51497  0.13956     0.01016  12108.87133   6121.81553  0.93742          2909.4693     18.33436   0.0012  58700.62565  2.19972   0.0481   5441121.87138  44.72072  17.13038     58733.14    50.81724       44.27957   22.62329  25.94119   33.5     0.4403  -21.21997  0.99687 
   -3.70083  0.00135  3.25964     13.74455  1.82555  0.67623  1.64222  0.24054     0.01358  11877.44083   5972.62986  0.97709         3022.53518      16.4619    2e-05  58700.57917  1.38199  0.00222    5840373.5475  44.73746  17.11318     58732.68     50.8098       44.27766   21.66561  26.13256   34.0    0.43588  -21.21156  0.99987 
   -3.40978  0.18029  3.66925     13.77875  1.92531  0.80588  1.80045  0.19438      0.0121  11183.86445   5921.74446  1.55312         2833.79591     16.07899    1e-05  58700.87022  1.34336  0.32459   6667572.94881  44.60022  17.11626     58732.68      50.813       44.28056    22.6205  25.32196   34.5    0.42889  -21.19812   0.9787 
   -3.38732  0.02105  3.77274     14.04222  2.09484  0.43337  2.17491  0.15593     0.01001  11517.17726   6130.72454  1.09364         2986.98834     16.74257    3e-05  58700.89268  1.72092  0.04578    2279515.1035  45.07884  17.12726     58732.68    50.81361       44.27893    22.6205  25.32196   34.0    0.43635  -21.20106  0.99713 
   -3.62344  0.14412  3.00629     13.54671  1.48389  0.97483  1.06192  0.31562     0.02412  11991.05058   6027.56664  0.89523         2962.06384     17.63894  0.00024  58700.65656  0.91082  0.15305  10042987.83306  44.48232  17.13504     58733.14    50.81137        44.2752    22.6205  25.94398   34.0    0.44134  -21.22227  0.98992 
   -3.57996   0.0177  3.93832     13.86311  2.01832  0.77297  2.23539  0.16292     0.01334  12497.97174   6083.51902  0.88164         2811.22479     16.73994    3e-05  58700.70004  2.08285  0.03957   5460087.99921  44.64602  17.13675     58732.68    50.82024       44.28988   21.66561  25.81608   33.0    0.45867  -21.24137  0.99719 
   -3.48856  0.00814  4.00005     13.96518  1.99737  0.57977  2.45711  0.13567     0.01093  11573.33694   6076.62001  1.66171         2744.58372     18.93237  0.00475  58700.79144  1.96322  0.02001    3483658.0178  44.82314   17.1364     58732.68    50.81466       44.27659    22.6205  25.94398   34.0    0.44012  -21.20929  0.99851 
   -3.69646  0.00539  3.06348     13.62766  1.65884  0.81133  2.25263  0.15711     0.01043  12243.10618   6059.24183  0.60703         3275.81607     18.20265  0.00089  58700.58354  2.01419  0.01215   8030376.98987  44.61148  17.12529     58733.14    50.82023       44.28869    22.6205  25.17767   33.0     0.4464  -21.22494  0.99928 
   -3.50333  0.08647  3.45292     13.95013  1.76448  0.45715  2.20451  0.14255     0.01055  11274.21667   5884.80249  1.13619         3032.72816     19.79585  0.03472  58700.77667  1.67152  0.19063   2457739.50837  45.04855  17.11398     58732.68    50.81969       44.28868   21.66561  25.81608   34.0    0.44128  -21.23708  0.98733 
   -3.44827  0.00677   3.6867     13.80859  2.14041  0.75015  1.61262  0.21294     0.01188  11102.83666   5926.18507  1.25865         3044.57927     16.54731    2e-05  58700.83173  1.18584  0.01091   6522440.58317  44.65166  17.13833     58732.68    50.81207       44.27695    22.6205  25.32196   34.5    0.43116  -21.18756  0.99936 
