 texplosion  fnickel    Pspin  log(Bfield)      Mns  thetaPB   mejecta    kappa  kappagamma      vejecta  temperature    alpha  cutoff_wavelength  log(nhhost)      A_V         MJD0   kenergy  mnickel           TSD   log(L0)  Peak_mag     Peak_MJD  log(E_rad)  log(Peak_lum)  Rise_Time    E_fold  tau_1  delta_m15     r_peak     frac 
   -5.05917  0.39207  0.97097     14.52706  2.17968  1.27489  22.81969  0.04914     0.01314  13730.16006   9981.79724  0.93329         2285.90365     16.32353    1e-05  57323.97083  25.66186  8.94686   16846.35928  48.40632  22.50178  57374.96783    51.36671       44.73988   15.23358    34.476   33.0    0.23887  -21.77664  0.98586 
   -4.28324  0.22808  0.75339     14.55255  2.13988  1.23938  26.26503  0.04478     0.03591  14171.35748   3600.42958  1.16473         2138.12159      16.6024    2e-05  57324.74676  31.46501  5.99047    8853.84547  48.89807  22.47098  57370.38012    51.30885       44.70403   15.23358  32.87246   46.5    0.27882  -21.74513  0.99651 
   -2.91137  0.08013  0.77482     14.40969   1.9621   1.5091  12.07706  0.13207     0.07063   16638.0136   9279.70938  1.13068         2317.21655     17.68951  0.00027  57326.11863  19.94304  0.96772   16578.61249  48.56362  22.50321  57370.38012    51.31355       44.71615   12.82828  29.66539   25.0    0.34222  -22.05897  0.99897 
   -2.72246  0.02166  0.89802     14.55502  1.90277  0.68948  15.61407  0.09144     0.18392  13589.96269   5939.10987  2.19892         2034.71182     18.11567  0.00073  57326.30754  17.20204  0.33816   11059.55862  48.59792  22.47355  57370.38012    51.27274       44.73196   15.23358  30.46716   32.5    0.27814  -21.78515  0.99929 
   -2.12985  0.07529  0.84213     14.41798  1.79892  1.24925   8.56929  0.11196      0.2501  13860.68485   3140.22987  1.66014         2085.63349      19.5827  0.02125  57326.90015   9.82067   0.6452   17283.27899  48.43547  22.56876  57372.67397    51.29423       44.68964   15.23358    34.476   28.5     0.3752   -21.7052  0.99901 
   -5.18613  0.00128  0.83133     14.72069  2.13178  0.46781   6.88062  0.30341     0.01121  15756.64738   7853.07322  0.85577         2334.05145     16.92505    5e-05  57323.84387  10.19019   0.0088    4951.39021  49.06331  22.56976  57370.38012    51.29376       44.70751   14.43181  33.67423   24.5    0.44243  -21.70781  0.99999 
   -2.80356  0.00406  1.04796     14.32867  1.92458  1.50759  18.54721  0.07628     0.06222  14371.72415   6402.86531  1.60338         2060.91066      18.8208  0.00368  57326.22644  22.85196  0.07529    43201.3289    47.877  22.49382  57372.67397    51.23724       44.69941   14.43181  29.66539   31.5    0.29639  -21.94767  0.99973 
   -3.52117  0.00937  1.31491     14.34486  1.75126   1.0934   5.20142  0.19816     0.19184  13395.74482   8690.30165  2.31112         2024.22304     17.33491  0.00012  57325.50883   5.56779  0.04876   57442.46454  47.51517  22.50292  57374.96783    51.25861       44.69913   16.03535  32.07069   27.5    0.30508  -21.74661  0.99962 
   -5.18744  0.00164  0.85734     14.18369   1.4376  1.02673  12.24257   0.0994     0.11995  15244.09218   9613.00238  1.23786         2216.31403     20.26239  0.10165  57323.84256  16.97082  0.02008   42109.13584   47.9358  22.55342  57370.38012    51.28003       44.69515   14.43181  33.67423   24.5    0.34196  -21.89411  0.99992 
   -5.21024  0.00586  0.82091     14.21868  1.50975  1.25568   3.92238  0.31329     0.04018  12964.40542   5412.99537  1.12938         2356.97217     17.96052  0.00051  57323.81976   3.93262  0.02299   34509.48495  48.08122  22.49052     57373.04    51.29309       44.68091   15.38273  35.14983   28.0    0.35069  -21.60868  0.99993 
   -2.23037  0.05837  0.71311     14.33872  1.59438  0.87228  22.25629  0.07588     0.08188  13659.40396   8507.68302  1.88387         2103.27904     18.15284  0.00079  57326.79963  24.77099  1.29904   15822.83005  48.56584  22.54914  57370.38012    51.30102       44.72613   12.82828  32.07069   31.5    0.25275  -21.85258  0.99789 
     -5.145  0.01362   1.1853     14.37735  1.95978  1.40869   8.92294  0.12781     0.06323  14187.46161   9459.26453  1.35009         2144.97779     19.27486  0.01046    57323.885  10.71383  0.12157   44975.06745  47.76042  22.56583     57373.04     51.2806       44.72862   13.63005  31.26893   24.5     0.3513  -21.67626  0.99943 
   -4.23905  0.04638  0.96925     14.34703   1.7352  1.08793   6.68516  0.16138     0.03333  12628.16422    3001.2006  1.49941         2180.61607     16.01235    1e-05  57324.79095   6.35944  0.31009   30617.96982  48.04935  22.43539  57370.38012    51.26536       44.76583   12.02651  26.45832   30.0    0.29609  -21.70775  0.99896 
   -3.07377  0.00342  0.79932     14.41689  1.82173  1.10876  18.17258  0.06187     0.02111  12772.56281   3772.34295   1.7216         2108.76003     18.66238  0.00255  57325.95623  17.68479  0.06208   15847.78594  48.52392  22.53499  57370.38012    51.25083       44.68472   15.23358  32.07069   31.0    0.26206   -21.7079  0.99991 
  -12.23458   0.2217  2.09214     14.14786   1.7276  1.44182    2.2393  0.26317     0.01553   9277.54205   4153.25719  1.50726         2277.75637     17.66397  0.00026  57316.79542   1.14975  0.49644  355395.92709  46.31439  22.56523  57370.38012    51.26911        44.6893   16.03535  33.67423   29.0    0.43192  -21.25595   0.9887 
   -3.76201  0.03956  0.98686     14.60402  1.82645  0.64624  18.61322  0.05168     0.14906  13156.92274   7169.26512   1.2169         2143.30402     18.69909  0.00278  57325.26799  19.22018  0.73635   10230.54174  48.53204  22.50622     57373.04    51.30799       44.69931   15.23358  35.27776   29.5    0.33715    -21.641  0.99799 
    -3.6146  0.03335  0.92329     14.38628  1.96074  1.34152  13.52358  0.10819     0.23283  15199.54775   9468.73829  1.04956         2290.41088     17.34393  0.00012   57325.4154  18.63718  0.45103   26203.79885  48.21222  22.53843  57372.67397    51.26956       44.68206   14.43181  33.67423   25.0    0.33379   -21.9185  0.99902 
   -5.10552  0.14729  1.20016     14.36261  1.89561  1.39476  15.32304  0.07401     0.08878  13434.48439   9122.11669  1.52571         2076.85004     17.69054  0.00027  57323.92448  16.49735  2.25695   47734.21632  47.70929  22.43244  57368.08626    51.30155       44.82538   12.82828  24.05302   29.5    0.29547  -21.66638  0.98858 
   -4.36672  0.00746   1.1252     14.54748  2.02727   0.8504  19.55434  0.04453     0.05957  12428.53194   6120.55463  1.31849         2333.98686     19.00602  0.00563  57324.66328  18.01814  0.14591   19152.39416  48.19107  22.50414  57372.67397     51.2768       44.71975   14.52185  30.37712   29.5    0.36929  -21.63203  0.99949 
   -5.34528  0.05577  1.15169     14.21209   1.5866  1.38954   3.53959   0.3312      0.0878   14784.2122   4986.36295  1.20614         2212.17999     16.74969    3e-05  57323.68472   4.61505  0.19739   73583.32899  47.47986  22.51211  57368.08626     51.2627       44.68495   15.23358  33.67423   28.5    0.35531  -21.75799  0.99865 
   -3.62589  0.16086  0.79846      14.4818   1.9492  1.11182  26.48575  0.04503     0.02496  13944.36313   5052.90292  1.40609         2128.36535     17.27043   0.0001  57325.40411   30.7211  4.26056   12547.79657  48.65563  22.54781  57368.08626      51.251       44.71868   12.02651  30.46716   39.0    0.26607  -21.81546  0.99543 
   -4.69204  0.07925  0.72222     14.45571  1.72929  0.69821   9.34142  0.19373     0.20903  13725.67825   4702.54787  1.83749         2083.66648     17.91566  0.00046  57324.33796  10.49802  0.74034   10270.78128  48.77777  22.51519  57372.67397    51.24328       44.69309   14.43181  30.46716   35.5      0.234  -21.75811  0.99894 
   -2.70785  0.43517  0.86143     14.33004  1.78856   1.4002    6.2885  0.25338     0.31845  16463.06903   3143.79012  1.65997         2005.63492     16.17842    1e-05  57326.32215  10.16707  2.73655   26957.51173  48.22023  22.46001  57368.08626    51.24447       44.71169   13.63005  29.66539   33.5    0.30477  -21.98439  0.99425 
   -4.15855  0.48602  0.84846     14.42385  1.55877  1.35872  22.78468  0.03362     0.02874  14012.81377   8429.92596  1.37735         2288.31199     18.55825  0.00201  57324.87145   26.6883  11.0739   14796.32647  48.43422  22.55439  57372.67397    51.31612       44.69972   15.23358  36.07953   61.5    0.25989  -21.76766  0.98326 
   -3.01344  0.00121  1.16206     14.33138  1.60117  1.02466  15.83364  0.05152     0.05004  12085.99839   9561.28271  1.64123         2156.48572     18.09919   0.0007  57326.01656  13.79663   0.0191    43647.2316  47.70287  22.53054  57374.96783    51.34403       44.71377   16.03535  37.68307   25.5    0.34812   -21.6322  0.99988 
   -3.63225  0.09145  1.20438     14.29349  1.70487  1.36246   7.78948  0.12971     0.07427  13498.51809   4859.19376  1.70939         2104.93328     17.55232   0.0002  57325.39775   8.46657  0.71233   59434.89762  47.56497  22.50847  57370.38012    51.20984       44.69616   14.43181  28.06186   31.0    0.32511  -21.76143  0.99544 
   -3.73771  0.00951  0.85458     14.45771  2.06378  1.13245  26.20299  0.05156     0.02536   13674.6588   6097.90304  1.08742         2237.47907     17.39393  0.00014  57325.29229   29.2288  0.24907   17004.90972  48.48943  22.50647  57370.38012    51.26468       44.73955   12.82828  29.66539   31.0    0.31444  -21.79624  0.99964 
   -5.14599  0.00109  0.84837     14.35537  1.93358  1.01528   7.51625  0.23634     0.34309  11632.75262   6061.16966  1.88602         2050.05001     17.81003  0.00036  57323.88401   6.06727   0.0082   25153.62023  48.29743  22.49566  57372.67397    51.29744       44.72665   13.63005  31.26893   38.0    0.21553   -21.6645  0.99998 
   -8.85855  0.00392  1.01354     14.33736  1.84144  1.02911  13.96489  0.10861     0.14118  15180.43952   9570.59816  0.21939          2190.9472     18.16171  0.00081  57320.17145  19.19701  0.05473    37147.4546   47.9524  22.46264  57370.38012    51.27281       44.71506   13.71659  31.98415   25.0    0.35067  -21.61916  0.99979 
   -3.18031  0.01427  0.87927     14.40534  1.71962  1.06282  10.90009  0.08217     0.03423   11492.6071   6938.69179  1.77424         2126.29899     16.56735    2e-05  57325.84969   8.58804  0.15552    19090.3626  48.33522  22.46469  57370.38012    51.22856       44.69678   12.93953  29.57536   30.0    0.33086  -21.54612  0.99967 
   -2.46414  0.03926  0.83026     14.48361  1.70086  0.77149  16.53211  0.05708     0.17715  11237.97369   6676.53513  1.73712         2171.82533     18.20304  0.00089  57326.56586  12.45465  0.64905   11740.58085   48.5914  22.50641  57370.38012    51.32393       44.71387   16.03535  32.87246   33.5    0.30608  -21.63726  0.99877 
   -5.72697  0.00644  1.41407     14.16107   1.4663  1.46778  10.55054  0.07348     0.03621   11533.7297   5309.48458  2.18832         2167.69384     17.91563  0.00046  57323.30303   8.37224  0.06791  129668.49667  47.02129  22.46293  57368.08626     51.2359       44.71012   13.71659  29.57885   33.0    0.34229  -21.50968  0.99914 
   -8.60185  0.02528  0.97997     14.48685  1.80731  0.62065  11.72185  0.12341     0.06636   13211.9048   4886.05963  0.84655         2139.46652     19.13937  0.00766  57320.42815  12.20546  0.29638   17122.89213  48.30987  22.50679  57368.08626    51.25277        44.6801   16.03535  31.26893   35.0    0.27267  -21.54898  0.99891 
    -4.5862  0.00313  1.24458     14.31548  1.74049  1.13052   6.39612  0.14992     0.01731  12361.70484   8163.16938  1.60356         2008.29294     18.23314  0.00095   57324.4438   5.83043  0.02001   58557.10615  47.55189  22.50041  57370.38012    51.25802       44.69898   14.43181  32.07069   25.0    0.37913  -21.62959  0.99986 
   -5.54646  0.05816  0.86712     14.32437  1.75747  1.48686    8.4334  0.15506      0.0971   15211.6939   4786.81255  0.68785          2353.0235     16.57229    2e-05  57323.48354  11.64086  0.49044   27550.19444  48.19745  22.53312  57370.38012    51.27131       44.68825   13.72008  31.98066   30.0    0.34768  -21.64954  0.99893 
   -3.06577  0.19827  0.75642     14.37309  1.68666  1.49864   32.9086  0.03085     0.29291  13283.86179   8808.07358  1.58606         2134.09479      18.2978   0.0011  57325.96423  34.64059  6.52484   16076.04724  48.53217  22.49992  57368.08626     51.2807       44.69289   14.43181  29.66539   38.0    0.28122  -21.78724  0.99246 
   -9.14391  0.47622  1.18838     14.21533  1.66252  1.55601   6.49496  0.19338     0.01416  13705.22166   9585.14784  1.08931         2266.84877     18.67987  0.00266  57319.88609    7.2774  3.09303   80878.87373  47.43187   22.5323  57372.67397    51.23393        44.7193   12.82828  29.66539   23.0    0.42523  -21.55194  0.97898 
   -5.23245  0.00154  0.81461     14.53939  1.45326  0.50339   7.33231    0.139     0.05931  14768.14515   8862.09095  0.63507         2193.69153     19.26745  0.01028  57323.79755   9.53938  0.01128    7469.14486  48.73602  22.59462  57374.96783    51.36051       44.70324   18.44065   39.2866   23.0    0.43601  -21.58475  0.99997 
   -5.55859  0.19043  1.13653     14.42209  1.78352  0.99379   4.81828  0.17392     0.02538  14046.72957   9273.42117  0.79935         2337.77125     18.75626  0.00317  57323.47141   5.67113  0.91756   30625.31565  47.92288  22.51105  57372.67397    51.27022       44.71199   13.72008  31.98066   21.0    0.48428  -21.57933  0.99569 
   -2.59688  0.02823  0.75305      14.2823  1.58154  1.37344   7.05364  0.18987     0.07917  16050.75941   4944.33122   1.0766         2061.17893      17.2519   0.0001  57326.43312  10.84006   0.1991   22696.28675  48.35832  22.45613  57370.38012    51.26908       44.70796   15.23358  32.07069   28.5    0.34774  -21.88189  0.99967 
   -1.79561  0.18153   0.7186     14.77473  1.84809  0.41942  11.55932  0.09394     0.26485  10627.90648   8583.67196  2.19749         2104.21432     17.78117  0.00034  57327.23439   7.78852   2.0984    2500.61219  49.42455  22.55053  57368.08626    51.22376       44.68689   14.52185  30.37712   33.5    0.25077   -21.8502  0.99812 
   -3.57283  0.02204  0.74999     14.39984  1.97027  1.14214  14.51972  0.11271     0.20432  13649.80313   3034.70898  1.58078         2059.15141     17.57521  0.00021  57325.45717  16.13757  0.32005   16321.71821  48.60049  22.54032     57373.04    51.32269       44.68277   16.16328   38.3569   34.5    0.22022  -21.89024  0.99964 
   -5.12004  0.04626  1.01247     14.10283  1.28842  1.36176   8.79001   0.1029     0.05813  13094.76847   7307.78662  1.10533         2241.14256     16.63246    2e-05  57323.90996   8.99109  0.40664   76378.36387  47.48517  22.44057     57373.04    51.30154        44.7358   15.23358  31.26893   29.5    0.36312  -21.62646  0.99711 
   -3.03634  0.00298  0.72459     14.59079  2.07483  0.84846  12.33282  0.10023     0.02896  13940.44199   8214.49873  1.17171          2310.3841     16.97962    5e-05  57325.99366  14.29693  0.03676    6658.88763  49.04224  22.48944  57370.38012    51.26501       44.71633   13.63005  32.07069   26.5    0.34883  -21.80699  0.99998 
   -4.90768    0.004  0.95873     14.55643  2.05549  0.74492  13.12908  0.11628     0.46776  14050.06409   7553.33955  1.51764           2021.949     18.40218   0.0014  57324.12232  15.46031  0.05254   13528.92162  48.48711  22.55266  57374.96783    51.28507       44.74568   13.63005  30.46716   30.5    0.29368  -21.70768  0.99988 
   -5.89401  0.00531   1.4864     14.33019   1.8751  1.17959  16.39532   0.0363     0.35255   8307.64517   4210.04619  1.97165         2238.88929     19.38474  0.01347  57323.13599   6.74999  0.08699   84086.26514  47.27287  22.48828  57370.38012    51.20275       44.71427   13.71659  26.37178   38.0    0.27186   -21.3098  0.99917 
   -3.11489  0.03362  0.81718     14.30837  1.78824  1.40337   7.18867  0.20651     0.21271  14195.38191   3871.36429  1.47497         2061.30972     17.65898  0.00025  57325.91511   8.64111  0.24169    26800.5917  48.26849  22.51821  57370.38012    51.25514       44.70363   13.63005  28.06186   31.5    0.29931  -21.87948  0.99954 
   -4.20411  0.03609  1.41518      14.4139  1.91589  1.12948   5.55291  0.18971     0.20519  17059.09894   9643.14132  1.39018         2108.14851     16.00681    1e-05  57324.82589   9.63962   0.2004   52967.65935  47.52558  22.55105     57373.04    51.30442       44.68934   16.16328  35.95159   21.5     0.4376  -21.89833  0.99847 
   -4.68453  0.03975  0.74852     14.15529  1.67126  1.37819  16.44883  0.15336     0.46808  14726.52765    8744.4459  1.78243         2055.11828     19.36245   0.0128  57324.34547  21.27957  0.65378   42528.56586   48.1148  22.53963  57372.67397    51.25748       44.71081   12.82828  32.07069   34.0    0.19281  -22.01474  0.99854 
   -2.43162  0.00707  0.70791     14.32386  1.71114  1.50499  10.32954  0.13227     0.06596  14932.58479   3237.79624  1.41146         2103.91076     16.50911    2e-05  57326.59838  13.73972  0.07301   17919.79525  48.54884  22.58838  57374.96783    51.30855        44.7091   14.51835  34.38945   28.5    0.34644  -21.91798  0.99992 
   -5.43831  0.02671  0.93577     14.25533  1.61277  1.37841  16.12742  0.08265     0.04865  15187.75655   3539.91723  1.35602         2120.65085       18.048  0.00062  57323.59169  22.19112  0.43073   40463.20138  47.92702  22.53307  57372.67397    51.27268       44.69773   17.63888  32.07069   30.5      0.328  -21.70181  0.99846 
   -3.18274  0.24886  0.98521     14.33487  1.69702  1.39331   16.0886  0.05869     0.01296  12195.46651   3177.86768   1.8448         2051.57053     17.02996    6e-05  57325.84726  14.27388  4.00385   32720.17541  47.99666   22.4961  57368.08626    51.21554       44.72082   12.82828  28.06186   36.0    0.28253  -21.68205  0.98691 
  -13.94356  0.04403  1.03418     14.39701  1.92947   0.7172  12.19662  0.19761     0.02096  14665.16339   6731.81714  0.30112         2245.51481     16.82828    4e-05  57315.08644  15.64734  0.53705   30791.40524  48.03666   22.4966  57370.38012    51.21802       44.74534   12.02651  26.45832   32.5    0.28146  -21.55744  0.99777 
   -5.27221  0.12605  0.81668     14.40388  1.54045  0.67612  14.17699  0.10632     0.09598  15228.78088   4523.75832  0.94932         2188.78387     19.34836  0.01239  57323.75779  19.61289  1.78707   14852.88845  48.46058  22.55271  57372.67397    51.25742       44.68687   16.03535  31.26893   34.0    0.28088  -21.79029  0.99514 
   -2.62527  0.36978  0.85633     14.37789  1.53304  1.12645  15.39235  0.05359     0.39348  13387.69561   6389.57982  1.76504         2162.54424     18.12405  0.00074  57326.40473  16.45674   5.6918   18317.40464  48.32625  22.50095  57370.38012    51.25961       44.69955   14.43181  31.26893   48.0    0.31482  -21.71421   0.9879 
   -7.01797  0.00355  1.09671       14.286  1.49136   0.8962    8.8127  0.09735     0.06058  11769.71073   7715.82776  1.17841         2288.05897     16.51893    2e-05  57322.01203   7.28229  0.03129   44625.40004  47.71266  22.42671  57370.38012    51.25288       44.78295   16.03535  21.64772   30.0    0.33156  -21.43057  0.99979 
   -5.77436  0.04679  1.37882       14.247  1.68683  1.50868   7.05618   0.1541     0.03085  14271.72374   6541.45389  1.55159         2035.78468     18.41215  0.00144  57323.25564   8.57334  0.33019   95478.85764    47.237  22.53181  57372.67397    51.28298       44.70506   16.03535  32.87246   27.5    0.35731  -21.67178  0.99689 
   -2.95895  0.29863  0.78568     14.54032  2.08485   1.3101  22.16372  0.03876     0.08959  11164.47046   4845.42025  1.43894         2458.80888     17.19026    9e-05  57326.07105  16.47958  6.61864    9925.37822  48.80068  22.50943  57372.67397    51.28873       44.70218   15.23358    34.476   56.0    0.25038  -21.72196  0.99541 
   -3.60607   0.0045  0.82931     14.43439  2.09491  1.23601   9.99333  0.16683     0.02716  14114.06108   5220.76758  2.02444          2111.3131     19.64256  0.02439  57325.42393  11.87522  0.04492   18098.12614  48.49494  22.51699  57370.38012    51.25444       44.71957   14.43181  28.86363   31.0    0.26519  -21.88482  0.99994 
   -4.38823  0.00941  0.72121     14.45415  1.56612  0.55801  10.39568   0.1412     0.01887  11655.84468    7393.9352    1.651         2174.00018      16.0964    1e-05  57324.64177   8.42496  0.09781     9342.6263  48.77708  22.50408     57373.04    51.32955       44.70117   15.23358   36.8813   31.5    0.25189  -21.72103  0.99981 
   -6.53873  0.34553  0.82937     14.55923  1.84902  0.54603  19.96319  0.10837     0.02537  15498.53371   4769.86744  0.84661         2066.80708     17.74422  0.00031  57322.49127  28.60476  6.89781    8990.67454   48.7445   22.4666  57370.38012    51.23189       44.75267   13.63005  25.65656   42.0    0.20274  -21.91888  0.98572 
   -1.91745  0.11124  0.72046     14.39136  1.69573  1.38236  39.49941  0.02263     0.39593  12724.06335   9362.74221  1.49822         2243.15942     18.45774  0.00159  57327.11255  38.14779  4.39396    13479.6042  48.65331   22.4554  57370.38012    51.28826       44.73906   16.03535  28.86363   31.0    0.29232  -21.78847  0.99594 
   -3.33096  0.00148  0.97499     14.54526  1.96802  0.85846   13.2625  0.07705     0.05419  11879.64976   9460.24146  2.12855         2104.67798     18.82401   0.0037  57325.69904  11.16503  0.01958   14103.04704  48.43556   22.6381  57372.67397    51.35864       44.71028   16.83711   39.2866   27.0    0.29746  -21.71371  0.99996 
   -3.81396  0.00141  0.86445     14.43833  1.79896  0.84826    7.1344  0.21621     0.23669  15002.78763   9233.57236  1.37226         2133.49496     16.98954    5e-05  57325.21604   9.57919  0.01005   16583.08456  48.43072  22.55554  57370.38012    51.24656       44.72404   13.63005  28.06186   26.5    0.27509  -21.98706  0.99998 
   -3.47977  0.00166  0.81339     14.40985  1.81197  0.93062   7.34355  0.22551     0.01409   14952.5329   7104.68259  1.57861         2022.75078     17.10367    7e-05  57325.55023   9.79406  0.01218   16860.00136  48.47955  22.45999  57370.38012    51.27447       44.70823   13.65126  32.87246   25.5     0.4023  -21.88902  0.99998 
   -3.65422  0.12829  0.80987     14.40588  1.94608  1.34694  11.31579  0.11137     0.22653  13068.95147   4461.27389    1.797         2175.68305     19.68797  0.02708  57325.37578  11.52905  1.45169   18282.99732  48.47912  22.47407     57373.04    51.31458       44.73976   13.63005  31.26893   34.5    0.26501  -21.78389   0.9981 
   -6.17846  0.04021  0.83859     14.36661  1.76868  1.08183   6.24798  0.21234     0.11008  13813.64476    8951.9686  1.06954         2250.69458     17.00292    6e-05  57322.85154   7.11186  0.25124   21347.64382  48.34004  22.50273  57370.38012    51.26848       44.71259   14.43181  32.07069   27.0     0.3184  -21.54304   0.9995 
   -2.87265   0.0039  0.78874     14.41557   1.7303  0.96886  21.82333  0.05129     0.03322  13384.15921   9182.73354  1.59025         2089.18406     17.86925  0.00041  57326.15735  23.32009  0.08514   14745.70523  48.54444  22.48045     57373.04    51.30242       44.71875   15.23358  33.67423   25.5    0.34812  -21.83877  0.99987 
   -2.50425  0.08183  0.89699     14.48484  1.60634  0.63867  19.09776  0.06675     0.15067  14177.71352   6585.41638  1.43579         2128.11424     18.80085  0.00351  57326.52575  22.89928  1.56277   12869.18125  48.45956   22.4685  57368.08626    51.23962       44.73143   12.02651  28.86363   32.5    0.30532  -21.84818  0.99525 
   -2.24389  0.46964  0.72139     14.50039  2.02361  1.43234  11.02046  0.10665     0.38303  15819.86028   4579.76935  1.01232         2250.27119     19.46166  0.01608  57326.78611  16.45251  5.17564    9760.99225  48.86914  22.50981  57368.08626    51.21739       44.70053   12.82828  28.06186   39.5    0.30202  -21.85665  0.99705 
   -3.68507  0.02038   1.2449     14.64239  1.79261  0.47679  12.13146  0.05923     0.02421  10681.34755   9906.40092  1.86938         2214.84728     19.88464   0.0426  57325.34493   8.25643  0.24721   13390.07594  48.20528   22.4952  57372.67397    51.28213       44.72501   14.43181  32.07069   27.0    0.32129  -21.61921  0.99841 
   -7.77205  0.02448  1.51172     14.26344  1.72433  1.33056   6.86146  0.11277     0.10015  13505.58452   4508.82744  0.76279         2278.13778     18.05001  0.00062  57321.25795   7.46569  0.16795  108766.75345  47.11003  22.49406  57370.38012    51.25295       44.70965   12.93953  31.17889   30.5    0.41502  -21.55375   0.9981 
   -2.78235  0.08294  0.77246     14.37165  2.03203  1.48559  13.16246  0.16604     0.24539  17016.13792   8641.84152  1.53128         2075.72422     17.56733  0.00021  57326.24765  22.73455  1.09168   20333.08559  48.49282  22.55908  57370.38012    51.20118        44.6646   15.23358  29.66539   29.5    0.26069  -22.26755   0.9987 
   -2.48791  0.00971  0.74087     14.37923  1.93777  1.27956  19.40194  0.08192     0.02152  14346.98248   5772.19048  1.60147         2072.36613     19.57215  0.02074  57326.54209  23.82283   0.1883   17224.28396  48.58052  22.49439  57370.38012    51.27789       44.70367   13.72008  33.58419   31.5    0.26611   -21.9451   0.9998 
   -3.07182  0.04393  0.73997     14.44059  1.68277  0.99081   4.56858  0.15389     0.03377  10614.74955   6190.15193  1.37769         2406.07632     16.60275    2e-05  57325.95818   3.07064  0.20072   11248.45068  48.70535  22.49739  57370.38012    51.22131       44.75531   11.22474  26.45832   28.0    0.38265  -21.51456  0.99978 
   -3.24981   0.0059  0.72809     14.38948  1.90846  1.30375  32.92049  0.04568     0.02744  14051.75442   4218.95619   1.6417         2129.60556     17.33918  0.00012  57325.78019  38.77525  0.19421   15628.26639  48.63125  22.51437  57372.67397    51.29839       44.72407   14.43181  33.67423   31.5    0.28826  -21.79896  0.99981 
   -3.11362   0.0022  1.01982     14.36367  1.91289  1.35484   9.38798  0.14947     0.13994  14817.31928   4736.40869  1.77233         2033.76691     17.59138  0.00022  57325.91638  12.29529  0.02066   34610.52426  47.99428  22.48557  57370.38012    51.31945        44.7216   13.63005  32.07069   30.0    0.32338  -21.87002  0.99993 
   -2.67112   0.0204  0.84916     14.48453  1.87783  0.79479  15.39176  0.11633     0.02427  15930.70993   5554.47378   1.9861         2041.47805     16.00469    1e-05  57326.35888   23.3016  0.31398   13501.47872  48.55415  22.53193  57372.67397    51.31529       44.68027   16.03535  37.68307   29.5    0.30865  -21.94924  0.99941 
   -2.94623  0.10881  0.72076      14.6895  2.16283  0.73844   5.87488  0.24321     0.22901   16671.9351   7602.70794  1.25889         2015.25934     19.15469  0.00793  57326.08377   9.74088  0.63924    4359.46503  49.24885  22.47819  57370.38012    51.32619       44.71526   15.23358  32.87246   27.0    0.33806  -21.95941  0.99967 
   -4.30958  0.00191  1.13086     14.30166  1.65367  1.06327  10.54936  0.10581     0.06528  12874.99003    8832.5991  1.77577         2061.85762     17.28534  0.00011  57324.72042  10.43151  0.02016   48950.90505  47.69071  22.51831  57370.38012    51.36153       44.71154   13.63005  31.26893   28.0     0.2948  -21.70501  0.99988 
   -2.38431  0.00132  0.74629     14.31851  1.61948  1.20204   7.82744  0.14311     0.08068  12718.15703   4563.80112  2.01586         2151.14419       19.216  0.00914  57326.64569   7.55258  0.01032    19319.2671  48.44642  22.48869  57370.38012    51.21407       44.71384   13.63005  26.45832   30.0    0.33809  -21.81172  0.99998 
   -4.69826  0.04479  0.74167     14.35099   1.8284  1.13681  12.33838  0.14789     0.34119  14965.45407   8003.34958  1.27078         2059.77308     18.33098  0.00119  57324.33174   16.4841  0.55261   18549.32552  48.52216  22.47548  57370.38012    51.24205       44.71003   13.72008  28.77359   31.0    0.25828  -21.80146  0.99927 
   -5.20576   0.0084  0.74766     14.42725  1.95474  0.89212  15.10033  0.13722     0.11816  15140.77696   6669.52823  1.09643         2113.09977     17.47281  0.00017  57323.82424  20.64952  0.12684   14184.52778  48.66072  22.51913     57373.04    51.28694        44.7262   13.63005  32.07069   34.0    0.26182  -21.81435  0.99984 
   -3.76101  0.00185    0.979     14.23515   1.6021  1.43158   5.09063  0.24762     0.02137  13754.31063   8140.10988  1.68259          2127.3989      18.2042  0.00089  57325.26899   5.74482  0.00941   48281.37183  47.80819  22.53726  57377.26169    51.33839       44.67873   17.63888  40.08837   24.5    0.40298  -21.77287  0.99996 
    -4.0614  0.05952  0.73396     14.55773  1.52089  0.48909  13.21276  0.09747     0.01702  14857.46101   9541.94772  1.27582         2025.24577     19.32067  0.01163   57324.9686  17.39842  0.78639    5831.65914  48.95381  22.56892  57374.96783    51.33341       44.75434   15.23358  32.07069   23.0    0.35568  -21.85391  0.99859 
   -3.38893   0.0785  0.71482     14.51298  1.51871  0.55509  16.59959  0.07095     0.17429  13149.15583   7421.36185  1.49339         2093.38027     19.15968  0.00802  57325.64107  17.12065  1.30313     6787.6591  48.91021  22.51047  57370.38012    51.21305       44.70132   12.82828  28.06186   31.0    0.28162  -21.84804   0.9979 
   -2.51322  0.00949  0.76685     14.44206  1.82362  0.94414  19.26212  0.06566     0.08814  13126.78973   4597.26097    1.694         2190.67454     16.19709    1e-05  57326.51678  19.79924  0.18289   13003.14899  48.64631  22.49992  57372.67397    51.25206       44.70635   13.63005  29.66539   31.0     0.2929  -21.81091  0.99976 
   -1.70188  0.48125  0.71258     14.27005  1.47892  1.27641   5.20859  0.20123     0.02079  12221.46372   5996.64397   2.3405         2076.46521     19.15842    0.008  57327.32812   4.64081  2.50662   20106.53465  48.42978   22.4729  57368.08626    51.20111       44.68595   15.23358  26.45832   29.0    0.32821  -21.65367  0.99619 
   -5.30827  0.26694  1.10179      14.3094  1.80065  1.31215  10.15457  0.15019     0.15106  16405.55782   5083.33008  1.37341         2027.37412     16.25814    1e-05  57323.72173  16.30313  2.71062   48824.14084  47.75145  22.54347  57374.96783    51.33368       44.73638   16.03535  33.67423   35.0    0.30808  -21.88088  0.98738 
   -2.44943  0.02608  0.98528     14.37027  1.84197  1.33337   7.44203  0.16589     0.06029  14856.33975   5561.25752  1.76472         2119.53056     16.10487    1e-05  57326.58057    9.7981  0.19412   30176.90477  48.06733  22.49278  57372.67397    51.22236       44.72112   15.23358  27.26009   29.0     0.3169  -21.87715  0.99944 
   -4.54972  0.03818  1.10504     14.33282  1.58837  0.85659   6.31148   0.1993     0.45298  13734.63299   4911.78155  2.43522         2031.95505     19.20716  0.00895  57324.48028   7.10219  0.24094   38894.64036  47.79315  22.57255  57370.38012    51.26905       44.72828   13.63005  29.66539   32.5    0.29652  -21.75464  0.99853 
   -2.92159  0.04918  0.76349     14.33445  1.79572  1.55016  20.37649  0.07134     0.01004  14040.75257   6043.20836  1.69314         2121.12651     18.02268  0.00059  57326.10841  23.96279  1.00219   20833.50812  48.43872  22.49043  57370.38012    51.25119       44.72525   14.52185  29.57536   29.5    0.28577  -21.91197  0.99865 
   -6.76527  0.00198  1.15785     14.30045  1.79082  1.26655   5.17575  0.21685     0.38249  12810.21337   4159.99877  1.34051         2093.84172     16.12892    1e-05  57322.26473   5.06656  0.01025   55881.60444  47.64732  22.47322  57370.38012    51.36851       44.71891   13.72008  31.98066   32.0    0.31812  -21.53676  0.99994 
   -3.39583  0.14503  1.50116     14.45051   1.8051  0.77836   9.62762  0.04955     0.02808   9488.00286   8921.36011  2.28733         2212.09779     20.24166  0.09691  57325.63417   5.17006  1.39633   47440.09209  47.49635  22.47004  57370.38012    51.25428       44.75231   12.02651  27.26009   34.0    0.35199  -21.60209  0.98596 
   -4.21766  0.01148   0.8354     14.29601  1.62129  1.07472   7.64219  0.17642     0.41634  12593.88908   5912.98364   1.8836         2028.90486     17.84643  0.00039  57324.81234   7.23044  0.08775    26881.0793  48.20547  22.53297  57372.67397     51.2888       44.71821   13.72008  31.98066   33.0    0.28293  -21.70683  0.99978 
   -4.56805   0.0428  0.92416     14.34145  1.38987  0.61966   3.98161  0.30497     0.04551   12252.2947    6993.1565  1.64805         2165.83308     16.90092    4e-05  57324.46195    3.5655  0.17041   22876.45807  48.12093  22.52453  57370.38012    51.34458       44.71929   12.82828  33.67423   30.5    0.29933  -21.70383  0.99913 
   -2.79524  0.24581  0.80356     14.29142  1.62009  1.22627  11.06404  0.13419     0.08557  15260.25361   4313.42411  1.91578         2040.07725     16.37587    1e-05  57326.23476  15.36967  2.71963   25383.11085   48.2638  22.53026  57368.08626    51.27738       44.71473   13.63005  32.07069   34.0    0.29135   -22.0409   0.9943 
   -3.87046  0.26505  1.01312     14.51604   1.8038  0.91832  19.60694  0.04455     0.08172  13372.64947   7871.08649  1.42355          2179.7394     18.08165  0.00067  57325.15954  20.91568  5.19686   15968.13387  48.31046  22.50054  57370.38012    51.26791       44.68199   15.23358  32.87246   37.5    0.30671  -21.78085  0.98606 
   -4.56028  0.00194  1.06623     14.30345  1.65892  1.00428  13.21209  0.09683     0.03086  14760.93147   5825.17913  1.51191         2016.53558     19.05622  0.00632  57324.46972  17.17221  0.02564   43296.78909  47.79651  22.49135  57368.08626     51.2411        44.7394   11.24596  27.26009   29.5    0.32041   -21.8335  0.99987 
   -4.23174   0.1734  0.84027     14.37592  1.88532  1.45698  24.58208   0.0635     0.01099  14992.18241   5807.33378  1.25501         2159.30738     17.62595  0.00023  57324.79826  32.95911  4.26263   21887.36371   48.3552  22.55815     57373.04    51.23564       44.71589   16.03535  27.26009   32.5    0.29871  -21.87915  0.99313 
   -4.46259  0.00318  0.79156      14.4668  1.76184  0.73333  17.98918   0.0988     0.49272  16347.59214    4067.8305  1.12871         2017.25763     18.98662  0.00539  57324.56741  28.67782  0.05719   11943.83228   48.6407  22.47244     57373.04    51.29249       44.72073   15.23358  32.07069   30.5    0.31442  -21.88207   0.9999 
   -4.48253  0.00959  1.06505     14.13337  1.39373  1.35412   4.65269  0.20719     0.05629  11627.57616   5219.34557  1.99815         2148.47002     19.27965  0.01058  57324.54747   3.75241  0.04464    79430.5558   47.4583  22.48213  57368.08626    51.21864        44.6858   14.43181  28.86363   32.5    0.28918  -21.63378  0.99968 
   -4.43765  0.00549  0.86983     14.32299  1.76954   1.1953  14.89892  0.11199     0.12716   15539.9541   3144.86383  1.40187         2021.09689     16.49246    2e-05  57324.59235  21.46255  0.08185   28090.73621  48.18927  22.54978  57370.38012    51.35331       44.82108   14.43181  28.86363   31.0    0.30259  -21.85028   0.9998 
   -3.95122    0.004  0.86504     14.32793  1.87262  1.26557  20.49151    0.077     0.30858   13278.0571    5139.2977  1.67527         2068.45079     16.23851    1e-05  57325.07878  21.55114  0.08196   28739.64567  48.20874   22.5546  57372.67397    51.24803       44.71344   14.43181  30.46716   34.5    0.24188  -21.88379  0.99982 
   -1.95537  0.04489  0.86534     14.60607     1.83   0.5298  14.51714  0.10469     0.10996  13064.65861   6691.50166  2.23113         2069.13471      17.9281  0.00047  57327.07463  14.78102  0.65164    7807.12521  48.76444  22.52947     57373.04    51.31168       44.67851   15.38273  36.75336   35.0    0.23468   -21.8665  0.99857 
   -4.21021  0.10983  0.75289     14.59775  2.11825  0.82816  11.79114  0.11677      0.1923  14383.93181   7054.68068  1.13699         2205.73303     19.38921  0.01361  57324.81979  14.55252  1.29501    7108.31869  48.98959  22.52074  57370.38012    51.24967       44.72089   14.43181  28.86363   31.0    0.30176  -21.77642  0.99902 
   -4.57826  0.00176  0.87572     14.66974  1.97947  0.55568   18.2906  0.06966     0.24558  13703.35571   5848.45466  0.83191         2384.82938     17.59791  0.00022  57324.45174  20.48844   0.0321    6450.85661  48.87105  22.46334  57372.67397    51.25727       44.72737   13.63005  29.66539   30.5    0.32078  -21.68987  0.99994 
   -4.37773  0.02454  1.04297     14.35162  1.71514  1.15159  15.37264    0.059     0.25416  13781.81233   6968.49059  1.13554         2200.72091        17.25   0.0001  57324.65227   17.4176  0.37717    34310.7223  47.93117  22.49015  57370.38012    51.24028       44.71087   12.82828  30.46716   28.5     0.4036  -21.70044  0.99847 
   -3.65597  0.01836  1.02099     14.30004  1.63283  1.03155  12.56523  0.11555      0.0453   15081.7254   3378.69164  1.78159         2058.32228      18.5359  0.00191  57325.37403  17.04902  0.23065   39693.73919  47.86502  22.50426     57373.04    51.19129       44.71505   17.63888  24.05302   30.5    0.30473  -21.89138  0.99893 
   -5.04583  0.00535  0.77961      14.3623  1.66009  0.82356   8.74682  0.21961     0.02527  15526.24632   8369.30219  1.35876         2061.39069     17.83107  0.00038  57323.98417  12.57796  0.04677   17664.03418  48.45813  22.55702  57370.38012    51.23746       44.71377   12.82828  27.26009   25.5    0.34027  -21.80135   0.9999 
   -2.70657  0.04402  0.77958     14.33811  1.73075  1.47506  31.55303   0.0408     0.10984  13680.61658   7145.20416  1.62998         2198.06723     17.83829  0.00038  57326.32343  35.22731  1.38893    20585.5806  48.40979  22.53237  57370.38012    51.28672       44.69704   15.23358  31.26893   32.0    0.27817  -21.75602  0.99797 
   -2.71892  0.35353  1.07884     14.66104  1.68691  0.47319   8.44357  0.13554     0.34633  15114.80315   6401.61197  1.90781         2046.22383      17.7342   0.0003  57326.31108   11.5069  2.98508    8684.39645  48.49129  22.51981  57370.38012     51.2481       44.71664   12.82828  31.26893   34.5    0.29825  -21.82892  0.98681 
    -3.3027  0.00722  0.86413     14.35795  1.69574  1.08684   5.85782  0.18416     0.03045  12781.11772   4296.31684  1.20365         2259.25518     16.54597    2e-05   57325.7273   5.70822  0.04227   22616.88832  48.27061  22.53134  57372.67397    51.25284       44.71757   16.83711  28.06186   28.5    0.30863  -21.81548   0.9999 
   -6.14363   0.0017  0.82458     14.12692    1.477  1.08272   8.13839   0.2817      0.3742  15865.10539   4621.29177  0.88778         2402.65177     18.26086  0.00101  57322.88637  12.21945  0.01383   51979.89099  47.88992   22.4821  57368.08626    51.23062       44.77773   12.02651  24.85479   35.5    0.23798  -21.92258  0.99995 
   -2.80757  0.00249  0.92825     14.69585  2.13407  0.54337  20.50047  0.07858     0.03329  14307.90957   9754.16801  1.70563         2034.52453     18.71937  0.00291  57326.22243  25.03476  0.05107      6928.704  48.82207  22.55468  57370.38012    51.26849         44.689   14.43181    34.476   26.0    0.27888  -21.99465   0.9999 
   -3.98828  0.18763  1.18126     14.34732  1.83613  1.28959   7.39332  0.15531      0.0377  14517.34348   6981.25704  1.18177         2318.70421     17.61153  0.00023  57325.04172   9.29482   1.3872    48058.8687  47.70628  22.48227  57377.26169     51.3056       44.70808   15.23358  36.07953   29.0     0.3418  -21.87021  0.99273 
   -2.72808  0.24255  0.70694     14.42154  1.77385  0.88763  10.65754  0.15657     0.07474  14404.31453   4094.39279  1.64352         2061.89761     16.29433    1e-05  57326.30192  13.19074  2.58497   11814.35125  48.74658  22.56149  57377.26169    51.41078       44.71339   18.44065  42.49367   36.0    0.26903  -21.89168   0.9971 
   -5.79048  0.00637  1.35973     14.23797  1.45122  0.95291   6.01953  0.08568     0.02497   8931.12216   8008.48183   1.7257         2313.54715     19.41129  0.01432  57323.23952   2.86419  0.03834   83276.03042  47.24315  22.45494  57370.38012    51.32748       44.73762   12.04773  29.66539   32.5    0.32975  -21.32917  0.99955 
   -6.95446  0.21705  1.45702     14.28766  1.85943  1.54872   5.73067  0.17697     0.08913  13523.82376   5933.69171  1.70368         2000.46891     19.30265  0.01115  57322.07554   6.25218  1.24385   97457.87381  47.22248  22.52168  57368.08626    51.21144       44.67806   12.82828  30.46716   34.5    0.32238  -21.65159  0.98865 
   -7.82393  0.00219  0.71809     14.39585  1.82277   0.8042  18.30304    0.147     0.26759  18214.39666   4960.51551  0.29162         2415.97945      17.2678   0.0001  57321.20607  36.22263  0.04015   14099.65087  48.66801  22.53305  57370.38012    51.27279       44.69957   14.43181  32.87246   33.5     0.2689   -21.7671  0.99994 
   -5.14807  0.00211  0.95178      14.3162  1.66738   1.2446  20.42189  0.04862     0.14914  12778.43625    5375.2258  1.13547         2379.38343     18.87696  0.00418  57323.88193    19.892  0.04315    32698.4573  48.01928   22.5386  57370.38012    51.21956       44.69373   14.43181  28.86363   30.0    0.34867   -21.5456  0.99986 
   -1.96137  0.00518   0.7132     14.28566  1.67446  1.39181  18.49693  0.08522      0.0307  15022.62219   9400.09377  1.97964         2038.40438     18.47527  0.00166  57327.06863  24.90109  0.09588   21222.73714   48.4595  22.52356  57370.38012    51.30209       44.71574   13.63005  32.87246   26.0    0.28813  -21.95732  0.99987 
   -2.87279  0.02829  0.78611     14.42004  2.00961  1.45474  46.07575  0.02565     0.23464  12725.50923   9057.88015  1.26773         2292.52815     16.72271    3e-05  57326.15721  44.50921  1.30332   16665.82294  48.55916  22.54361  57370.38012    51.27444       44.71601   13.63005  32.07069   29.0    0.26873  -21.88935   0.9986 
   -3.14274  0.06473   0.7678     14.40893  1.40856  0.58487   9.00696   0.1776     0.04313  16520.74492   8934.25595  1.49206         2018.66626     18.26184  0.00102  57325.88726  14.66441  0.58301    11727.7922  48.57791  22.45747  57370.38012    51.25426        44.7299   12.82828  29.66539   25.5    0.31068  -21.97884  0.99842 
   -2.74557  0.02908  0.86398     14.41971  1.95491  1.02487   8.95622   0.1703     0.08226   14033.5197   7181.05213  1.41686         2200.34557     17.07723    7e-05  57326.28443  10.52168  0.26044   19612.68964  48.39443  22.54322  57372.67397    51.28237       44.69778   14.43181  32.07069   32.0    0.26704  -21.87446  0.99951 
   -2.63794  0.00171  0.71551     14.29729  1.58228   1.4788   5.45617  0.18398     0.24294  12901.52933   9195.58866  1.50274         2296.18993     16.98862    5e-05  57326.39206   5.41748  0.00931   19131.74392  48.47714  22.51381  57370.38012    51.35545        44.7502   12.82828  30.46716   25.0    0.36142   -21.6895  0.99999 
   -3.08144  0.00463    0.902     14.34028  1.67678  1.32583  23.63873  0.03932     0.11054  12111.69634    9900.9002  1.70655          2204.7649     16.52563    2e-05  57325.94856  20.68527  0.10946   26432.46961  48.16078    22.468  57370.38012    51.26412       44.76305   13.63005  26.45832   25.0    0.34174  -21.62759  0.99972 
   -2.78424  0.01943  0.84039     14.36174  1.80561   1.1148  19.95997  0.07983     0.02166  16109.56603   5973.88813  1.23996         2050.86637     17.02046    6e-05  57326.24576  30.89973  0.38791   22383.77085  48.32657  22.46766  57370.38012    51.26447       44.77739   13.63005  25.65656   29.0    0.31689  -22.08849  0.99923 
   -2.21703  0.01856  0.82089     14.41736  1.84137  1.07069  14.31548  0.09025     0.02839   13913.1442   5175.22501  1.53538         2172.76595      16.9497    5e-05  57326.81297  16.53041  0.26574   16857.94932  48.47861  22.51157  57370.38012    51.33644       44.70222   16.03535   36.8813   30.5    0.30479  -21.77725  0.99958 
   -4.99436  0.23472   1.2152     14.38641  2.06526  1.23057   4.86665  0.31823     0.06373  15229.70044   6432.14705  1.26063         2111.67099     17.87182  0.00041  57324.03564   6.73349  1.14232   47782.09229  47.73526  22.53942     57373.04    51.36447       44.71869   13.63005  32.07069   30.0    0.31482  -21.85622  0.99451 
   -5.01049  0.04995  1.26787     14.22258  1.57413  1.49144  12.82284  0.06902     0.01301  11027.78192   3273.82906  1.98421         2281.76821      18.4834  0.00169  57324.01951   9.30225  0.64049   84301.51256   47.3339  22.57302  57370.38012     51.2381       44.75402   12.02651  27.26009   32.0    0.29757  -21.52216  0.99451 
  -10.90197  0.04424  2.55874     14.10399  1.51345  0.89184    3.1135  0.11699     0.10025  12357.96078   5568.70833  0.94067         2118.76117      18.1614  0.00081  57318.12803   2.83641  0.13775   569969.1894  45.87691  22.54101  57370.38012    51.21423       44.69478   15.23358  28.06186   41.0    0.36848   -21.5849  0.99419 
   -3.51349  0.43665  0.91054     14.47822  2.11276  1.12711   8.81186  0.19261     0.01561  15436.41295   7352.24238  1.53417         2048.86535     17.07786    7e-05  57325.51651  12.52528  3.84771   17981.12928  48.42028  22.44986  57368.08626    51.32572       44.71909   12.82828  28.86363   28.0    0.33774  -21.95515  0.99363 
   -3.78275  0.02361  0.82655     14.27533  1.59345  1.18728  24.69459  0.05304     0.01898  13917.56775   4340.20264  1.40712         2081.35172     16.37853    1e-05  57325.24725  28.53354    0.583   28446.67034  48.18261  22.52427  57370.38012    51.24665       44.72513   12.82828  29.66539   31.0    0.30375  -21.91844  0.99855 
   -3.11256  0.00405  0.79966     14.29091  1.51762  0.91541  22.62012  0.06146     0.01268  13623.47194   9058.04108  2.01143         2149.16952      19.1287  0.00747  57325.91744  25.04365  0.09167   23602.79723  48.27124   22.5009     57373.04    51.29194       44.68047   13.65126  33.67423   26.5    0.29717  -21.86229  0.99976 
   -5.12935  0.01537  0.73752     14.36629   1.4759  0.72687   6.08524  0.25556     0.02273   14733.2686   3711.91964  1.55707         2062.78049     16.97172    5e-05  57323.90065   7.87958  0.09353   13798.87579  48.56251  22.48704     57373.04    51.32008       44.71312   14.43181  36.07953   26.0    0.39094  -21.65959   0.9998 
   -4.30426  0.01723  0.71888     14.54069  1.78764  0.56154   8.39039  0.22825     0.21788  13456.88078   6258.22648  1.76041         2063.26685      18.4147  0.00144  57324.72574   9.06355  0.14458    7112.54865  48.95579  22.50081  57370.38012    51.24874       44.73665   13.63005  28.06186   36.0    0.21793  -21.83275   0.9998 
   -3.44291  0.02384  1.00614     14.60125  1.77025  0.48628  14.26812  0.09353     0.05471  14200.60234   8134.10133  1.52867         2073.96709      18.6584  0.00253  57325.58709  17.16356  0.34013   10439.31385  48.49289  22.50543  57370.38012    51.25462        44.7326   12.02651  30.46716   29.5    0.29106  -21.92652  0.99868 
   -2.41789  0.00916  0.70697     14.42031  1.96589  1.27055  10.23349  0.14647     0.02578  14466.43425   6817.66678  1.43345         2167.82391     17.51008  0.00018  57326.61211  12.77539  0.09377   13169.48849  48.74403  22.54531  57372.67397    51.28574       44.69656   15.23358  33.67423   28.5     0.3002  -21.95528  0.99993 
   -4.16411   0.0052   0.8598       14.366  1.60251  0.83345  16.74331  0.04127     0.01303   7948.69671   5183.40707  1.56775         2618.81228     17.73188   0.0003  57324.86589   6.31045    0.087   20389.23613  48.29545  22.44639     57373.04    51.27289       44.73899   14.52185  27.97182   36.0    0.25179  -21.45657  0.99975 
    -4.4862  0.00121  1.23604     14.35796  1.47391  0.71524    9.0809  0.10722     0.01997  14264.84275   3247.95275   1.4696         2156.55344      17.0136    6e-05   57324.5438  11.02275  0.01102   40219.64106  47.64881  22.48924     57373.04    51.29733        44.7174   14.43181  33.67423   26.0    0.41098  -21.74593   0.9999 
   -3.60829  0.10474  1.23012     14.44354  1.88816  1.08859  17.85325  0.04565     0.11006  11622.17829   7215.57415  1.72498         2071.67107     18.45704  0.00159  57325.42171  14.38532  1.86997    34408.4199  47.82833  22.43285     57366.04    51.22871       44.74027   12.82828  25.65656   33.5    0.30861  -21.58984  0.99046 
   -2.71932  0.30442  0.97557     14.50366  1.97462   0.8083  10.16064  0.17662     0.04023  16139.53687   4629.25337  1.53323         2035.88513     18.09834   0.0007  57326.31068  15.78812   3.0931   17159.20979  48.35131  22.52659  57377.26169    51.39902       44.70278   19.24242  43.29544   33.5    0.25118  -22.00106  0.99185 
   -3.58938  0.00143   0.8332     14.44786  1.98775  1.16549     7.318  0.14532     0.06668  11268.24454    8200.8801  1.51995         2307.31884     19.10189  0.00702  57325.44062   5.54283  0.01048   16291.32489  48.51375  22.48725  57370.38012    51.25831       44.72098   12.82828  31.26893   29.5    0.29494  -21.64795  0.99999 
   -5.40143  0.06201  0.72578     14.37143  1.93887  1.52653  13.81631  0.10436      0.0774  12766.70831   7169.49072  1.00353         2404.40975       17.717  0.00029  57323.62857  13.43313  0.85681   17143.63272  48.60068  22.50918  57368.08626    51.26151       44.71165   14.43181  30.46716   34.0    0.27357  -21.56462  0.99917 
   -7.44386  0.10346  1.53961     14.39019  1.90595   0.8501   8.55328  0.15744     0.03695  14623.01278   5116.97942  1.37502         2139.47347     17.07408    7e-05  57321.58614  10.91022  0.88488   69560.88968  47.33177  22.47911  57372.67397    51.27205        44.7086   14.43181  30.46716   31.5    0.31494  -21.75226  0.99102 
    -3.7185  0.01503  1.17033      14.4813  1.96714  0.96288   15.2275  0.07166     0.01146  14519.00981   9522.35726  1.31765          2262.5545     16.63709    2e-05   57325.3115  19.14827  0.22887   27268.80393  47.99039  22.66959  57377.26169    51.34829       44.69526   20.84595  38.48483   22.0    0.37223  -21.80086  0.99902 
   -4.24949  0.00679   1.0934     14.26055  1.57186  1.37046   8.84312    0.096     0.02126  13215.48527   6167.43491  1.09809         2236.50058     18.42427  0.00148  57324.78051   9.21295  0.06007   52563.53413  47.66702  22.55987  57372.67397     51.3232       44.72447   15.23358  32.87246   26.5    0.42178  -21.66378  0.99966 
   -3.12209  0.00542  0.71846     14.36791  1.82658  1.36348   7.26486  0.20569     0.03211  15421.31172   8299.92854  1.17776         2183.08016     17.04153    6e-05  57325.90791  10.30617  0.03939   16085.95371  48.61123  22.50285  57370.38012     51.2548       44.73753   14.43181  28.06186   25.0    0.31345  -21.87703  0.99996 
   -5.15218  0.01933  1.09085     14.25914  1.72827  1.56928   6.48203  0.22672     0.05459  16701.46552   7473.73619  0.66378         2615.45818     17.57302  0.00021  57323.87782  10.78568   0.1253   57899.84436  47.66825  22.59238  57370.38012     51.2631       44.72561   15.23358  29.66539   26.5    0.37305  -21.88608  0.99937 
