 texplosion  fnickel    Pspin  log(Bfield)      Mns  thetaPB  mejecta    kappa  kappagamma     vejecta  temperature    alpha  cutoff_wavelength  log(nhhost)      A_V         MJD0  kenergy  mnickel            TSD   log(L0)  Peak_mag     Peak_MJD  log(E_rad)  log(Peak_lum)  Rise_Time    E_fold  tau_1  delta_m15     r_peak     frac 
  -10.21628  0.03772  8.43052     14.36952   1.8014  0.84068  9.59498  0.03091     0.02057  6981.18847   6814.27068  1.27615         2459.17281      16.8957    4e-05  58533.27372  2.78952  0.36194  2168126.69815  44.33666  19.56789      58575.3    50.53079       43.80598   26.41839  38.83288   55.0    0.25224  -20.14578  0.88356 
  -11.18573  0.00184  6.32471     14.00212  1.32346  1.46368   2.2647  0.13794     0.10504  7155.53294   7416.85018  0.53908         2995.50685     17.61293  0.00023  58532.30427  0.69171  0.00418  4868243.14031   44.1011  19.54097  58576.39689    50.50737       43.77317   26.41839  45.30503   50.5    0.25879  -20.17966  0.99864 
  -11.72227  0.00349  7.39345     14.22459  1.64835  0.89299  3.34375  0.09563     0.05377   7063.1963   7151.38787  0.65204         3044.85528     19.62971  0.02368  58531.76773  0.99509  0.01167  2974300.51672  44.27482  19.55998      58575.4     50.4626       43.68862    30.1863  45.85188   51.5    0.25342  -20.19568  0.99626 
   -9.72346  0.00795  8.38297     14.25943  1.76799  0.88216  3.09645  0.10405     0.05645  6891.63701   7009.41358   4.7011         2766.83782     16.30887    1e-05  58533.76654  0.87728  0.02462  3493244.30753   44.1263  19.53925     58574.46    50.49024       43.74043   27.45262   44.2708   55.0    0.25392  -20.17519  0.99083 
  -10.83406  0.01706  9.36227     14.27872  2.09234  1.31609  4.63865  0.07594     0.03551  7370.10119   6723.48292  3.35954         2633.40855      16.7964    3e-05  58532.65594  1.50302  0.07912  4718225.90198  43.97294  19.54607  58576.57603    50.52299       43.78166   28.04597  41.99607   52.5    0.25238  -20.20163  0.97207 
  -10.76344  0.00803  7.01744     14.07559  1.50663  1.21817  3.66613  0.07624     0.04282  7381.07533   6971.20009  0.98716         2257.71427     16.25333    1e-05  58532.72656  1.19145  0.02943  4864100.55216  44.06749  19.55658      58575.4    50.52162       43.78968   26.41839  41.99607   51.5    0.24547  -20.17099   0.9903 
  -11.49041  0.01544  7.10243     14.26542  1.55481  0.82819  3.47372  0.10584     0.07859  6974.57671   6961.48538   1.1509             2509.7     16.76205    3e-05  58531.99959  1.00799  0.05364  2145207.03047  44.42624  19.54712      58575.4    50.52133       43.80152   26.41839  40.99026   51.0    0.26517  -20.17116  0.98304 
  -11.54805  0.02312  8.65064     14.28478  2.01334   1.3783   4.2926  0.07427      0.0478  7476.45096   7008.18952   0.0294         2211.31354     16.92249    5e-05  58531.94195  1.43133  0.09925  3769457.91361  44.12239  19.54315      58575.3    50.54056       43.81636   24.26101  40.70518   50.5    0.26512  -20.18507  0.96875 
   -11.4504  0.01635  8.78649     14.36075  2.03402   0.9098  3.97326  0.07916     0.04656  7252.13456   6977.66408  2.26082         2058.99794     16.96194    5e-05   58532.0396  1.24654  0.06496  2768893.97287  44.24726  19.57101      58575.3    50.52565       43.80539   26.41839  40.99026   52.5     0.2446  -20.17505   0.9789 
  -11.06942  0.01676  7.45726     14.30928  1.65366  0.80461  5.88136  0.05191     0.06079  7257.87894   6525.88888  0.14932         3492.82738     16.03603    1e-05  58532.42058  1.84809  0.09854  2055208.73388  44.42928  19.57355     58575.34    50.71511       43.89655   23.94474  44.95059   54.0    0.27996  -20.18073  0.96909 
  -11.52254  0.01234  8.23463     14.20816  1.75481  1.40576  4.21775  0.10921     0.05001  7273.87544   7100.02832  3.19772           2851.533     18.17995  0.00084  58531.96746  1.33119  0.05205   4236482.2937  44.05478  19.55811      58575.4    50.51593        43.7699   28.04597  42.74751   48.5    0.25581  -20.20445  0.98149 
  -10.14757  0.09067   8.6113     14.30601    1.883  0.93995  2.28224  0.14524      0.0793  7701.36427   6836.28468  4.90553         2007.14282     17.38019  0.00013  58533.34243  0.80746  0.20693  3167963.26991  44.17278  19.52887      58575.3    50.53279       43.78427   28.04597  40.99026   51.5    0.25302  -20.19965  0.93094 
  -11.88549  0.04697  6.11564     14.08644  1.28843  1.12891  5.71509  0.06481     0.04045  7293.98073    7128.1815  0.10273         2089.59083     18.32141  0.00116  58531.60451  1.81376  0.26842  3005282.17198  44.32814   19.5529     58574.46    50.52341       43.79366   26.41839  41.83743   48.5    0.27962  -20.19554  0.92209 
  -11.51324  0.00244   7.2816     14.14096  1.59723  1.22957  3.56563  0.09215     0.05622   6849.0763   7011.64317  2.24197         2227.74045     18.51473  0.00182  58531.97676  0.99776  0.00869  4108908.32716  44.13403  19.56267      58575.4    50.54178       43.83847   24.26101  39.24946   53.0    0.24557  -20.14931  0.99717 
  -12.02705  0.02103  7.12451     14.14742  1.57834  1.11644  3.59101  0.08715     0.05554   7312.3322   6670.91347  0.13721         2136.39237     16.19995    1e-05  58531.46295  1.14539  0.07553  3773053.77098  44.18484  19.54785  58576.57603    50.53646       43.75132   29.15534  44.19566   52.5    0.25472  -20.18299  0.97653 
  -11.48531  0.02912   8.4931     14.43586  1.80296   0.6574  8.95657  0.03991     0.02116  6830.53261   6637.37929  1.21604         3177.55956     17.70325  0.00028  58532.00469  2.49275  0.26085   1622599.6349  44.45649  19.55379      58575.4    50.56165       43.83635   25.88859  38.83288   54.0    0.25436  -20.17037  0.91191 
  -11.10185  0.00773  7.50388     14.12951   1.6751  1.55521  3.75511  0.08625     0.06259  7862.08255   6841.16455  0.18837         2044.98207     16.86852    4e-05  58532.38815   1.3846  0.02901  4824076.55477   44.0589  19.54796      58575.3    50.54035       43.80749   26.41839  40.99026   51.5    0.26185  -20.22034  0.99069 
  -11.43578  0.00559   7.6127     14.19878  1.67415  1.07888  4.46451  0.07636     0.04633  7170.34161   6777.79647  0.57603         3342.70249     19.23414  0.00953  58532.05422  1.36924  0.02498  3606914.87592  44.17243  19.55141      58575.3    50.50366       43.73254   29.88173  43.46926   52.0    0.25655  -20.19537  0.99176 
  -10.11645  0.02054  7.75638     14.23413  1.64085  0.87301  5.32795  0.06134     0.03319  7438.78854   6849.01392  4.33618          2227.1575     16.17439    1e-05  58533.37355   1.7587  0.10945  3118499.25573  44.21065  19.55205      58575.3     50.5471       43.83816   24.26101  39.24946   52.5    0.25678  -20.18209  0.96232 
  -12.37249  0.04234  8.11198       14.263  1.81827  1.24021  6.18451  0.05951     0.03809  7341.86884   6902.24015   0.0809         3044.86299     16.34159    1e-05  58531.11751  1.98859  0.26182  3309199.91868  44.19053  19.53103      58575.4    50.54052       43.83057   24.26101  39.24946   51.0    0.25599  -20.18666  0.92003 
  -21.31695   0.0939  6.33178     14.57141  1.38659  0.32208  7.36526  0.05896     0.04075  5749.09448   4489.76519  0.04699         4201.04733     19.08717  0.00679  58522.17305  1.45216  0.69161   371536.94268  45.23774  19.55292     58574.37    50.51056        43.6202   34.51812  56.84303   61.5    0.19379  -20.08567  0.82696 
  -12.00073   0.0061  6.36932     14.15167  1.29755  0.74029  6.94019  0.05273     0.02712  7014.87508   6999.15874  1.37825         2877.94733     16.23727    1e-05  58531.48927  2.03722  0.04236  2430999.88701    44.388  19.59349  58576.39689    50.60235       43.80048   29.67441  43.67659   51.0    0.24551  -20.18131  0.98574 
  -11.51944    0.003  8.03995     14.45701  1.84446  0.59505  6.41428  0.04686     0.03885   7199.4335   7001.21892  0.62575         2239.66738     16.73351    3e-05  58531.97056  1.98322  0.01924  1349512.69801  44.59403  19.54897     58574.46    50.50766       43.76749   28.04597  43.14764   53.5    0.26501  -20.16823  0.99387 
  -15.06048  0.07249  8.15899     14.68861  1.66367  0.27068  8.51982  0.04954      0.0424  7329.95147   4258.77088  1.14729          2790.5887     18.74717   0.0031  58528.42952  2.73061  0.61761   431451.80468  45.03171  19.54334      58575.3     50.5287       43.76882   28.04597  43.14764   59.0    0.21682  -20.19701  0.80587 
  -11.62551   0.0023  7.49598     14.13322   1.6719  1.42875  3.82218  0.08263     0.05468  7182.11657   6794.27826  0.59069         2572.35041     17.64333  0.00024  58531.86449   1.1761   0.0088  4723308.34553  44.06815  19.56563      58575.3     50.5384       43.82107   25.88859  40.84936   53.5    0.24816  -20.17297  0.99716 
    -11.778  0.03795  7.27806     14.19524  1.58816  1.05894   3.1252  0.11434     0.06923  7190.14774   6719.62325  1.31214         2041.26078     16.51165    2e-05    58531.712  0.96378  0.11861  3178829.43938  44.24344  19.53452      58575.3     50.5357       43.80175   26.41839  40.99026   51.5    0.26247  -20.16945  0.96257 
  -10.59683  0.02654  7.08168     14.19975    1.562  1.00242  3.11402  0.09374     0.15974   7205.8472   7087.71849  0.46287         2315.91107     17.74207  0.00031  58532.89317  0.96454  0.08263   2899168.5064  44.29998  19.54132  58576.57603    50.50824       43.71871   30.20335  45.30503   53.0    0.27137  -20.17562   0.9744 
  -11.40146  0.01056  8.26315     14.37345  1.91658  0.80105   8.9976  0.03157     0.02237  7331.50251   6780.30827  0.26703         2182.05398     18.30401  0.00112  58532.08854  2.88496  0.09504  2176343.60369  44.37935   19.5635     58574.39    50.55291       43.83956   24.26101  40.99026   53.5    0.25486  -20.18393   0.9705 
  -11.47525  0.00859  8.13402     14.13381  1.79879  1.38219  7.46824  0.04053       0.046  6850.81825   3354.84037  2.06606         2793.23343      19.2964  0.01099  58532.01475  2.09089  0.06417  5967298.25597  43.92744  19.53688      58575.4    50.51985       43.78761   26.41839  42.74751   60.0     0.2244  -20.17548   0.9783 
  -12.86204  0.06831  8.03336     14.23872  1.76004  1.34607   5.3187   0.0762     0.04188   7400.6412   6992.99851   0.1539         3057.34091     18.60819  0.00225  58530.62796  1.73769  0.36334  3513186.49324  44.15887  19.57076     58574.46    50.52769        43.8087   26.41839  38.83288   50.5    0.25126  -20.19524  0.88958 
   -10.7609  0.00497  6.87876     13.98028  1.42538  1.55422  9.03501  0.03062     0.05318   6884.4103   3188.08046  3.30351         2455.66343     18.28737  0.00108   58532.7291   2.5544  0.04492  6858065.06095  43.91155  19.54395    58573.813     50.5112       43.77608   26.41839  43.14764   60.5    0.23675  -20.14846  0.98451 
  -11.56452  0.00346  7.70421     14.16651  1.68828  1.37845   4.9385  0.08083      0.0473  7137.01613   7149.40295  1.73841         2682.79871     16.92892    5e-05  58531.92548  1.50057  0.01708  4322055.33015  44.08714   19.5668      58575.4    50.53197       43.78555   28.04597  40.99026   50.0    0.25201  -20.18882  0.99429 
    -12.353  0.01116  6.57519     14.22422  1.42444  0.69923  3.74576  0.08656     0.05018  7302.33738   6931.21424  0.29067         2167.82205     18.55226  0.00198    58531.137  1.19149  0.04179  2036243.44238  44.47784  19.54483      58575.4    50.53477       43.79391   28.04597  40.99026   51.0    0.25946   -20.1854  0.98696 
  -13.28068  0.00273  6.47895     14.16365  1.41139   0.8234   5.3991  0.06169      0.0372  7127.93763    6884.2303  0.30977         2437.91673     18.21059   0.0009  58530.20932  1.63635  0.01473  2589231.26016  44.38231  19.54578  58576.57603    50.52469       43.79119   28.04597  40.99026   52.0    0.25617  -20.17862  0.99544 
  -12.15004  0.00835  7.41354      14.3799  1.63337  0.64072  5.23151  0.06943     0.07278   6842.2383   7050.75845   1.1287         2659.16745     17.90125  0.00044  58531.33996    1.461  0.04368   1449284.4735  44.58073  19.55275      58575.4    50.52525       43.80328   26.41839  40.99026   52.5    0.25872  -20.16038  0.98596 
  -11.69228  0.00104  6.33545     13.97332  1.30571  1.38248  2.77644  0.11699       0.093  7183.94618   6912.81075  1.16841         2616.70345      17.0685    7e-05  58531.79772  0.85476  0.00288  5502611.15111  44.04057  19.55639     58574.35    50.50449       43.75495   27.45262  46.42818   55.0    0.24952  -20.17233  0.99903 
  -11.15784  0.00442  8.14151     14.08995  1.71056  1.48043  4.92607  0.06103     0.05009  6296.89641   3320.07685  3.53128          3135.1591     19.43004  0.01495  58532.33216  1.16515  0.02176   6957597.5636  43.83811  19.53633      58575.3    50.54107       43.83407   24.26101  39.24946   60.5    0.23421  -20.16412  0.99189 
  -12.40661    0.013  6.41622     14.05823  1.38839   1.1198  4.30944  0.07259     0.04354  7332.26243   6919.90422  0.15275         2027.53765     19.19702  0.00874  58531.08339  1.38205  0.05602  4059049.76352  44.18837  19.58616      58575.4     50.6243       43.85322   25.88859  39.24946   51.5    0.24904  -20.19307  0.98277 
  -12.11324  0.09512  8.10695     14.48293  1.97101  1.03951  6.47116  0.09187     0.28912  7089.14479    6896.6596  1.85997         2415.90718     19.89613  0.04374  58531.37676  1.93998  0.61551  1301264.61481  44.63145  19.54134      58575.4    50.54509       43.82534   25.88859  39.24946   48.0    0.24146   -20.2292  0.84886 
  -11.78405  0.03214  7.38436     14.34007  1.67515  0.76217  2.73496   0.1238     0.11582  7110.37746   6893.66837  0.02168         2507.39745     17.75468  0.00032  58531.70595  0.82483  0.08789  1771598.49629  44.50791  19.55374      58575.4    50.55317       43.82748   25.88859  40.70518   52.0     0.2612  -20.16738  0.97341 
  -11.62338   0.0098  6.21967      14.0968  1.28242  0.79888  4.74565  0.06969     0.03892  7336.56092    6767.3502  1.14424         2389.78766     18.90817   0.0045  58531.86662  1.52373  0.04651  2949708.28704  44.31956  19.55584      58575.4    50.53115        43.7783   28.04597  41.99607   52.5    0.25203  -20.18483  0.98478 
  -11.79058  0.00172  7.39702      14.1865  1.64942   1.1188  8.57318  0.03808     0.02708  6860.32656   7197.81717   1.1147         2406.21943     17.54336  0.00019  58531.69942   2.4069  0.01475  3550198.70376  44.19781   19.5555      58575.4    50.53732        43.8044   25.88859  43.14764   52.5    0.24804  -20.15397  0.99529 
  -12.41763  0.03145  7.34592      14.2523  1.59452  0.78162  4.90263  0.07359     0.03333  7688.56748   6803.99441  0.22067         2356.87808     17.52172  0.00018  58531.07237  1.72881  0.15417  2499999.64062  44.34144  19.54088      58575.4    50.51306       43.77183   26.41839  45.30503   49.0    0.25064   -20.2088    0.951 
  -20.06488  0.01269  6.58294     14.67193  1.53425  0.23535  7.35274  0.05175     0.07441  6204.88539   3840.79181  0.04524         2663.68329     19.29643  0.01099  58523.42512  1.68867  0.09327   279700.76322  45.37121  19.56323  58576.39689    50.55958       43.85036   24.26101  38.83288   60.0    0.20563   -20.1354  0.97416 
  -11.36998  0.00204  7.09905     14.09541  1.54817  1.34421  6.86508  0.04364     0.02834  7272.38541   6955.11952  0.68677         2437.74943     17.82517  0.00037  58532.12002  2.16584  0.01402  4668871.70142  44.08705  19.55242     58574.46    50.54528       43.84227   24.26101  39.24946   52.5    0.25452  -20.17488  0.99546 
  -13.43632  0.02978  7.40673     14.32747  1.65748  0.75754  7.77413  0.04743     0.02196   7277.6965   6765.17075  0.22415         2279.38388     16.11761    1e-05  58530.05368  2.45622  0.23154  1868871.34904  44.47746  19.56509      58575.4     50.5397       43.81896   25.88859  40.99026   49.5    0.25445  -20.20223   0.9314 
   -11.4003  0.01146  7.38642     14.24935   1.5741   0.8538  7.76324  0.04502     0.02753  6985.85695   6733.22274  0.60608         3544.47593     17.84823  0.00039   58532.0897     2.26  0.08897   2529361.6126    44.326  19.55163  58576.39689    50.53259       43.80532   26.41839  38.83288   51.5    0.25715  -20.18174   0.9704 
  -11.57276  0.02239  6.32162     14.09661  1.30786  0.87144  5.11015  0.06133     0.04079  7400.28634    6508.2612  0.29221          2992.0441     18.61365  0.00228  58531.91724  1.66939  0.11442  3110414.38148  44.29093  19.53974      58575.4    50.54475       43.81124   28.04597  38.83288   53.5    0.26675  -20.19112  0.96334 
  -10.17485  0.00415  7.40845     14.11263  1.58882  1.13028   3.3718  0.08503     0.05043  7470.57504   7038.82909  4.48089         2122.78129     19.13805  0.00763  58533.31515  1.12253    0.014  4820380.40991  44.04738  19.54372      58575.3    50.51354        43.7627   27.45262   44.2708   53.0    0.25459  -20.18133  0.99521 
  -10.30689  0.00125  8.31891     14.36638  1.89423  0.80034  4.00165  0.07479     0.05904  7226.93943   6997.69391  1.16128         2434.42675     16.28555    1e-05  58533.18311  1.24674  0.00502  2252299.36054  44.35352  19.55312      58575.3    50.53031       43.80371   28.04597  40.99026   53.0    0.25892  -20.17381  0.99835 
  -11.37801  0.00701  7.50032     14.24323  1.67905  0.95255   3.1676  0.09507     0.07538  7134.74843   6794.09053  0.27606         3092.91539     17.65369  0.00025  58532.11199  0.96187   0.0222  2861460.72051  44.28716  19.55115     58577.42    50.57767       43.82188   29.57653  43.14764   53.0    0.26908  -20.17143  0.99292 
  -11.34845  0.07702  6.64012     14.05601  1.32106  1.29157  5.04449  0.07599     0.04627  7559.53563   6419.38485  0.74306         2691.34132     17.12836    7e-05  58532.14155  1.71963   0.3885  4178905.52355  44.12435  19.53361  58576.39689    50.55518       43.83347   25.88859  40.84936   53.0    0.25983  -20.20978  0.87742 
  -11.64692  0.01073  6.55994     14.20247  1.43607  0.84094  3.85026  0.08371     0.38857   7048.7808    6956.4381  0.43557         2437.42551     16.93819    5e-05  58531.84308  1.14116  0.04131  2258674.17634  44.43837  19.55854      58575.4    50.54277        43.8129   25.88859  43.14764   52.0    0.27005  -20.17385  0.98739 
  -12.70359  0.01405   7.5679     14.38977  1.73788  0.68429  3.77863   0.0751     0.03809  6036.29816   7359.70029   0.2958         4783.69718     16.86164    4e-05  58530.78641   0.8213   0.0531  1535502.43551  44.56466  19.55605  58576.39689    50.54832       43.81101   28.04597  40.99026   52.0    0.25149  -20.13881  0.98384 
  -10.23048  0.07006  8.16854     14.22301  1.63412  1.15975  3.72206   0.1063     0.06333   6721.4748    6908.5302  2.58615         3068.00422     17.91703  0.00046  58533.25952  1.00309  0.26076  3625516.93307  44.09847  19.53546      58575.4    50.52815       43.78827   28.04597  41.99607   53.0    0.25682  -20.16587  0.90634 
  -10.71767  0.03337  8.16691     14.36706  1.77397  0.73373  4.31615  0.07904     0.04879  7213.03301   7039.68391  2.71742         2417.05805     17.77832  0.00033  58532.77233  1.33955  0.14404  2026563.02201  44.38692  19.54392      58575.3    50.55165       43.73929   29.84833  49.97481   52.5    0.25115  -20.18724  0.95184 
  -12.22249  0.01714  7.55514     14.40953    1.747  0.65328  6.02095  0.05108     0.03054  6954.65335    6902.3837  0.06422         2803.87832     17.10337    7e-05  58531.26751  1.73717  0.10319  1404511.93793  44.60713  19.54314     58574.46    50.56313       43.85508    25.6763  39.20848   51.5    0.25895   -20.1675  0.96941 
  -10.58497  0.06883  7.64048     14.25742   1.6299  0.86657   2.9753  0.10814     0.06542  7125.33148    6887.0752  3.75637         2159.02202     17.44587  0.00016  58532.90503  0.90109  0.20479  2700063.16561  44.28339  19.57107  58576.57603     50.5865       43.80982   28.04597  40.99026   54.0    0.24491  -20.17612  0.93331 
  -13.36237  0.06704  9.59922     14.80357  1.97504  0.29896  8.93231  0.05094     0.04982  7028.15803   4108.67394  4.34308         2619.80247     18.30779  0.00113  58530.12763  2.63193  0.59886   417568.74906  44.97922  19.55054     58574.35     50.5231       43.77299   28.04597  42.78091   58.0    0.21205    -20.177  0.80099 
  -11.15779  0.01369  7.47492     14.25535  1.62316  0.82349  8.55084  0.03602      0.0211  7253.81473    6916.8644  1.32133         2147.78247     17.92063  0.00046  58532.33221  2.68392  0.11705  2598294.17375  44.31731  19.54368     58574.46     50.5123       43.77904   26.41839  41.83743   52.5    0.25402  -20.16795   0.9621 
  -13.00829  0.02027   7.4102     14.29749  1.67353  0.79013  4.77688  0.06294     0.03945  6859.59845   6646.90293  0.27949         2791.41485     16.49682    2e-05  58530.48171  1.34081  0.09683  2168378.87676  44.41668  19.52737      58575.4    50.53832       43.80261   28.04597  38.83288   54.0    0.24525  -20.15788  0.97043 
  -11.05404  0.02648  7.46747     14.23018  1.64302  1.02733  3.55173    0.092     0.46072  7239.25091   6450.89883  0.88268         2292.87612     16.86008    4e-05  58532.43596  1.11033  0.09403  2947393.06614   44.2687  19.54743     58574.46    50.50211       43.75743   26.41839  45.30503   54.0    0.27012   -20.1741  0.97009 
  -11.20505  0.00476  7.62349     14.13003  1.62823  1.09951  2.37665   0.1372     0.06627  7398.00346   7077.17355   4.0824         2337.45565     17.51617  0.00018  58532.28495  0.77593  0.01131   4828089.0178  44.03248  19.56248     58574.46    50.54152       43.81661   25.88859  40.99026   51.5    0.25126  -20.17891  0.99604 
   -11.1648   0.0046  7.34995     14.15284  1.60884  1.18215  6.22598  0.05367     0.03993  7092.53809   6660.51997  1.10159         2457.17417      16.8207    4e-05   58532.3252  1.86826  0.02867  3992315.74027  44.14156  19.54201      58575.4    50.54057       43.81742   25.88859  40.99026   54.5    0.25328  -20.16671  0.99066 
   -10.9544  0.01124    7.486     14.14562  1.57706  1.33243  5.85049  0.06845     0.07015  7444.93516   6821.98309  1.17052          3085.9802     18.40017   0.0014   58532.5356  1.93438  0.06576  4196912.63923  44.09526  19.55463  58576.39689    50.55397       43.82052   25.88859  40.99026   51.0      0.265  -20.21035  0.97743 
  -11.75131  0.00692  7.30982     14.39226  1.60956  0.58482  4.86911  0.07431     0.07701  7241.97691   6578.90327  1.44534         2189.54887     18.43643  0.00152  58531.73869  1.52332  0.03368  1311630.00419  44.62993  19.53823      58575.3     50.4906       43.73664   28.25415  45.62665   53.5    0.25425  -20.17918  0.98918 
  -10.76088  0.00507  6.60259     14.13812  1.42895  0.97546  3.78486  0.07711     0.06161  7132.54033   6935.50376  0.62915         2260.60135     16.07229    1e-05  58532.72912  1.14859  0.01921  3062138.83898  44.29841  19.53648      58575.4    50.48199       43.71248   30.20335  47.46241   52.5    0.26576  -20.16698  0.99397 
  -11.87877  0.00251  8.09478     14.22254  1.83333   1.1536  5.70395  0.06225     0.03211  7149.65941   6738.11133  2.39595         2367.89787      19.4726  0.01649  58531.61123   1.7393   0.0143  4002930.25797   44.1133  19.54656  58576.39689    50.55151       43.82035   26.41839  38.54779   52.5    0.24821  -20.19142  0.99531 
  -11.57459  0.00161   8.5742     14.29064  2.02304  1.29325  4.52277  0.06895     0.05192  7361.39173   7032.89602  0.30516         2255.22635     16.95868    5e-05  58531.91541  1.46201  0.00726  3621897.99933  44.14953  19.53739     58574.46    50.53676        43.8155   25.88859  40.99026   51.0    0.27245  -20.18236   0.9977 
  -13.52622  0.05173  9.04944     14.82091  1.95566  0.26444  8.23838  0.04865     0.07499  6751.64752   4564.81992  3.84636         2592.00616     19.62765  0.02357  58529.96378  2.24021   0.4262   339261.91653  45.11636  19.54783      58575.3    50.53004       43.79522   26.41839  42.78091   59.5    0.22227  -20.18566  0.86232 
  -14.01146  0.06147  9.39566     14.83905  2.04964  0.28492  9.47942  0.03468     0.04483  6451.62011    3560.1484  4.71096         2032.66666      18.7915  0.00344  58529.47854  2.35368  0.58273   352567.96987  45.08743  19.55835      58575.4    50.53196       43.73843   29.19709  44.15391   64.0    0.21344  -20.11517  0.82061 
  -10.49781  0.00816   7.7105      14.1748  1.71719   1.2695   4.4008  0.07176     0.05387   7581.6185   6363.46928  0.54023         2422.79606     18.72734  0.00297  58532.99219  1.50898  0.03592  4238346.88911   44.1023  19.53746      58575.4    50.54854       43.78779   26.41839  40.99026   53.5    0.26702  -20.19762  0.98833 
  -15.01492  0.03838   9.1092     14.86121   1.9944  0.23814  8.65647  0.04713     0.07919  6446.03778   4422.13438  3.97085         2644.66836     18.82056  0.00368  58528.47508  2.14562  0.33226   291188.92424  45.18552  19.55871  58576.57603    50.56259       43.81508   28.04597  38.83288   60.5    0.20564   -20.1525  0.89065 
  -12.82431  0.01994   7.3518     14.22341   1.6266  0.94876  3.20436  0.11436     0.05872  6847.79654   6938.73017  0.36071         3574.66653     18.43547  0.00151  58530.66569  0.89634   0.0639  2917853.65027  44.28228  19.53838     58575.34    50.51627       43.76547   27.45262   44.2708   51.5    0.24909  -20.17172  0.97975 
  -11.38769  0.01866  6.11311     13.98599  1.26343  1.24708  2.66157  0.11375     0.39669  7122.68441   6825.98009  0.69967         2689.58822     19.23693  0.00959  58532.10231  0.80548  0.04967  4676406.31422  44.12796  19.55695      58575.3    50.58508       43.81014   25.88859  40.99026   56.0    0.25869  -20.17587  0.98401 
  -10.94267  0.00424  7.39692     14.11609  1.59239  1.31489  4.46367  0.07768     0.05203  7318.39856   6924.39845  1.98915         2512.94192     17.54433  0.00019  58532.54733   1.4261  0.01894  4740049.28288  44.05701  19.56084  58576.39689    50.52488       43.78059   28.04597  42.74751   52.5    0.25677  -20.19389  0.99361 
  -11.83995  0.03997   7.9336     14.20143  1.77909    1.528  2.80815  0.13227     0.07916  7281.51647   6672.11535  1.12831         2467.08157     16.44847    2e-05  58531.65005  0.88816  0.11224  4112300.78895  44.10602  19.62003      58575.4    50.61997       43.80931   29.76625  47.49937   52.0    0.25526   -20.1985  0.96438 
  -10.88804  0.10988  6.51832     14.08107  1.35316  1.36088  2.87264    0.119     0.07164  7309.94876   6869.58932  0.31764         2767.38984      17.8762  0.00042  58532.60196  0.91566  0.31565  3675316.86438  44.20663  19.54836      58575.3    50.50237       43.75343    29.0802   44.2708   50.0    0.26845  -20.19415  0.90494 
  -13.83709  0.04073  9.86232     14.76712  1.97848  0.31267  9.12046  0.04683     0.08054  6088.24114   4394.09727  4.68645         3366.97846     16.15114    1e-05  58529.65291  2.01664  0.37152   522238.54206  44.85935  19.55875     58575.36    50.54819       43.81906   25.88859  40.99026   58.0     0.2196  -20.17152  0.85968 
  -19.46936  0.08313  5.69298     14.49864  1.72429  0.91881  7.92454   0.0866     0.12047  5254.72337   7565.02527  0.34883         4519.77399     16.71019    3e-05  58524.02064  1.30527  0.65879   522177.18349  45.27696  19.55981  58576.57603    50.56479       43.72545   31.23758  55.05771   49.5    0.19123  -20.00633  0.89786 
  -11.15224  0.00938  7.71644     14.14136  1.65704  1.48413  8.93022   0.0383     0.02225   7326.8439   7043.41995  4.10603         2188.34345     17.87076  0.00041  58532.33776  2.85972  0.08375  4778202.28938  44.03408  19.55904      58575.4    50.53565       43.79899   28.04597  41.83743   51.5    0.24635  -20.18111   0.9717 
  -12.37493  0.00847  9.35991     14.43556  2.19654   0.9079  6.79795  0.05426     0.04344  7061.74649   6837.60057  0.86554         3031.92878     16.65884    3e-05  58531.11507  2.02222   0.0576  2404229.11531  44.28707  19.56368  58576.39689    50.52956       43.79753   28.04597  40.99026   53.0    0.25066  -20.18722  0.98111 
  -11.87028  0.08257  7.81693     14.19417   1.7175  1.36947  3.09698  0.09698     0.05157  6905.84482    7124.7098  0.59661          2626.7699     18.76228  0.00321  58531.61972  0.88105  0.25572  3985094.19872  44.11723  19.54312      58575.3    50.57613       43.84535   24.26101  38.83288   52.0    0.25376  -20.15611  0.92074 
  -10.97785  0.01445  6.67268     14.03715   1.4013  1.47018  3.39918   0.0958     0.08564  7676.86843    6774.4996  0.90831         2283.01234     18.09098  0.00069  58532.51215    1.195  0.04911  4882650.61719  44.07812  19.54456      58575.3    50.55394       43.83989   25.88859  39.24946   52.5    0.26999  -20.20224  0.98388 
  -11.94995  0.02518  8.26655     14.46787  1.78544  0.61319  6.36685  0.07409     0.06391  7211.10926   6348.20299  2.44697         2776.55972     18.04956  0.00062  58531.54005  1.97495  0.16033  1313594.05856  44.56748  19.56172      58575.3    50.55388       43.74526   29.09689  50.72625   52.5    0.24042  -20.20039  0.94616 
   -9.81309  0.02166  7.85523     14.26516  1.76772  0.92391   7.2455  0.03571     0.02268  7107.68858   7091.53892  3.34824         2030.66435     19.88158   0.0423  58533.67691   2.1835  0.15692  2986995.52563  44.25071  19.55009  58576.57603    50.53439       43.79063   29.57653  41.83743   54.5     0.2511  -20.19043  0.95117 
  -10.91705  0.01067  8.85845     14.29443  2.03423  1.17404  7.76544  0.04174      0.0231  7397.42581   6633.03909  0.76874         2770.14102     17.30331  0.00011  58532.57295  2.53486  0.08287  3820031.06219  44.10046  19.57226     58574.46    50.56195       43.75248   26.41839  49.61979   52.5    0.25183  -20.19716  0.97281 
   -9.66206  0.00104  9.04032     14.39581  2.10192  0.90056   4.6694   0.0567     0.03982  6857.41159   6749.70747  2.55484         2205.53797     17.23508   0.0001  58533.82794  1.30981  0.00487  2577411.57248  44.26791  19.54687  58576.39689    50.50642       43.74901   29.84833  43.50266   55.5      0.245  -20.13604  0.99838 
  -10.67206  0.00353  7.89346     14.21916  1.73374  0.91289  2.45797  0.11301     0.06558   7437.5288   6714.30416  1.59637         2630.87828     19.15927  0.00802  58532.81794  0.81108  0.00867  3655990.14568  44.15029  19.55224      58575.4    50.54042       43.81677   25.88859  40.99026   53.5    0.25471  -20.19271  0.99703 
  -12.29735  0.02789  7.43855     14.20031  1.61393  1.07921  5.01364  0.07125     0.04991  7025.31124   7153.23135  0.51726         3028.66079     18.98585  0.00538  58531.19265  1.47609  0.13984  3296542.09822  44.21569  19.55389      58575.3    50.54435       43.81507   27.41915  40.99026   51.5    0.25713  -20.16922  0.95531 
  -11.64088  0.00415  7.65061     14.31757  1.69651  0.75538   4.8978  0.06034     0.04428     6582.87   6912.99502  0.39152         4321.07853      16.8779    4e-05  58531.84912  1.26607  0.02031  2136074.26153  44.40139  19.56268      58575.4    50.53929        43.7821   28.04597  40.99026   55.0    0.25295  -20.16843  0.99335 
  -11.42089  0.01406  6.84558     14.11135  1.45878  1.18647   5.6877    0.065     0.04274  7456.31631   6744.58311   0.7514         2392.67496     17.74663  0.00031  58532.06911  1.88631  0.07995  3801259.23186  44.18209  19.55174  58576.57603    50.54211       43.80787   25.88859  40.99026   50.5     0.2707  -20.19273  0.97432 
  -10.36429  0.08216  7.03408     14.15363  1.42385   1.0564  5.51806  0.05131     0.03543  7306.90721   7093.75555  0.21915         3091.68202     18.67386  0.00262  58533.12571  1.75744  0.45337  3224313.38808  44.21946  19.55887      58575.3    50.52897        43.7744   28.04597  43.14764   53.5    0.26314  -20.17141  0.85957 
    -11.021  0.00847  7.60409     14.16882  1.61038   1.1639  4.08229  0.09103       0.068  6765.96643   7002.19656  4.60895         2532.38578     16.34739    1e-05    58532.469  1.11478  0.03459  3973786.23095  44.11448  19.54987      58575.3    50.49964       43.75903   27.45262   44.2708   53.5    0.23935   -20.1676  0.98798 
  -10.45715   0.0047  7.96033      14.2045  1.78943  1.34132  5.72905  0.05282     0.04663  7167.29441   7234.63711  1.01851         2612.51899     19.25729  0.01005  58533.03285  1.75558  0.02693  4105668.87113  44.10631  19.52393  58576.57603    50.54005       43.81128   28.04597  40.99026   52.5    0.26741  -20.18239  0.99122 
  -10.34386  0.01798    7.405     14.21952  1.59242   0.9679  7.01213  0.04218     0.03812  7284.02549   6679.70899  0.55213         2831.31206     17.63066  0.00024  58533.14614  2.21932   0.1261  2950424.75782  44.26197  19.54389      58575.3    50.53276       43.80461   28.04597  38.83288   54.0    0.27876  -20.17811  0.95907 
  -10.65352  0.01121  7.34364     14.09287  1.58911  1.11042  2.83285  0.10374     0.05067  7704.15492   6626.99071  1.06176         2575.50839     18.29194  0.00109  58532.83648    1.003  0.03177  5188689.45877  44.02312  19.55637      58575.4    50.53174       43.79649   28.04597  41.99607   51.5    0.24939   -20.2028  0.98934 
  -10.77559  0.00893  7.97742     14.16427  1.63651  1.15067  8.09594  0.04748     0.02211   6903.1445   7175.35746  3.02371         2997.81074     18.47973  0.00168  58532.71441  2.30138  0.07232  4538588.61971  44.02212   19.5453     58574.46    50.47413       43.70394   29.19763  46.84055   51.5    0.25445   -20.1739  0.97324 
  -10.67942  0.00246  6.41215     14.01588  1.27443  1.01947  4.91774  0.06729     0.03874  7331.95382    6934.2372  1.64936         2942.38618     16.94087    5e-05  58532.81058    1.577  0.01209  4522549.45132  44.10477  19.53324     58574.46    50.48299       43.72922   28.22076  45.66004   52.5     0.2596  -20.19275  0.99569 
  -12.36359  0.02211  8.05942       14.259  1.81662  1.15548  6.02571  0.06461     0.03389  7184.00851   6838.69624  0.61544         2825.26426     17.72335  0.00029  58531.12641  1.85511  0.13325  3324157.85471  44.19382  19.55939      58575.3    50.52243       43.80385   24.26101  43.14764   50.5    0.25951  -20.19096  0.95803 
  -10.52259  0.00954  8.53128     14.33159  1.93874  0.94082  4.92104   0.0651       0.041  7249.75806   7174.87685  1.89799         2221.05136     17.12206    7e-05  58532.96741  1.54288  0.04693  2845653.89919  44.24015  19.55283      58575.4     50.5308       43.79312   28.04597  40.99026   51.5    0.24749  -20.17157  0.98449 
  -10.99202  0.03798    7.526       14.182   1.5864  1.20558  8.24072  0.04117       0.021  7327.06836    7190.1647  0.32426         3164.69693     17.30271  0.00011  58532.49798  2.63908  0.31299  3608664.18303  44.15878  19.55161      58575.4    50.53808       43.82202   25.88859  40.70518   49.0    0.27185  -20.18472  0.90101 
  -10.15128  0.00149  8.70358     14.32775  2.00211  0.97926  3.88267  0.06858     0.04381  6959.92808   6907.08926   1.3399         2423.08192      17.2048    9e-05  58533.33872  1.12193  0.00578  3113156.32398  44.19774  19.55485      58575.3     50.5281       43.79506   28.04597  41.83743   54.0    0.25615  -20.14335  0.99807 
  -11.93077   0.0132  7.73323     14.24914  1.75982   1.1132  7.54341  0.04176     0.04208   7274.5251    6941.6672  0.01182         2466.32403     17.04665    6e-05  58531.55923  2.38125  0.09959  3102560.94536  44.24587  19.54254      58575.3    50.55846       43.83297   25.88859  38.83288   52.5    0.27542  -20.17545   0.9694 
   -15.4841  0.20529  6.15268     14.76663  1.82069  0.60225  9.31378  0.06924     0.20872   6977.3299   4072.66833  1.47721         2111.95632     20.45638  0.15889   58528.0059  2.70478    1.912   187461.20409  45.67804  19.53763  58576.39689    50.46404        43.6994   30.82521  44.68317   59.5    0.20864  -20.27419  0.73837 
  -12.59069  0.00924  7.82578     14.33095  1.74071  0.79966   6.3926  0.05706     0.03075  6746.26622   7143.86045   0.7572         3204.99936     16.87393    4e-05  58530.89931  1.73553  0.05908  2156212.62341  44.38882  19.53924  58576.39689    50.51099       43.77413   26.41839  45.30503   50.5    0.25152  -20.16616  0.98083 
  -12.61987  0.00334  7.26227     14.27076  1.60471  0.82309   7.3535  0.05059     0.03812  7001.10511    6938.4928  0.70128         3161.63198     16.65065    2e-05  58530.87013  2.15008  0.02454  2258597.98778  44.39826  19.53608  58576.39689    50.54997       43.83668   25.88859  38.83288   51.0    0.25828  -20.19721  0.99217 
  -10.58165  0.01332  7.41027     14.10344  1.59832   1.4374   2.9618  0.09835     0.06592  7312.89551   6949.97967  3.09537         2099.25826     18.01414  0.00057  58532.90835  0.94485  0.03946  5061363.37203  44.02857   19.5737      58575.4    50.52538       43.78707   28.04597  41.95144   53.5    0.24665  -20.17139   0.9868 
  -10.81886  0.00158  6.91372     14.07319  1.51613  1.45018  5.94849  0.04504     0.02879  7261.76265   6957.90988  0.11738         2520.05394     16.31629    1e-05  58532.67114  1.87119  0.00942  4803809.85178  44.08857  19.55196  58576.39689    50.54721       43.82335   25.88859  40.99026   51.5     0.2575  -20.16325  0.99701 
  -12.01459  0.00539  7.27517     14.33514  1.56438  0.65376  7.60759   0.0553     0.07967  7340.84902   6853.31037   1.2407         2710.12982      18.2634  0.00102  58531.47541  2.44549  0.04104  1642731.75958  44.52393  19.55388      58575.3    50.50185       43.74585    29.0802   44.2708   51.5    0.26098  -20.19502  0.98642 
   -10.8373  0.01912  7.14934     14.09849  1.52218  1.54914  6.84392  0.04585     0.02745  7213.00018   6611.81545  0.74724         2608.15913     17.86405  0.00041   58532.6527  2.12405  0.13085  4590155.43621  44.08095  19.54556      58575.4     50.5188       43.77966   28.04597  42.74751   52.5    0.26166  -20.17309  0.95765 
  -10.74954  0.00652  7.55603     14.12297  1.63907  1.03088  5.83713   0.0493     0.02293  7209.37199   6946.76869  3.45279         2559.31601     19.80159  0.03518  58532.74046  1.80976  0.03804   4932494.7911  44.03379  19.54228      58575.3     50.5078       43.76789   26.41839  42.74751   53.5    0.23933  -20.20641  0.98709 
  -10.11731  0.00214  6.77876     14.08009  1.46996  1.43576   3.2259  0.09067     0.07119   7330.0174   6689.68066  0.61778         2409.42346     17.89521  0.00044  58533.37269  1.03392  0.00691  4337599.92709   44.1366  19.56535     58574.46    50.50474       43.68096   30.82521   53.3127   52.0    0.27201  -20.18428   0.9978 
  -12.57678  0.00154  7.55179      14.4471  1.77629  0.56108   9.0264  0.02821     0.13719  6168.94745   4250.79191  0.16715         4244.89734     17.86166   0.0004  58530.91322   2.0491  0.01386  1200133.95744  44.68303  19.55023     58577.42    50.58196       43.78855    29.0802  41.71328   59.0    0.23363   -20.1162  0.99586 
  -13.67115  0.02042   7.1143     14.40089  1.61182  0.62929  7.02966  0.05789     0.19879  6953.54405   6784.90706  0.02058          2840.4614     17.76665  0.00032  58529.81885  2.02756  0.14357  1195677.55486  44.69428  19.56883  58576.57603    50.53877       43.69247   32.35577   53.3127   51.5    0.25518  -20.16295  0.95808 
  -11.27756  0.02395  6.51092     13.98438  1.28845  1.29352   6.5349  0.04417     0.03511  7126.86379   6548.14286  0.60926         3555.48415     16.41204    1e-05  58532.21244  1.97999  0.15653  5450081.90021  44.01523  19.56236      58575.4    50.52824       43.80047   28.04597  40.99026   57.0    0.25924  -20.17362  0.94637 
  -10.83104  0.00411  8.64587     14.37676  1.93079  0.78356  7.81785  0.03496     0.02199  6792.68323   6774.57256  0.50564         4169.03514     16.29312    1e-05  58532.65896  2.15178  0.03215  2364041.10701  44.30731  19.56228      58575.3    50.55341       43.83061   27.41915  40.70518   54.0    0.25459  -20.17125  0.98895 
  -11.41281  0.00363  8.00519     14.40274  1.82419  0.72105  5.06474  0.06967     0.06352  7410.59877   7095.13852  0.26608         3480.83849     17.07061    7e-05  58532.07719  1.65917   0.0184  1698804.33412  44.49303    19.551  58575.33955    50.58275       43.81319   25.88859  40.70518   49.5     0.2707  -20.20611  0.99411 
  -10.18301  0.11166  6.52594     13.97296  1.22508  1.42052  3.28002  0.09841     0.05591  7243.55277   7022.66392  1.25658         3010.80115      18.4526  0.00158  58533.30699  1.02661  0.36624  5487128.60348  43.98838  19.55845     58575.38    50.49025        43.7404    29.0802  46.42818   53.0    0.25385  -20.18044  0.87466 
  -12.14824  0.01837   7.5241     14.20524  1.66759  1.02464  4.53432  0.06222     0.03964  6859.03698   7121.71995  0.34586         3329.55245     18.01051  0.00057  58531.34176  1.27252  0.08328  3406752.23271  44.20569  19.56226  58576.39689    50.53264       43.78771   28.04597  41.99607   53.5    0.24464  -20.15636  0.97347 
  -12.47465  0.01793  7.68819     14.33436  1.75219     0.78  3.68632  0.09217     0.05505  7355.86866   6683.01278   0.1415         2679.78458     18.17093  0.00082  58531.01535  1.18984   0.0661  2062211.80259  44.42644  19.52893  58576.39689    50.51306       43.74543   27.56951  44.15391   51.0    0.26833  -20.19476  0.97953 
   -12.7756  0.00113  8.43746     14.34922  2.03693  1.04041   4.5899  0.07715     0.05694  7088.67177   6601.63344  0.10488         2523.89884     18.26579  0.00102   58530.7144  1.37582  0.00517  2696375.11965  44.29462  19.55592      58575.4    50.54378        43.7904   28.04597  40.99026   52.5    0.26209  -20.17888  0.99843 
  -10.00258  0.01952   8.6561     14.31463  1.84711  0.93113  8.20204  0.04496     0.02641  7516.48121    6772.1194  3.81116         2480.52358     17.76783  0.00033  58533.48742  2.76425  0.16011  3017876.16728  44.18099  19.55196     58575.38    50.54823       43.83608   24.26101  39.24946   52.5    0.26035  -20.19782  0.94376 
  -11.15328  0.04031  9.10581      14.3686  1.93251  0.91208  6.66359  0.06339     0.03134  7322.55017   6565.74061  4.16097         2647.12591       18.301  0.00111  58532.33672  2.13138  0.26863  2725065.48006  44.20095  19.55881      58575.4    50.51733       43.76905    29.0802   44.2708   52.5    0.24443  -20.20284  0.90647 
   -10.9487  0.00122  8.00359     14.27359   1.8498  1.15075  7.24516  0.04621     0.05012  7316.36971   6742.33914  0.86724         2005.19109       17.364  0.00013   58532.5413  2.31348  0.00881  3121269.43577  44.23507  19.54854      58575.4    50.54363       43.82455   25.88859  40.70518   51.5    0.27193  -20.18249  0.99722 
  -12.01389  0.00754  7.33331     14.19862  1.63368  0.94545  2.94633  0.10141     0.06006  7369.19496   7030.18662  0.21656         3591.45931     19.26636  0.01026  58531.47611  0.95444  0.02221  3268384.41532  44.23708  19.57093  58576.39689     50.5702       43.72471   31.37889  52.13219   51.0    0.26625  -20.20517  0.99292 
  -10.82646  0.00387  8.31161     14.42332  1.91396  0.65248  2.76623  0.11226     0.06549  7194.60227   6751.46529  1.58365          2574.0942     19.74465  0.03086  58532.66354  0.85414  0.01071  1747716.23436  44.46894  19.60768     58574.46    50.58676       43.77183   28.04597  49.61979   53.5    0.24481  -20.20851  0.99653 
  -11.16201  0.03359  7.62833     14.37063   1.5776  0.66251  6.26827  0.06546     0.13213  7098.80416   7226.37533  1.74563         2810.34092     17.18997    9e-05  58532.32799  1.88428  0.21057  1546720.62403  44.51257  19.54208  58576.57603    50.53582       43.80623   26.41839  40.99026   51.0    0.25072  -20.17404   0.9289 
  -10.79694  0.01153  7.86754     14.24692  1.73445  1.08308   5.8676  0.06108     0.10506  7505.78062   6815.06056  0.59741         2853.07528     17.95364   0.0005  58532.69306  1.97188  0.06765  3197527.00981  44.21152  19.57989      58575.3    50.56763       43.70433   32.00572  52.13219   52.0    0.27944  -20.19885  0.97778 
   -13.1478  0.00262  7.11599     14.23519  1.64305  0.93075  2.93326  0.10321     0.06865   7065.4789   6916.29095  0.00484          3012.9591     18.09035  0.00068   58530.3422   0.8735  0.00769  2615480.63199  44.36248  19.54448      58575.3    50.52539       43.78806   26.41839  42.74751   51.5    0.25954  -20.17999  0.99772 
  -12.06926  0.03019  7.94838     14.24566  1.84454  1.43827  4.17007  0.08941     0.09055  7108.88901   6716.73014  0.17817          3347.8293     19.56647  0.02047  58531.42074  1.25711  0.12591  3490933.72157  44.19123   19.5509      58575.4    50.54917       43.82878   25.88859  40.99026   52.0    0.25334   -20.1949  0.96225 
  -11.31637  0.00997  7.62545     14.07662  1.63894  1.44281  7.49225   0.0422     0.05023  6861.82235   4050.92987   3.2809         2649.33303      19.0053  0.00562  58532.17363  2.10435  0.07472  6218327.70667   43.9252  19.55385      58575.4    50.55745       43.84949   25.88859  38.83288   59.5    0.23006  -20.18554  0.97459 
  -11.92022  0.02104  6.48567     14.10209  1.37947  1.06803  6.89396  0.05012     0.03616   7009.5114   7105.91059  0.67208         2383.87455     16.40413    1e-05  58531.56978  2.02056  0.14503  3367116.51003  44.25739  19.55633      58575.4    50.47507       43.70145   29.19763  44.68317   52.0    0.25954  -20.17057  0.95546 
  -11.56005  0.00191  6.65166     14.06024  1.44293  1.47191  3.60912  0.08919     0.07292  7523.96502   6807.75736  0.09197           2255.028     17.21129    9e-05  58531.92995  1.21877  0.00688  4492061.78225  44.12978  19.56203  58576.39689    50.55908       43.83085   25.88859  39.24946   51.0    0.27685  -20.19402  0.99782 
  -11.61249  0.03206  6.96202     14.13801  1.49632  1.18999  7.33043  0.04429     0.03192  7141.72654   6507.77799  0.19062         2881.45559     18.70441  0.00281  58531.87751   2.2303  0.23498  3566848.15056  44.20612  19.55648  58576.39689    50.52214       43.78394   28.04597  43.14764   54.0    0.25544  -20.17619   0.9285 
  -12.07534  0.02128  7.80383     14.27775  1.73355  0.98033  5.00449  0.07514     0.05652   6924.8824   7034.54387  0.99864         2758.01761     18.10773  0.00071  58531.41466  1.43157  0.10649  2728100.27407  44.28731  19.56799      58575.4     50.5382       43.79949   28.04597  40.99026   52.0    0.24881   -20.1719  0.96601 
  -12.46589  0.00212  8.23959     14.29329  1.92423  1.03614  7.95309  0.04027     0.02246  6836.21567   6763.55967   0.5156         2946.59339     16.99632    6e-05  58531.02411  2.21715  0.01684  3142719.45056  44.22399  19.54076  58576.57603    50.51957       43.78811   28.04597  42.74751   53.0    0.25168  -20.16729   0.9947 
  -10.71659  0.02089  9.38989     14.30526  2.15186  1.23803  5.46633  0.05914     0.03405  7698.87052   6965.50586  2.38063         2232.88847     18.61645   0.0023  58532.77341  1.93276  0.11421  4319514.96738   44.0209  19.59842  58576.39689    50.62777       43.80598   30.61788  47.04788   52.0    0.24825  -20.20189  0.96159 
  -10.79919  0.05598  8.59389     14.35934  1.95008  1.03991  6.15002  0.04787     0.03567  7174.97268   6886.66298   0.0044         3676.50707     18.12897  0.00075  58532.69081  1.88862   0.3443  2556061.09576  44.28295  19.55358      58575.3    50.53262       43.80932   25.88859  40.99026   53.5    0.27083  -20.16051  0.89658 
  -10.39673  0.03489  7.89292     14.36309  1.74325  0.72163  5.96843  0.04085     0.02459  6704.52676   7260.69547  0.37735          4024.9188     19.63631  0.02405  58533.09327  1.60038  0.20822  1894384.20486  44.43826  19.53314      58575.4    50.54192       43.81975   27.41915  40.99026   53.0    0.26043  -20.17492  0.93457 
  -11.07856  0.02649  6.73531     14.13213  1.40845  0.97508  7.94386  0.03798     0.02361  7148.83626   6851.59111  0.63024         2262.57269     16.75743    3e-05  58532.41144  2.42175  0.21041  3228585.66503  44.25186  19.54487      58575.4    50.51169       43.77069   28.04597  41.99607   53.0    0.25219  -20.16054  0.93381 
  -10.77252  0.05993  7.70128     14.26603  1.66813  1.02349  4.53681  0.07699     0.04886  7108.56345   6929.12924  0.62937         2712.54907     17.88704  0.00043  58532.71748  1.36755  0.27187  2698465.92129  44.28683   19.5454     58575.38    50.53731       43.80682   25.88859  43.14764   51.5    0.26081  -20.17346  0.91537 
  -11.73825  0.00952  7.92442     14.32539  1.80552  0.87603  9.29144  0.03621     0.02637  7128.87201   6661.01005  0.45751         2974.53891     19.08198  0.00671  58531.75175  2.81677  0.08842  2352737.64076  44.35594  19.55557     58574.46    50.51099       43.77614   26.41839  43.14764   53.0    0.26268  -20.19333   0.9724 
  -10.00085  0.05579  9.09814      14.3176  1.98519  1.11467  3.88897  0.08654     0.06292   7429.5616   6846.53587  2.65166         2440.03603     18.69491  0.00275  58533.48915  1.28053  0.21698  3534531.79049  44.10041  19.54901     58575.36    50.53325       43.80325   26.41839  40.99026   54.5    0.26566  -20.18865  0.92595 
  -11.28322  0.01273  7.48889     14.17766  1.65144   1.1327  4.36135  0.07168     0.04421  7209.82451    6734.9591  1.81707         2104.14428     16.47231    2e-05  58532.20678  1.35237  0.05552  3794881.69519  44.15868   19.5525  58575.33955    50.54411       43.82113   25.88859  40.70518   52.5    0.24958  -20.17297  0.98208 
  -13.42629  0.19834  7.14037     14.38457   1.7114  1.40864  6.49203   0.1002     0.02509  7264.68097     6650.886  1.47559         2514.96427     20.32536  0.11751  58530.06371  2.04381  1.28761  1378673.65867  44.65529  19.52973  58576.39689    50.52754       43.78407   28.04597  42.74751   49.0    0.21639  -20.30153   0.7376 
  -12.31876  0.01916  6.22321     14.03151  1.34116  1.21861  4.83306  0.06957     0.04355   7432.2247   6882.56301  0.20282         2774.06434     19.65672   0.0252  58531.17124  1.59253  0.09259  4171541.83233    44.188  19.54635      58575.4    50.59297        43.8355   25.88859  38.83288   51.0     0.2591  -20.22649  0.97216 
  -12.39977  0.06177  8.23762     14.29572  1.86856  1.03865  4.55234   0.0748     0.03568  7087.07303    6907.0766  0.52235         2861.39959     19.75229  0.03141  58531.09023  1.36394  0.28122    3016367.178  44.22927   19.5588      58575.4    50.54384       43.82874   25.88859  39.24946   51.5     0.2414  -20.20306  0.91516 
  -10.89182  0.00728  8.50725     14.32889   1.8755  0.89676  7.06291  0.04652     0.03235   7401.5492   6837.70879  0.62451         3366.50937     17.35525  0.00013  58532.59818  2.30811  0.05145  2771618.35649  44.23965   19.5382     58574.46    50.51417       43.76985   26.41839  43.14764   52.0    0.26289  -20.19114  0.98227 
  -12.44045  0.01051  7.23311     14.24636  1.66593  0.98469  4.33908  0.07736     0.08317  7073.14827   6136.00706  0.16937         2573.08306     19.49952  0.01755  58531.04955  1.29494  0.04562  2602527.05588  44.35646  19.55657      58575.4    50.57229       43.84148   25.88859  38.83288   54.0    0.26821  -20.18685  0.98647 
