"Time (MJD)" cyan-5182.42 cyan-5182.42_err g-4671.78 g-4671.78_err g-4746.48 g-4746.48_err g-4793.46 g-4793.46_err i-7589.41 i-7589.41_err i-7829.03 i-7829.03_err orange-6629.82 orange-6629.82_err r-6120.65 r-6120.65_err r-6141.12 r-6141.12_err r-6366.38 r-6366.38_err "Temp./1e3 (K)" "Temp. Err." "Radius/1e15 (cm)" "Radius Err." "Log10(Bol. Lum)" "Log10(Bol. Err)"
-69.000 -20.604 -0.091 -20.601 -0.088 -20.599 -0.087 -20.579 -0.077 -20.517 -0.074 -20.516 -0.074 -20.499 -0.076 -20.478 -0.081 -20.398 -0.114 -20.377 -0.125 15.077 0.207 1.710 0.031 44.032 42.314
-68.600 -20.625 -0.089 -20.622 -0.087 -20.619 -0.085 -20.600 -0.076 -20.539 -0.072 -20.537 -0.072 -20.521 -0.075 -20.500 -0.080 -20.420 -0.112 -20.399 -0.124 15.060 0.201 1.730 0.031 44.040 42.309
-68.200 -20.645 -0.088 -20.642 -0.085 -20.640 -0.084 -20.621 -0.074 -20.561 -0.071 -20.560 -0.071 -20.543 -0.073 -20.522 -0.078 -20.441 -0.111 -20.420 -0.123 15.040 0.195 1.750 0.030 44.048 42.302
-67.800 -20.666 -0.086 -20.663 -0.084 -20.661 -0.082 -20.642 -0.073 -20.583 -0.069 -20.582 -0.070 -20.565 -0.072 -20.544 -0.077 -20.463 -0.110 -20.441 -0.121 15.020 0.188 1.771 0.030 44.056 42.295
-67.400 -20.687 -0.085 -20.684 -0.083 -20.682 -0.081 -20.664 -0.072 -20.606 -0.068 -20.604 -0.068 -20.587 -0.071 -20.567 -0.076 -20.485 -0.108 -20.463 -0.120 14.997 0.181 1.792 0.029 44.064 42.287
-67.000 -20.708 -0.084 -20.705 -0.081 -20.703 -0.080 -20.685 -0.071 -20.628 -0.067 -20.627 -0.068 -20.610 -0.070 -20.589 -0.075 -20.507 -0.107 -20.484 -0.119 14.973 0.175 1.814 0.028 44.071 42.278
-66.600 -20.729 -0.083 -20.726 -0.080 -20.724 -0.079 -20.707 -0.070 -20.651 -0.067 -20.649 -0.067 -20.633 -0.069 -20.612 -0.074 -20.529 -0.106 -20.506 -0.118 14.948 0.168 1.837 0.028 44.079 42.268
-66.200 -20.750 -0.082 -20.747 -0.080 -20.745 -0.078 -20.729 -0.069 -20.673 -0.066 -20.672 -0.066 -20.656 -0.069 -20.635 -0.073 -20.551 -0.106 -20.528 -0.117 14.922 0.161 1.860 0.027 44.087 42.257
-65.800 -20.771 -0.081 -20.768 -0.079 -20.766 -0.077 -20.751 -0.069 -20.696 -0.065 -20.695 -0.065 -20.678 -0.068 -20.658 -0.073 -20.573 -0.105 -20.550 -0.116 14.895 0.154 1.884 0.026 44.095 42.246
-65.400 -20.792 -0.081 -20.789 -0.078 -20.788 -0.077 -20.773 -0.068 -20.719 -0.065 -20.718 -0.065 -20.702 -0.067 -20.681 -0.072 -20.595 -0.104 -20.572 -0.116 14.867 0.147 1.908 0.025 44.103 42.233
-65.000 -20.813 -0.080 -20.811 -0.078 -20.809 -0.076 -20.794 -0.068 -20.742 -0.064 -20.741 -0.065 -20.725 -0.067 -20.704 -0.071 -20.618 -0.104 -20.594 -0.115 14.839 0.140 1.932 0.025 44.111 42.218
-64.600 -20.834 -0.080 -20.832 -0.077 -20.830 -0.076 -20.817 -0.067 -20.766 -0.064 -20.764 -0.064 -20.748 -0.067 -20.728 -0.071 -20.640 -0.103 -20.616 -0.115 14.810 0.133 1.958 0.024 44.119 42.203
-64.200 -20.855 -0.079 -20.853 -0.077 -20.852 -0.075 -20.839 -0.067 -20.789 -0.064 -20.787 -0.064 -20.771 -0.066 -20.751 -0.071 -20.663 -0.103 -20.638 -0.114 14.781 0.125 1.983 0.023 44.126 42.186
-63.800 -20.877 -0.079 -20.875 -0.076 -20.874 -0.075 -20.861 -0.067 -20.812 -0.064 -20.811 -0.064 -20.795 -0.066 -20.774 -0.070 -20.685 -0.102 -20.660 -0.114 14.752 0.118 2.009 0.022 44.134 42.168
-63.400 -20.898 -0.078 -20.896 -0.076 -20.895 -0.075 -20.883 -0.067 -20.836 -0.063 -20.834 -0.064 -20.818 -0.066 -20.798 -0.070 -20.708 -0.102 -20.683 -0.113 14.724 0.111 2.036 0.021 44.142 42.149
-63.000 -20.920 -0.078 -20.918 -0.076 -20.917 -0.075 -20.906 -0.067 -20.859 -0.063 -20.858 -0.063 -20.842 -0.066 -20.821 -0.070 -20.731 -0.101 -20.705 -0.113 14.695 0.104 2.063 0.020 44.150 42.128
-62.600 -20.941 -0.078 -20.940 -0.076 -20.938 -0.074 -20.928 -0.066 -20.883 -0.063 -20.881 -0.063 -20.865 -0.066 -20.845 -0.070 -20.753 -0.101 -20.727 -0.112 14.667 0.097 2.090 0.019 44.158 42.105
-62.200 -20.963 -0.078 -20.961 -0.076 -20.960 -0.074 -20.950 -0.066 -20.906 -0.063 -20.905 -0.063 -20.889 -0.065 -20.869 -0.070 -20.776 -0.101 -20.750 -0.112 14.639 0.090 2.117 0.018 44.166 42.082
-61.800 -20.984 -0.078 -20.983 -0.075 -20.982 -0.074 -20.973 -0.066 -20.930 -0.063 -20.928 -0.063 -20.913 -0.065 -20.892 -0.070 -20.799 -0.101 -20.772 -0.112 14.612 0.084 2.145 0.017 44.175 42.057
-61.400 -21.006 -0.077 -21.005 -0.075 -21.004 -0.074 -20.995 -0.066 -20.953 -0.063 -20.952 -0.063 -20.937 -0.065 -20.916 -0.069 -20.821 -0.100 -20.794 -0.112 14.585 0.078 2.173 0.016 44.183 42.031
-61.000 -21.027 -0.077 -21.026 -0.075 -21.026 -0.074 -21.018 -0.066 -20.977 -0.063 -20.976 -0.063 -20.960 -0.065 -20.940 -0.069 -20.844 -0.100 -20.816 -0.111 14.560 0.072 2.201 0.015 44.191 42.006
-60.600 -21.049 -0.077 -21.048 -0.075 -21.048 -0.074 -21.040 -0.066 -21.001 -0.063 -20.999 -0.063 -20.984 -0.065 -20.963 -0.069 -20.867 -0.100 -20.838 -0.111 14.534 0.067 2.230 0.014 44.199 41.981
-60.200 -21.071 -0.077 -21.070 -0.075 -21.069 -0.074 -21.063 -0.066 -21.024 -0.063 -21.023 -0.063 -21.008 -0.065 -20.987 -0.069 -20.889 -0.100 -20.861 -0.111 14.510 0.062 2.259 0.013 44.207 41.958
-59.800 -21.092 -0.077 -21.092 -0.075 -21.091 -0.074 -21.085 -0.066 -21.048 -0.063 -21.046 -0.063 -21.031 -0.065 -21.010 -0.069 -20.912 -0.100 -20.883 -0.111 14.486 0.058 2.288 0.013 44.215 41.939
-59.400 -21.114 -0.077 -21.113 -0.075 -21.113 -0.074 -21.108 -0.066 -21.071 -0.062 -21.070 -0.063 -21.055 -0.065 -21.034 -0.069 -20.934 -0.099 -20.905 -0.111 14.462 0.056 2.317 0.012 44.224 41.926
-59.000 -21.135 -0.077 -21.135 -0.075 -21.135 -0.074 -21.130 -0.066 -21.095 -0.062 -21.093 -0.062 -21.078 -0.064 -21.057 -0.068 -20.956 -0.099 -20.926 -0.110 14.440 0.054 2.346 0.012 44.232 41.922
-58.600 -21.157 -0.077 -21.157 -0.075 -21.156 -0.074 -21.152 -0.066 -21.118 -0.062 -21.117 -0.062 -21.102 -0.064 -21.081 -0.068 -20.979 -0.099 -20.948 -0.110 14.417 0.054 2.376 0.012 44.240 41.928
-58.200 -21.178 -0.077 -21.178 -0.075 -21.178 -0.073 -21.175 -0.066 -21.141 -0.062 -21.140 -0.062 -21.125 -0.064 -21.104 -0.068 -21.001 -0.099 -20.970 -0.110 14.395 0.055 2.406 0.013 44.248 41.944
-57.800 -21.199 -0.076 -21.200 -0.074 -21.200 -0.073 -21.197 -0.066 -21.164 -0.062 -21.163 -0.062 -21.148 -0.064 -21.127 -0.068 -21.023 -0.099 -20.991 -0.110 14.374 0.057 2.436 0.013 44.256 41.968
-57.400 -21.221 -0.076 -21.221 -0.074 -21.221 -0.073 -21.219 -0.066 -21.187 -0.061 -21.186 -0.061 -21.171 -0.063 -21.150 -0.067 -21.044 -0.098 -21.013 -0.109 14.353 0.060 2.466 0.014 44.265 42.000
-57.000 -21.242 -0.076 -21.242 -0.074 -21.242 -0.073 -21.241 -0.066 -21.210 -0.061 -21.209 -0.061 -21.194 -0.063 -21.173 -0.067 -21.066 -0.098 -21.034 -0.109 14.333 0.064 2.496 0.015 44.273 42.037
-56.600 -21.263 -0.076 -21.263 -0.074 -21.263 -0.073 -21.263 -0.065 -21.233 -0.061 -21.232 -0.061 -21.217 -0.062 -21.196 -0.066 -21.088 -0.098 -21.055 -0.109 14.313 0.069 2.526 0.017 44.281 42.075
-56.200 -21.283 -0.076 -21.284 -0.074 -21.284 -0.072 -21.284 -0.065 -21.256 -0.060 -21.255 -0.060 -21.240 -0.062 -21.218 -0.066 -21.109 -0.097 -21.076 -0.109 14.294 0.074 2.557 0.018 44.289 42.115
-55.800 -21.304 -0.075 -21.305 -0.073 -21.305 -0.072 -21.306 -0.065 -21.278 -0.060 -21.277 -0.060 -21.262 -0.061 -21.241 -0.065 -21.130 -0.097 -21.097 -0.108 14.275 0.080 2.587 0.020 44.297 42.154
-55.400 -21.325 -0.075 -21.326 -0.073 -21.326 -0.072 -21.327 -0.065 -21.300 -0.059 -21.299 -0.059 -21.285 -0.061 -21.263 -0.065 -21.151 -0.097 -21.118 -0.108 14.256 0.085 2.618 0.022 44.305 42.193
-55.000 -21.345 -0.075 -21.346 -0.073 -21.347 -0.071 -21.348 -0.064 -21.322 -0.059 -21.321 -0.059 -21.307 -0.060 -21.285 -0.064 -21.172 -0.096 -21.138 -0.108 14.238 0.091 2.648 0.024 44.313 42.230
-54.600 -21.365 -0.074 -21.366 -0.072 -21.367 -0.071 -21.369 -0.064 -21.344 -0.058 -21.343 -0.058 -21.328 -0.060 -21.307 -0.064 -21.193 -0.096 -21.158 -0.107 14.220 0.097 2.679 0.025 44.320 42.265
-54.200 -21.385 -0.074 -21.386 -0.072 -21.387 -0.071 -21.390 -0.063 -21.366 -0.057 -21.365 -0.057 -21.350 -0.059 -21.328 -0.063 -21.213 -0.096 -21.178 -0.107 14.203 0.103 2.709 0.027 44.328 42.299
-53.800 -21.405 -0.073 -21.406 -0.071 -21.407 -0.070 -21.411 -0.063 -21.387 -0.057 -21.386 -0.057 -21.371 -0.058 -21.349 -0.062 -21.233 -0.095 -21.198 -0.107 14.186 0.110 2.740 0.029 44.336 42.331
-53.400 -21.424 -0.073 -21.426 -0.071 -21.427 -0.070 -21.431 -0.062 -21.408 -0.056 -21.407 -0.056 -21.392 -0.058 -21.370 -0.062 -21.253 -0.095 -21.218 -0.106 14.170 0.116 2.770 0.031 44.343 42.362
-53.000 -21.444 -0.072 -21.445 -0.070 -21.446 -0.069 -21.451 -0.062 -21.429 -0.055 -21.428 -0.055 -21.413 -0.057 -21.391 -0.061 -21.273 -0.095 -21.237 -0.106 14.154 0.121 2.801 0.033 44.351 42.391
-52.600 -21.463 -0.072 -21.465 -0.070 -21.466 -0.069 -21.471 -0.061 -21.450 -0.055 -21.448 -0.055 -21.434 -0.056 -21.412 -0.060 -21.292 -0.094 -21.256 -0.106 14.138 0.127 2.831 0.035 44.358 42.419
-52.200 -21.482 -0.071 -21.484 -0.069 -21.485 -0.068 -21.490 -0.061 -21.470 -0.054 -21.469 -0.054 -21.454 -0.055 -21.432 -0.060 -21.312 -0.094 -21.275 -0.105 14.123 0.133 2.861 0.038 44.366 42.445
-51.800 -21.500 -0.071 -21.502 -0.069 -21.503 -0.068 -21.509 -0.060 -21.490 -0.053 -21.489 -0.053 -21.474 -0.055 -21.452 -0.059 -21.330 -0.093 -21.293 -0.105 14.108 0.138 2.891 0.040 44.373 42.470
-51.400 -21.519 -0.070 -21.521 -0.068 -21.522 -0.067 -21.528 -0.060 -21.509 -0.052 -21.508 -0.052 -21.494 -0.054 -21.471 -0.058 -21.349 -0.093 -21.312 -0.104 14.093 0.144 2.921 0.042 44.380 42.494
-51.000 -21.537 -0.070 -21.539 -0.068 -21.540 -0.067 -21.547 -0.059 -21.529 -0.052 -21.528 -0.052 -21.513 -0.053 -21.490 -0.057 -21.367 -0.092 -21.330 -0.104 14.079 0.149 2.950 0.044 44.387 42.516
-50.600 -21.554 -0.069 -21.557 -0.067 -21.558 -0.066 -21.565 -0.059 -21.548 -0.051 -21.547 -0.051 -21.532 -0.052 -21.509 -0.057 -21.385 -0.092 -21.347 -0.104 14.065 0.154 2.980 0.046 44.394 42.537
-50.200 -21.572 -0.069 -21.574 -0.067 -21.576 -0.066 -21.584 -0.058 -21.566 -0.050 -21.565 -0.050 -21.551 -0.052 -21.528 -0.056 -21.403 -0.091 -21.365 -0.103 14.053 0.159 3.009 0.048 44.401 42.558
-49.800 -21.589 -0.068 -21.592 -0.066 -21.593 -0.065 -21.601 -0.058 -21.585 -0.049 -21.583 -0.049 -21.569 -0.051 -21.546 -0.055 -21.420 -0.091 -21.382 -0.103 14.040 0.163 3.037 0.049 44.407 42.577
-49.400 -21.606 -0.068 -21.609 -0.066 -21.610 -0.065 -21.619 -0.057 -21.603 -0.049 -21.601 -0.049 -21.587 -0.050 -21.564 -0.055 -21.437 -0.090 -21.398 -0.102 14.029 0.168 3.066 0.051 44.414 42.595
-49.000 -21.623 -0.067 -21.625 -0.065 -21.627 -0.064 -21.636 -0.057 -21.620 -0.048 -21.619 -0.048 -21.604 -0.049 -21.581 -0.054 -21.454 -0.090 -21.415 -0.102 14.018 0.172 3.093 0.053 44.420 42.611
-48.600 -21.639 -0.067 -21.642 -0.065 -21.643 -0.064 -21.652 -0.056 -21.637 -0.048 -21.636 -0.048 -21.622 -0.049 -21.598 -0.053 -21.470 -0.090 -21.431 -0.101 14.009 0.176 3.120 0.055 44.427 42.627
-48.200 -21.655 -0.066 -21.658 -0.064 -21.659 -0.063 -21.669 -0.056 -21.654 -0.047 -21.653 -0.047 -21.638 -0.048 -21.615 -0.053 -21.486 -0.089 -21.447 -0.101 14.001 0.179 3.147 0.056 44.433 42.642
-47.800 -21.671 -0.066 -21.673 -0.064 -21.675 -0.063 -21.685 -0.055 -21.670 -0.047 -21.669 -0.047 -21.655 -0.048 -21.631 -0.052 -21.502 -0.089 -21.462 -0.100 13.994 0.182 3.172 0.058 44.439 42.656
-47.400 -21.686 -0.066 -21.689 -0.064 -21.691 -0.062 -21.701 -0.055 -21.686 -0.046 -21.685 -0.046 -21.671 -0.047 -21.647 -0.052 -21.517 -0.088 -21.477 -0.100 13.988 0.185 3.197 0.059 44.445 42.668
-47.000 -21.701 -0.065 -21.704 -0.063 -21.706 -0.062 -21.716 -0.055 -21.702 -0.046 -21.701 -0.046 -21.686 -0.047 -21.663 -0.052 -21.532 -0.088 -21.492 -0.100 13.984 0.187 3.221 0.060 44.451 42.680
-46.600 -21.716 -0.065 -21.719 -0.063 -21.720 -0.062 -21.731 -0.054 -21.717 -0.046 -21.716 -0.046 -21.701 -0.047 -21.678 -0.051 -21.547 -0.087 -21.507 -0.099 13.982 0.189 3.244 0.061 44.457 42.690
-46.200 -21.730 -0.065 -21.733 -0.063 -21.735 -0.062 -21.745 -0.054 -21.732 -0.046 -21.731 -0.046 -21.716 -0.047 -21.692 -0.051 -21.561 -0.087 -21.521 -0.099 13.981 0.191 3.266 0.062 44.463 42.700
-45.800 -21.744 -0.064 -21.747 -0.062 -21.749 -0.061 -21.760 -0.054 -21.746 -0.045 -21.745 -0.045 -21.730 -0.047 -21.707 -0.051 -21.575 -0.087 -21.535 -0.098 13.981 0.192 3.288 0.063 44.469 42.709
-45.400 -21.758 -0.064 -21.761 -0.062 -21.763 -0.061 -21.774 -0.054 -21.760 -0.045 -21.759 -0.045 -21.744 -0.046 -21.720 -0.051 -21.589 -0.086 -21.548 -0.098 13.983 0.193 3.308 0.064 44.474 42.717
-45.000 -21.771 -0.064 -21.774 -0.062 -21.776 -0.061 -21.787 -0.054 -21.773 -0.045 -21.772 -0.045 -21.757 -0.046 -21.734 -0.051 -21.602 -0.086 -21.561 -0.097 13.986 0.194 3.327 0.065 44.480 42.724
-44.600 -21.784 -0.064 -21.787 -0.062 -21.789 -0.061 -21.800 -0.054 -21.786 -0.045 -21.785 -0.045 -21.770 -0.047 -21.747 -0.051 -21.615 -0.086 -21.574 -0.097 13.990 0.195 3.346 0.065 44.485 42.730
-44.200 -21.797 -0.064 -21.800 -0.062 -21.802 -0.061 -21.813 -0.054 -21.799 -0.046 -21.798 -0.046 -21.783 -0.047 -21.759 -0.051 -21.627 -0.085 -21.587 -0.097 13.995 0.195 3.364 0.066 44.490 42.736
-43.800 -21.810 -0.064 -21.813 -0.062 -21.814 -0.061 -21.825 -0.054 -21.811 -0.046 -21.810 -0.046 -21.795 -0.047 -21.771 -0.051 -21.639 -0.085 -21.599 -0.096 14.002 0.195 3.381 0.066 44.495 42.742
-43.400 -21.822 -0.064 -21.825 -0.062 -21.827 -0.061 -21.838 -0.054 -21.823 -0.046 -21.822 -0.046 -21.807 -0.047 -21.783 -0.051 -21.651 -0.084 -21.611 -0.096 14.009 0.195 3.397 0.066 44.501 42.747
-43.000 -21.833 -0.064 -21.837 -0.062 -21.838 -0.061 -21.849 -0.054 -21.834 -0.046 -21.833 -0.046 -21.818 -0.047 -21.795 -0.051 -21.663 -0.084 -21.622 -0.095 14.016 0.195 3.412 0.066 44.505 42.751
-42.600 -21.845 -0.064 -21.848 -0.062 -21.850 -0.061 -21.861 -0.054 -21.846 -0.046 -21.844 -0.046 -21.829 -0.047 -21.806 -0.051 -21.674 -0.084 -21.634 -0.095 14.025 0.194 3.427 0.066 44.510 42.755
-42.200 -21.856 -0.064 -21.859 -0.062 -21.861 -0.061 -21.872 -0.054 -21.856 -0.047 -21.855 -0.047 -21.840 -0.048 -21.816 -0.051 -21.685 -0.084 -21.644 -0.095 14.034 0.194 3.441 0.066 44.515 42.758
-41.800 -21.867 -0.064 -21.870 -0.062 -21.872 -0.061 -21.882 -0.054 -21.867 -0.047 -21.866 -0.047 -21.850 -0.048 -21.827 -0.052 -21.695 -0.083 -21.655 -0.094 14.044 0.193 3.454 0.066 44.519 42.760
-41.400 -21.877 -0.064 -21.880 -0.062 -21.882 -0.061 -21.893 -0.054 -21.877 -0.047 -21.876 -0.047 -21.860 -0.048 -21.837 -0.052 -21.706 -0.083 -21.665 -0.094 14.054 0.191 3.466 0.066 44.524 42.762
-41.000 -21.888 -0.064 -21.891 -0.062 -21.892 -0.061 -21.903 -0.054 -21.886 -0.048 -21.885 -0.048 -21.870 -0.049 -21.846 -0.052 -21.716 -0.083 -21.675 -0.093 14.065 0.190 3.478 0.066 44.528 42.763
-40.600 -21.897 -0.064 -21.900 -0.062 -21.902 -0.061 -21.913 -0.055 -21.896 -0.048 -21.895 -0.048 -21.879 -0.049 -21.856 -0.052 -21.725 -0.082 -21.685 -0.093 14.075 0.189 3.490 0.065 44.532 42.764
-40.200 -21.907 -0.064 -21.910 -0.062 -21.912 -0.061 -21.922 -0.055 -21.905 -0.048 -21.904 -0.048 -21.888 -0.049 -21.865 -0.053 -21.734 -0.082 -21.694 -0.093 14.086 0.187 3.501 0.065 44.536 42.764
-39.800 -21.916 -0.064 -21.919 -0.062 -21.921 -0.061 -21.931 -0.055 -21.913 -0.049 -21.912 -0.049 -21.897 -0.050 -21.873 -0.053 -21.743 -0.082 -21.703 -0.092 14.097 0.185 3.511 0.064 44.540 42.763
-39.400 -21.925 -0.064 -21.928 -0.062 -21.930 -0.061 -21.940 -0.055 -21.922 -0.049 -21.921 -0.049 -21.905 -0.050 -21.882 -0.053 -21.752 -0.081 -21.712 -0.092 14.108 0.183 3.521 0.064 44.544 42.762
-39.000 -21.934 -0.064 -21.937 -0.062 -21.939 -0.061 -21.948 -0.055 -21.930 -0.049 -21.929 -0.049 -21.913 -0.050 -21.890 -0.053 -21.761 -0.081 -21.721 -0.091 14.119 0.181 3.531 0.063 44.548 42.761
-38.600 -21.942 -0.063 -21.945 -0.062 -21.947 -0.061 -21.956 -0.055 -21.938 -0.050 -21.936 -0.050 -21.921 -0.051 -21.897 -0.053 -21.769 -0.081 -21.729 -0.091 14.129 0.178 3.540 0.062 44.551 42.758
-38.200 -21.951 -0.063 -21.953 -0.062 -21.955 -0.061 -21.964 -0.055 -21.945 -0.050 -21.944 -0.050 -21.928 -0.051 -21.905 -0.054 -21.777 -0.080 -21.737 -0.090 14.139 0.175 3.549 0.061 44.555 42.755
-37.800 -21.959 -0.063 -21.961 -0.062 -21.963 -0.061 -21.972 -0.055 -21.952 -0.050 -21.951 -0.050 -21.935 -0.051 -21.912 -0.054 -21.784 -0.080 -21.745 -0.090 14.149 0.173 3.558 0.061 44.558 42.751
-37.400 -21.966 -0.063 -21.969 -0.061 -21.970 -0.061 -21.979 -0.055 -21.959 -0.051 -21.958 -0.051 -21.942 -0.051 -21.919 -0.054 -21.792 -0.080 -21.753 -0.090 14.158 0.170 3.566 0.060 44.561 42.747
-37.000 -21.973 -0.063 -21.976 -0.061 -21.978 -0.060 -21.986 -0.055 -21.966 -0.051 -21.964 -0.051 -21.949 -0.052 -21.925 -0.054 -21.799 -0.079 -21.760 -0.089 14.167 0.167 3.575 0.059 44.564 42.742
-36.600 -21.980 -0.063 -21.983 -0.061 -21.985 -0.060 -21.993 -0.055 -21.972 -0.051 -21.971 -0.051 -21.955 -0.052 -21.932 -0.054 -21.806 -0.079 -21.767 -0.089 14.175 0.163 3.583 0.057 44.567 42.736
-36.200 -21.987 -0.062 -21.990 -0.061 -21.991 -0.060 -21.999 -0.055 -21.978 -0.051 -21.977 -0.051 -21.961 -0.052 -21.938 -0.054 -21.812 -0.079 -21.774 -0.088 14.183 0.160 3.590 0.056 44.570 42.729
-35.800 -21.994 -0.062 -21.996 -0.060 -21.998 -0.060 -22.006 -0.055 -21.984 -0.051 -21.983 -0.051 -21.967 -0.052 -21.944 -0.054 -21.819 -0.078 -21.781 -0.088 14.190 0.156 3.598 0.055 44.573 42.722
-35.400 -22.000 -0.062 -22.003 -0.060 -22.004 -0.059 -22.012 -0.054 -21.989 -0.051 -21.988 -0.051 -21.973 -0.052 -21.949 -0.054 -21.825 -0.078 -21.787 -0.087 14.197 0.152 3.605 0.054 44.575 42.714
-35.000 -22.006 -0.061 -22.009 -0.060 -22.010 -0.059 -22.017 -0.054 -21.995 -0.051 -21.994 -0.051 -21.978 -0.052 -21.955 -0.054 -21.831 -0.078 -21.793 -0.087 14.203 0.149 3.612 0.053 44.578 42.705
-34.600 -22.012 -0.061 -22.014 -0.059 -22.016 -0.059 -22.023 -0.054 -22.000 -0.051 -21.999 -0.051 -21.983 -0.052 -21.960 -0.054 -21.837 -0.077 -21.799 -0.086 14.209 0.145 3.619 0.051 44.580 42.696
-34.200 -22.017 -0.060 -22.020 -0.059 -22.021 -0.058 -22.028 -0.054 -22.005 -0.051 -22.003 -0.051 -21.988 -0.052 -21.965 -0.054 -21.843 -0.077 -21.805 -0.086 14.214 0.141 3.626 0.050 44.583 42.685
-33.800 -22.023 -0.060 -22.025 -0.058 -22.026 -0.058 -22.033 -0.053 -22.009 -0.051 -22.008 -0.051 -21.993 -0.052 -21.970 -0.054 -21.848 -0.076 -21.811 -0.085 14.219 0.137 3.633 0.049 44.585 42.674
-33.400 -22.028 -0.059 -22.030 -0.058 -22.031 -0.057 -22.038 -0.053 -22.014 -0.051 -22.013 -0.051 -21.997 -0.052 -21.974 -0.054 -21.853 -0.076 -21.816 -0.085 14.223 0.133 3.639 0.047 44.587 42.663
-33.000 -22.033 -0.059 -22.035 -0.057 -22.036 -0.056 -22.042 -0.052 -22.018 -0.051 -22.017 -0.051 -22.001 -0.051 -21.979 -0.054 -21.858 -0.075 -21.822 -0.084 14.226 0.128 3.645 0.046 44.589 42.650
-32.600 -22.037 -0.058 -22.040 -0.057 -22.041 -0.056 -22.046 -0.052 -22.022 -0.050 -22.021 -0.050 -22.005 -0.051 -21.983 -0.053 -21.863 -0.075 -21.827 -0.084 14.229 0.124 3.652 0.045 44.591 42.637
-32.200 -22.042 -0.057 -22.044 -0.056 -22.045 -0.055 -22.051 -0.051 -22.026 -0.050 -22.025 -0.050 -22.009 -0.051 -21.987 -0.053 -21.868 -0.074 -21.832 -0.083 14.232 0.120 3.658 0.043 44.592 42.623
-31.800 -22.046 -0.056 -22.048 -0.055 -22.049 -0.054 -22.054 -0.051 -22.029 -0.050 -22.028 -0.050 -22.013 -0.051 -21.990 -0.053 -21.872 -0.074 -21.836 -0.082 14.234 0.116 3.664 0.042 44.594 42.609
-31.400 -22.050 -0.056 -22.052 -0.054 -22.053 -0.054 -22.058 -0.050 -22.033 -0.049 -22.032 -0.050 -22.016 -0.050 -21.994 -0.052 -21.877 -0.073 -21.841 -0.082 14.235 0.111 3.669 0.040 44.595 42.593
-31.000 -22.054 -0.055 -22.056 -0.054 -22.057 -0.053 -22.062 -0.049 -22.036 -0.049 -22.035 -0.049 -22.020 -0.050 -21.997 -0.052 -21.881 -0.072 -21.845 -0.081 14.236 0.107 3.675 0.039 44.597 42.577
-30.600 -22.058 -0.054 -22.060 -0.053 -22.061 -0.052 -22.065 -0.049 -22.039 -0.049 -22.038 -0.049 -22.023 -0.050 -22.001 -0.052 -21.885 -0.072 -21.850 -0.080 14.236 0.103 3.681 0.037 44.598 42.560
-30.200 -22.061 -0.053 -22.063 -0.052 -22.064 -0.051 -22.068 -0.048 -22.042 -0.048 -22.041 -0.048 -22.026 -0.049 -22.004 -0.051 -21.889 -0.071 -21.854 -0.080 14.236 0.099 3.686 0.036 44.600 42.543
-29.800 -22.064 -0.052 -22.066 -0.051 -22.067 -0.050 -22.071 -0.047 -22.045 -0.048 -22.044 -0.048 -22.029 -0.049 -22.007 -0.051 -21.892 -0.071 -21.858 -0.079 14.235 0.095 3.692 0.034 44.601 42.524
-29.400 -22.067 -0.051 -22.069 -0.050 -22.070 -0.049 -22.074 -0.046 -22.047 -0.047 -22.046 -0.047 -22.031 -0.048 -22.009 -0.050 -21.896 -0.070 -21.861 -0.079 14.234 0.091 3.697 0.033 44.602 42.505
-29.000 -22.070 -0.050 -22.072 -0.049 -22.073 -0.048 -22.076 -0.046 -22.050 -0.047 -22.049 -0.047 -22.034 -0.048 -22.012 -0.050 -21.899 -0.069 -21.865 -0.078 14.232 0.087 3.702 0.032 44.603 42.486
-28.600 -22.073 -0.049 -22.075 -0.048 -22.076 -0.047 -22.079 -0.045 -22.052 -0.046 -22.051 -0.046 -22.036 -0.047 -22.014 -0.049 -21.903 -0.069 -21.869 -0.077 14.230 0.083 3.708 0.030 44.604 42.466
-28.200 -22.076 -0.048 -22.077 -0.047 -22.078 -0.046 -22.081 -0.044 -22.054 -0.045 -22.053 -0.046 -22.038 -0.046 -22.017 -0.049 -21.906 -0.068 -21.872 -0.077 14.228 0.079 3.713 0.029 44.605 42.445
-27.800 -22.078 -0.047 -22.080 -0.046 -22.081 -0.045 -22.083 -0.043 -22.056 -0.045 -22.055 -0.045 -22.040 -0.046 -22.019 -0.048 -21.909 -0.067 -21.876 -0.076 14.224 0.075 3.718 0.028 44.606 42.424
-27.400 -22.081 -0.046 -22.082 -0.045 -22.083 -0.044 -22.085 -0.042 -22.058 -0.044 -22.057 -0.044 -22.042 -0.045 -22.021 -0.047 -21.912 -0.067 -21.879 -0.075 14.221 0.072 3.723 0.026 44.606 42.402
-27.000 -22.083 -0.045 -22.084 -0.044 -22.085 -0.043 -22.087 -0.041 -22.060 -0.044 -22.059 -0.044 -22.044 -0.045 -22.023 -0.047 -21.915 -0.066 -21.882 -0.075 14.216 0.068 3.728 0.025 44.607 42.381
-26.600 -22.085 -0.044 -22.086 -0.043 -22.087 -0.042 -22.089 -0.040 -22.062 -0.043 -22.060 -0.043 -22.046 -0.044 -22.025 -0.046 -21.918 -0.065 -21.885 -0.074 14.212 0.065 3.733 0.024 44.608 42.359
-26.200 -22.086 -0.043 -22.088 -0.042 -22.089 -0.041 -22.091 -0.040 -22.063 -0.042 -22.062 -0.042 -22.048 -0.043 -22.027 -0.045 -21.921 -0.065 -21.888 -0.073 14.207 0.062 3.738 0.023 44.608 42.338
-25.800 -22.088 -0.042 -22.090 -0.041 -22.090 -0.040 -22.092 -0.039 -22.064 -0.042 -22.063 -0.042 -22.049 -0.043 -22.029 -0.045 -21.923 -0.064 -21.891 -0.073 14.201 0.059 3.743 0.022 44.609 42.318
-25.400 -22.090 -0.041 -22.091 -0.040 -22.092 -0.039 -22.093 -0.038 -22.066 -0.041 -22.065 -0.041 -22.051 -0.042 -22.030 -0.044 -21.926 -0.064 -21.894 -0.072 14.195 0.057 3.748 0.021 44.609 42.300
-25.000 -22.091 -0.040 -22.092 -0.039 -22.093 -0.038 -22.095 -0.037 -22.067 -0.040 -22.066 -0.040 -22.052 -0.041 -22.032 -0.043 -21.928 -0.063 -21.896 -0.072 14.188 0.055 3.753 0.021 44.609 42.283
-24.600 -22.092 -0.039 -22.094 -0.038 -22.094 -0.037 -22.096 -0.036 -22.068 -0.040 -22.067 -0.040 -22.053 -0.041 -22.033 -0.043 -21.931 -0.063 -21.899 -0.071 14.180 0.053 3.758 0.020 44.609 42.269
-24.200 -22.093 -0.038 -22.095 -0.037 -22.095 -0.037 -22.097 -0.036 -22.069 -0.039 -22.068 -0.039 -22.054 -0.040 -22.034 -0.042 -21.933 -0.062 -21.902 -0.071 14.173 0.052 3.763 0.020 44.610 42.257
-23.800 -22.094 -0.038 -22.096 -0.036 -22.096 -0.036 -22.097 -0.035 -22.070 -0.038 -22.069 -0.038 -22.055 -0.039 -22.036 -0.042 -21.935 -0.062 -21.904 -0.070 14.164 0.051 3.768 0.019 44.610 42.249
-23.400 -22.095 -0.037 -22.097 -0.036 -22.097 -0.035 -22.098 -0.034 -22.071 -0.038 -22.070 -0.038 -22.056 -0.039 -22.037 -0.041 -21.937 -0.061 -21.906 -0.070 14.156 0.051 3.773 0.019 44.610 42.243
-23.000 -22.096 -0.036 -22.097 -0.035 -22.098 -0.034 -22.099 -0.034 -22.071 -0.037 -22.070 -0.037 -22.057 -0.038 -22.038 -0.040 -21.939 -0.061 -21.909 -0.069 14.147 0.050 3.778 0.019 44.610 42.241
-22.600 -22.097 -0.036 -22.098 -0.034 -22.099 -0.034 -22.099 -0.033 -22.072 -0.036 -22.071 -0.036 -22.058 -0.038 -22.039 -0.040 -21.941 -0.060 -21.911 -0.069 14.138 0.051 3.783 0.019 44.610 42.242
-22.200 -22.097 -0.035 -22.099 -0.034 -22.099 -0.033 -22.100 -0.032 -22.073 -0.036 -22.072 -0.036 -22.058 -0.037 -22.040 -0.039 -21.943 -0.060 -21.913 -0.069 14.128 0.051 3.787 0.020 44.610 42.245
-21.800 -22.098 -0.034 -22.099 -0.033 -22.100 -0.033 -22.100 -0.032 -22.073 -0.035 -22.072 -0.035 -22.059 -0.036 -22.040 -0.039 -21.945 -0.059 -21.915 -0.068 14.119 0.052 3.792 0.020 44.610 42.251
-21.400 -22.098 -0.034 -22.099 -0.033 -22.100 -0.032 -22.101 -0.031 -22.074 -0.035 -22.073 -0.035 -22.060 -0.036 -22.041 -0.038 -21.947 -0.059 -21.917 -0.068 14.109 0.053 3.797 0.021 44.610 42.258
-21.000 -22.099 -0.033 -22.100 -0.032 -22.100 -0.031 -22.101 -0.031 -22.074 -0.034 -22.073 -0.034 -22.060 -0.035 -22.042 -0.038 -21.948 -0.059 -21.919 -0.068 14.100 0.054 3.802 0.021 44.610 42.266
-20.600 -22.099 -0.033 -22.100 -0.031 -22.101 -0.031 -22.101 -0.030 -22.075 -0.033 -22.074 -0.033 -22.061 -0.035 -22.043 -0.037 -21.950 -0.059 -21.921 -0.068 14.090 0.055 3.806 0.022 44.609 42.276
-20.200 -22.099 -0.032 -22.100 -0.031 -22.101 -0.030 -22.101 -0.030 -22.075 -0.033 -22.074 -0.033 -22.061 -0.034 -22.043 -0.037 -21.952 -0.059 -21.923 -0.068 14.080 0.057 3.811 0.022 44.609 42.286
-19.800 -22.099 -0.032 -22.100 -0.031 -22.101 -0.030 -22.102 -0.030 -22.075 -0.032 -22.074 -0.032 -22.062 -0.033 -22.044 -0.036 -21.953 -0.059 -21.925 -0.068 14.070 0.058 3.815 0.023 44.609 42.296
-19.400 -22.100 -0.031 -22.101 -0.030 -22.101 -0.030 -22.102 -0.029 -22.076 -0.031 -22.075 -0.031 -22.062 -0.033 -22.045 -0.036 -21.955 -0.059 -21.926 -0.068 14.060 0.059 3.820 0.023 44.609 42.306
-19.000 -22.100 -0.031 -22.101 -0.030 -22.101 -0.029 -22.102 -0.029 -22.076 -0.031 -22.075 -0.031 -22.063 -0.032 -22.045 -0.035 -21.956 -0.059 -21.928 -0.068 14.051 0.061 3.824 0.024 44.609 42.315
-18.600 -22.100 -0.031 -22.101 -0.029 -22.101 -0.029 -22.102 -0.029 -22.076 -0.030 -22.075 -0.030 -22.063 -0.032 -22.046 -0.035 -21.957 -0.059 -21.929 -0.068 14.041 0.062 3.828 0.025 44.608 42.324
-18.200 -22.100 -0.030 -22.101 -0.029 -22.101 -0.029 -22.102 -0.028 -22.077 -0.029 -22.076 -0.030 -22.064 -0.031 -22.047 -0.034 -21.959 -0.059 -21.931 -0.068 14.031 0.063 3.832 0.025 44.608 42.332
-17.800 -22.100 -0.030 -22.101 -0.029 -22.101 -0.028 -22.102 -0.028 -22.077 -0.029 -22.076 -0.029 -22.064 -0.030 -22.047 -0.034 -21.960 -0.059 -21.932 -0.069 14.022 0.064 3.837 0.026 44.608 42.340
-17.400 -22.100 -0.030 -22.101 -0.029 -22.101 -0.028 -22.102 -0.028 -22.078 -0.028 -22.077 -0.028 -22.065 -0.030 -22.048 -0.034 -21.961 -0.059 -21.934 -0.069 14.013 0.065 3.841 0.026 44.608 42.346
-17.000 -22.100 -0.029 -22.101 -0.028 -22.101 -0.028 -22.103 -0.027 -22.078 -0.028 -22.077 -0.028 -22.065 -0.029 -22.048 -0.033 -21.962 -0.060 -21.935 -0.069 14.004 0.066 3.845 0.026 44.608 42.352
-16.600 -22.100 -0.029 -22.101 -0.028 -22.102 -0.028 -22.103 -0.027 -22.078 -0.027 -22.077 -0.027 -22.066 -0.029 -22.049 -0.033 -21.963 -0.060 -21.937 -0.069 13.996 0.067 3.849 0.027 44.607 42.357
-16.200 -22.100 -0.029 -22.101 -0.028 -22.102 -0.027 -22.103 -0.027 -22.079 -0.026 -22.078 -0.026 -22.066 -0.028 -22.050 -0.033 -21.965 -0.060 -21.938 -0.070 13.988 0.068 3.852 0.027 44.607 42.361
-15.800 -22.100 -0.029 -22.101 -0.028 -22.102 -0.027 -22.103 -0.027 -22.079 -0.026 -22.078 -0.026 -22.067 -0.028 -22.050 -0.033 -21.966 -0.061 -21.939 -0.070 13.980 0.068 3.856 0.027 44.607 42.364
-15.400 -22.100 -0.029 -22.101 -0.028 -22.102 -0.027 -22.103 -0.027 -22.080 -0.025 -22.079 -0.025 -22.067 -0.027 -22.051 -0.032 -21.967 -0.061 -21.940 -0.071 13.973 0.069 3.860 0.027 44.607 42.367
-15.000 -22.101 -0.028 -22.102 -0.027 -22.102 -0.027 -22.104 -0.027 -22.080 -0.025 -22.080 -0.025 -22.068 -0.027 -22.051 -0.032 -21.968 -0.061 -21.942 -0.071 13.966 0.069 3.863 0.027 44.607 42.368
-14.600 -22.101 -0.028 -22.102 -0.027 -22.103 -0.027 -22.104 -0.027 -22.081 -0.024 -22.080 -0.024 -22.069 -0.027 -22.052 -0.032 -21.969 -0.062 -21.943 -0.071 13.959 0.069 3.867 0.028 44.607 42.369
-14.200 -22.101 -0.029 -22.102 -0.028 -22.103 -0.027 -22.105 -0.027 -22.082 -0.024 -22.081 -0.024 -22.069 -0.027 -22.053 -0.032 -21.970 -0.062 -21.944 -0.072 13.953 0.069 3.870 0.028 44.607 42.370
-13.800 -22.102 -0.029 -22.103 -0.028 -22.103 -0.027 -22.105 -0.027 -22.082 -0.024 -22.081 -0.024 -22.070 -0.027 -22.054 -0.032 -21.971 -0.063 -21.945 -0.072 13.946 0.069 3.874 0.028 44.607 42.370
-13.400 -22.102 -0.029 -22.103 -0.028 -22.104 -0.028 -22.106 -0.027 -22.083 -0.024 -22.082 -0.024 -22.071 -0.027 -22.054 -0.033 -21.972 -0.063 -21.946 -0.073 13.940 0.069 3.877 0.028 44.607 42.370
-13.000 -22.103 -0.029 -22.104 -0.028 -22.104 -0.028 -22.107 -0.027 -22.084 -0.024 -22.083 -0.024 -22.072 -0.027 -22.055 -0.033 -21.973 -0.064 -21.947 -0.073 13.934 0.069 3.881 0.028 44.607 42.370
-12.600 -22.103 -0.030 -22.104 -0.029 -22.105 -0.028 -22.107 -0.028 -22.085 -0.025 -22.084 -0.025 -22.072 -0.027 -22.056 -0.033 -21.974 -0.064 -21.948 -0.074 13.929 0.068 3.885 0.028 44.607 42.369
-12.200 -22.104 -0.031 -22.105 -0.029 -22.106 -0.029 -22.108 -0.028 -22.086 -0.025 -22.085 -0.025 -22.073 -0.028 -22.057 -0.034 -21.975 -0.065 -21.949 -0.074 13.923 0.068 3.888 0.027 44.607 42.368
-11.800 -22.105 -0.031 -22.106 -0.030 -22.107 -0.030 -22.109 -0.029 -22.087 -0.026 -22.086 -0.026 -22.074 -0.028 -22.058 -0.034 -21.976 -0.065 -21.950 -0.074 13.918 0.068 3.892 0.027 44.607 42.367
-11.400 -22.105 -0.032 -22.107 -0.031 -22.107 -0.031 -22.110 -0.029 -22.088 -0.027 -22.087 -0.027 -22.075 -0.029 -22.059 -0.035 -21.977 -0.065 -21.952 -0.075 13.912 0.067 3.896 0.027 44.608 42.364
-11.000 -22.106 -0.033 -22.108 -0.032 -22.108 -0.031 -22.111 -0.030 -22.089 -0.028 -22.088 -0.028 -22.076 -0.030 -22.060 -0.035 -21.978 -0.066 -21.953 -0.075 13.907 0.067 3.900 0.027 44.608 42.361
-10.600 -22.107 -0.034 -22.109 -0.033 -22.109 -0.032 -22.112 -0.031 -22.090 -0.028 -22.089 -0.029 -22.078 -0.031 -22.061 -0.036 -21.979 -0.066 -21.954 -0.076 13.903 0.066 3.904 0.027 44.608 42.358
-10.200 -22.108 -0.035 -22.110 -0.034 -22.110 -0.033 -22.113 -0.032 -22.091 -0.029 -22.090 -0.029 -22.079 -0.032 -22.062 -0.037 -21.980 -0.067 -21.955 -0.076 13.898 0.065 3.908 0.027 44.608 42.353
-9.800 -22.109 -0.036 -22.111 -0.035 -22.111 -0.034 -22.115 -0.032 -22.093 -0.030 -22.092 -0.030 -22.080 -0.033 -22.063 -0.038 -21.981 -0.067 -21.956 -0.076 13.894 0.065 3.912 0.026 44.609 42.348
-9.400 -22.110 -0.036 -22.112 -0.035 -22.112 -0.035 -22.116 -0.033 -22.094 -0.031 -22.093 -0.031 -22.081 -0.034 -22.064 -0.038 -21.982 -0.067 -21.957 -0.077 13.890 0.064 3.915 0.026 44.609 42.341
-9.000 -22.111 -0.037 -22.113 -0.036 -22.113 -0.036 -22.117 -0.034 -22.095 -0.032 -22.094 -0.032 -22.082 -0.034 -22.066 -0.039 -21.983 -0.068 -21.958 -0.077 13.886 0.062 3.919 0.025 44.609 42.334
-8.600 -22.112 -0.038 -22.114 -0.037 -22.115 -0.037 -22.118 -0.035 -22.097 -0.033 -22.096 -0.033 -22.084 -0.035 -22.067 -0.040 -21.984 -0.068 -21.959 -0.077 13.882 0.061 3.923 0.025 44.610 42.326
-8.200 -22.113 -0.039 -22.115 -0.038 -22.116 -0.037 -22.120 -0.035 -22.098 -0.034 -22.097 -0.034 -22.085 -0.036 -22.068 -0.041 -21.985 -0.068 -21.960 -0.077 13.878 0.060 3.927 0.024 44.610 42.317
-7.800 -22.114 -0.040 -22.116 -0.039 -22.117 -0.038 -22.121 -0.036 -22.099 -0.035 -22.098 -0.035 -22.086 -0.037 -22.069 -0.041 -21.986 -0.068 -21.961 -0.077 13.874 0.058 3.931 0.024 44.611 42.308
-7.400 -22.115 -0.041 -22.117 -0.040 -22.118 -0.039 -22.122 -0.037 -22.101 -0.036 -22.100 -0.036 -22.088 -0.038 -22.071 -0.042 -21.987 -0.069 -21.962 -0.078 13.870 0.057 3.935 0.023 44.611 42.297
-7.000 -22.116 -0.041 -22.118 -0.040 -22.119 -0.040 -22.124 -0.037 -22.102 -0.037 -22.101 -0.037 -22.089 -0.039 -22.072 -0.043 -21.988 -0.069 -21.963 -0.078 13.866 0.055 3.939 0.023 44.611 42.286
-6.600 -22.117 -0.042 -22.119 -0.041 -22.120 -0.040 -22.125 -0.038 -22.103 -0.038 -22.102 -0.038 -22.090 -0.040 -22.073 -0.043 -21.989 -0.069 -21.964 -0.078 13.862 0.054 3.943 0.022 44.612 42.274
-6.200 -22.118 -0.043 -22.120 -0.041 -22.121 -0.041 -22.126 -0.038 -22.105 -0.039 -22.104 -0.039 -22.092 -0.040 -22.074 -0.044 -21.990 -0.069 -21.965 -0.078 13.857 0.052 3.947 0.022 44.612 42.262
-5.800 -22.119 -0.043 -22.121 -0.042 -22.122 -0.041 -22.127 -0.039 -22.106 -0.039 -22.105 -0.039 -22.093 -0.041 -22.076 -0.045 -21.991 -0.069 -21.965 -0.078 13.853 0.051 3.951 0.021 44.612 42.249
-5.400 -22.120 -0.044 -22.122 -0.043 -22.123 -0.042 -22.129 -0.039 -22.108 -0.040 -22.107 -0.040 -22.094 -0.042 -22.077 -0.045 -21.992 -0.069 -21.966 -0.078 13.848 0.049 3.955 0.020 44.613 42.236
-5.000 -22.121 -0.044 -22.123 -0.043 -22.124 -0.042 -22.130 -0.040 -22.109 -0.041 -22.108 -0.041 -22.096 -0.042 -22.078 -0.046 -21.993 -0.069 -21.967 -0.078 13.842 0.048 3.959 0.020 44.613 42.223
-4.600 -22.122 -0.045 -22.124 -0.043 -22.125 -0.043 -22.131 -0.040 -22.110 -0.041 -22.109 -0.041 -22.097 -0.043 -22.080 -0.046 -21.994 -0.069 -21.968 -0.078 13.836 0.046 3.963 0.019 44.613 42.210
-4.200 -22.122 -0.045 -22.124 -0.044 -22.126 -0.043 -22.132 -0.041 -22.111 -0.042 -22.110 -0.042 -22.098 -0.043 -22.081 -0.047 -21.995 -0.069 -21.969 -0.077 13.830 0.045 3.968 0.019 44.613 42.198
-3.800 -22.123 -0.045 -22.125 -0.044 -22.126 -0.043 -22.133 -0.041 -22.113 -0.042 -22.112 -0.042 -22.099 -0.044 -22.082 -0.047 -21.995 -0.069 -21.970 -0.077 13.823 0.044 3.972 0.018 44.613 42.186
-3.400 -22.123 -0.045 -22.126 -0.044 -22.127 -0.044 -22.134 -0.041 -22.114 -0.043 -22.113 -0.043 -22.101 -0.044 -22.083 -0.047 -21.996 -0.069 -21.971 -0.077 13.816 0.043 3.977 0.018 44.613 42.175
-3.000 -22.124 -0.046 -22.126 -0.044 -22.128 -0.044 -22.134 -0.041 -22.115 -0.043 -22.114 -0.043 -22.102 -0.045 -22.084 -0.048 -21.997 -0.069 -21.971 -0.077 13.808 0.042 3.982 0.017 44.614 42.165
-2.600 -22.124 -0.046 -22.127 -0.045 -22.128 -0.044 -22.135 -0.041 -22.116 -0.043 -22.115 -0.044 -22.103 -0.045 -22.085 -0.048 -21.998 -0.069 -21.972 -0.077 13.799 0.041 3.987 0.017 44.614 42.157
-2.200 -22.125 -0.046 -22.127 -0.045 -22.128 -0.044 -22.136 -0.042 -22.117 -0.044 -22.116 -0.044 -22.104 -0.045 -22.086 -0.048 -21.999 -0.068 -21.973 -0.076 13.790 0.040 3.992 0.017 44.613 42.151
-1.800 -22.125 -0.046 -22.127 -0.045 -22.129 -0.044 -22.136 -0.042 -22.118 -0.044 -22.117 -0.044 -22.105 -0.046 -22.087 -0.048 -22.000 -0.068 -21.974 -0.076 13.779 0.040 3.998 0.017 44.613 42.146
-1.400 -22.125 -0.046 -22.127 -0.045 -22.129 -0.044 -22.136 -0.042 -22.119 -0.044 -22.118 -0.044 -22.106 -0.046 -22.088 -0.048 -22.000 -0.068 -21.974 -0.075 13.769 0.040 4.003 0.017 44.613 42.142
-1.000 -22.125 -0.046 -22.127 -0.044 -22.129 -0.044 -22.137 -0.042 -22.120 -0.044 -22.119 -0.044 -22.107 -0.046 -22.089 -0.048 -22.001 -0.067 -21.975 -0.075 13.757 0.040 4.009 0.017 44.613 42.139
-0.600 -22.125 -0.045 -22.127 -0.044 -22.129 -0.044 -22.137 -0.042 -22.120 -0.044 -22.119 -0.044 -22.107 -0.046 -22.090 -0.048 -22.002 -0.067 -21.976 -0.075 13.746 0.039 4.015 0.017 44.613 42.138
-0.200 -22.125 -0.045 -22.127 -0.044 -22.129 -0.043 -22.137 -0.041 -22.121 -0.044 -22.120 -0.044 -22.108 -0.046 -22.091 -0.048 -22.002 -0.067 -21.976 -0.074 13.733 0.039 4.021 0.017 44.613 42.137
0.200 -22.125 -0.045 -22.127 -0.044 -22.129 -0.043 -22.137 -0.041 -22.122 -0.044 -22.121 -0.044 -22.109 -0.046 -22.091 -0.048 -22.003 -0.066 -21.977 -0.074 13.721 0.040 4.027 0.017 44.612 42.137
0.600 -22.124 -0.045 -22.127 -0.043 -22.129 -0.043 -22.137 -0.041 -22.122 -0.044 -22.121 -0.044 -22.110 -0.046 -22.092 -0.048 -22.003 -0.066 -21.978 -0.073 13.708 0.040 4.033 0.017 44.612 42.138
1.000 -22.124 -0.044 -22.127 -0.043 -22.128 -0.042 -22.137 -0.041 -22.123 -0.044 -22.122 -0.044 -22.110 -0.046 -22.093 -0.048 -22.004 -0.065 -21.978 -0.073 13.695 0.040 4.039 0.017 44.611 42.140
1.400 -22.124 -0.044 -22.126 -0.043 -22.128 -0.042 -22.137 -0.040 -22.123 -0.044 -22.122 -0.044 -22.111 -0.045 -22.093 -0.048 -22.004 -0.064 -21.979 -0.072 13.681 0.040 4.045 0.017 44.611 42.142
1.800 -22.123 -0.043 -22.126 -0.042 -22.128 -0.042 -22.137 -0.040 -22.124 -0.044 -22.123 -0.044 -22.111 -0.045 -22.094 -0.047 -22.005 -0.064 -21.979 -0.071 13.668 0.041 4.051 0.018 44.611 42.144
2.200 -22.123 -0.043 -22.126 -0.042 -22.127 -0.041 -22.137 -0.039 -22.124 -0.043 -22.123 -0.043 -22.112 -0.045 -22.094 -0.047 -22.005 -0.063 -21.979 -0.071 13.654 0.041 4.056 0.018 44.610 42.147
2.600 -22.122 -0.042 -22.125 -0.041 -22.127 -0.040 -22.137 -0.039 -22.125 -0.043 -22.124 -0.043 -22.112 -0.045 -22.095 -0.047 -22.006 -0.063 -21.980 -0.070 13.641 0.041 4.062 0.018 44.610 42.150
3.000 -22.122 -0.042 -22.125 -0.040 -22.126 -0.040 -22.136 -0.038 -22.125 -0.043 -22.124 -0.043 -22.112 -0.044 -22.095 -0.046 -22.006 -0.062 -21.980 -0.069 13.628 0.042 4.068 0.018 44.609 42.152
3.400 -22.121 -0.041 -22.124 -0.040 -22.126 -0.039 -22.136 -0.038 -22.125 -0.042 -22.124 -0.042 -22.113 -0.044 -22.095 -0.046 -22.006 -0.061 -21.980 -0.069 13.615 0.042 4.073 0.019 44.609 42.155
3.800 -22.121 -0.040 -22.123 -0.039 -22.125 -0.038 -22.136 -0.037 -22.126 -0.042 -22.125 -0.042 -22.113 -0.043 -22.096 -0.045 -22.007 -0.060 -21.981 -0.068 13.602 0.043 4.079 0.019 44.608 42.158
4.200 -22.120 -0.040 -22.123 -0.038 -22.125 -0.038 -22.135 -0.036 -22.126 -0.041 -22.125 -0.041 -22.113 -0.043 -22.096 -0.045 -22.007 -0.060 -21.981 -0.067 13.589 0.043 4.084 0.019 44.608 42.161
4.600 -22.119 -0.039 -22.122 -0.038 -22.124 -0.037 -22.135 -0.036 -22.126 -0.041 -22.125 -0.041 -22.114 -0.042 -22.096 -0.044 -22.007 -0.059 -21.981 -0.067 13.577 0.044 4.089 0.019 44.607 42.163
5.000 -22.119 -0.038 -22.122 -0.037 -22.123 -0.036 -22.135 -0.035 -22.126 -0.040 -22.125 -0.040 -22.114 -0.042 -22.096 -0.044 -22.007 -0.058 -21.981 -0.066 13.566 0.044 4.094 0.020 44.607 42.166
5.400 -22.118 -0.037 -22.121 -0.036 -22.123 -0.035 -22.134 -0.034 -22.126 -0.040 -22.125 -0.040 -22.114 -0.041 -22.097 -0.043 -22.007 -0.058 -21.982 -0.065 13.554 0.044 4.098 0.020 44.606 42.167
5.800 -22.117 -0.037 -22.120 -0.035 -22.122 -0.035 -22.134 -0.034 -22.126 -0.039 -22.125 -0.039 -22.114 -0.041 -22.097 -0.043 -22.007 -0.057 -21.982 -0.065 13.544 0.045 4.103 0.020 44.606 42.168
6.200 -22.117 -0.036 -22.120 -0.035 -22.122 -0.034 -22.134 -0.033 -22.126 -0.039 -22.125 -0.039 -22.114 -0.040 -22.097 -0.042 -22.007 -0.056 -21.982 -0.064 13.534 0.045 4.107 0.020 44.605 42.169
6.600 -22.116 -0.035 -22.119 -0.034 -22.121 -0.033 -22.133 -0.033 -22.126 -0.038 -22.125 -0.038 -22.114 -0.039 -22.097 -0.041 -22.007 -0.056 -21.982 -0.064 13.524 0.045 4.111 0.020 44.605 42.169
7.000 -22.115 -0.035 -22.119 -0.033 -22.120 -0.033 -22.133 -0.032 -22.126 -0.037 -22.125 -0.038 -22.114 -0.039 -22.097 -0.041 -22.007 -0.055 -21.982 -0.063 13.515 0.045 4.114 0.020 44.605 42.168
7.400 -22.115 -0.034 -22.118 -0.033 -22.120 -0.032 -22.133 -0.031 -22.126 -0.037 -22.125 -0.037 -22.114 -0.038 -22.097 -0.041 -22.007 -0.055 -21.982 -0.063 13.507 0.045 4.117 0.021 44.604 42.166
7.800 -22.114 -0.034 -22.117 -0.032 -22.119 -0.032 -22.132 -0.031 -22.126 -0.037 -22.125 -0.037 -22.114 -0.038 -22.096 -0.040 -22.007 -0.054 -21.982 -0.062 13.500 0.045 4.120 0.021 44.604 42.164
8.200 -22.114 -0.034 -22.117 -0.032 -22.119 -0.031 -22.132 -0.031 -22.126 -0.036 -22.125 -0.036 -22.114 -0.038 -22.096 -0.040 -22.007 -0.054 -21.982 -0.062 13.494 0.045 4.122 0.020 44.604 42.161
8.600 -22.113 -0.034 -22.116 -0.032 -22.118 -0.031 -22.132 -0.030 -22.126 -0.036 -22.125 -0.036 -22.113 -0.037 -22.096 -0.039 -22.007 -0.054 -21.982 -0.062 13.488 0.044 4.124 0.020 44.603 42.157
9.000 -22.112 -0.034 -22.116 -0.032 -22.118 -0.031 -22.131 -0.030 -22.125 -0.036 -22.124 -0.036 -22.113 -0.037 -22.096 -0.039 -22.007 -0.054 -21.982 -0.062 13.483 0.044 4.125 0.020 44.603 42.152
9.400 -22.112 -0.034 -22.115 -0.032 -22.117 -0.031 -22.131 -0.030 -22.125 -0.035 -22.124 -0.035 -22.113 -0.037 -22.095 -0.039 -22.007 -0.053 -21.982 -0.062 13.480 0.043 4.126 0.020 44.603 42.146
9.800 -22.111 -0.034 -22.115 -0.032 -22.117 -0.031 -22.130 -0.030 -22.124 -0.035 -22.123 -0.035 -22.112 -0.037 -22.095 -0.039 -22.007 -0.053 -21.981 -0.062 13.476 0.043 4.127 0.020 44.602 42.140
10.200 -22.111 -0.034 -22.114 -0.032 -22.116 -0.031 -22.130 -0.030 -22.124 -0.035 -22.123 -0.035 -22.112 -0.037 -22.094 -0.039 -22.006 -0.054 -21.981 -0.062 13.473 0.042 4.127 0.019 44.602 42.132
10.600 -22.110 -0.034 -22.113 -0.033 -22.116 -0.032 -22.129 -0.030 -22.123 -0.035 -22.122 -0.035 -22.111 -0.037 -22.094 -0.039 -22.006 -0.054 -21.981 -0.062 13.471 0.041 4.127 0.019 44.602 42.123
11.000 -22.109 -0.035 -22.113 -0.033 -22.115 -0.032 -22.129 -0.030 -22.122 -0.035 -22.122 -0.035 -22.110 -0.037 -22.093 -0.039 -22.006 -0.054 -21.981 -0.062 13.468 0.040 4.127 0.018 44.601 42.114
11.400 -22.108 -0.035 -22.112 -0.033 -22.114 -0.033 -22.128 -0.031 -22.122 -0.035 -22.121 -0.035 -22.109 -0.037 -22.092 -0.039 -22.005 -0.054 -21.981 -0.063 13.466 0.039 4.126 0.018 44.601 42.103
11.800 -22.107 -0.036 -22.111 -0.034 -22.113 -0.033 -22.127 -0.031 -22.121 -0.035 -22.120 -0.036 -22.109 -0.037 -22.091 -0.039 -22.005 -0.055 -21.980 -0.063 13.463 0.038 4.126 0.017 44.601 42.091
12.200 -22.106 -0.036 -22.110 -0.035 -22.112 -0.034 -22.127 -0.031 -22.120 -0.036 -22.119 -0.036 -22.108 -0.037 -22.090 -0.039 -22.004 -0.055 -21.980 -0.064 13.461 0.037 4.125 0.017 44.600 42.079
12.600 -22.105 -0.037 -22.109 -0.035 -22.111 -0.034 -22.126 -0.032 -22.119 -0.036 -22.118 -0.036 -22.106 -0.037 -22.089 -0.040 -22.004 -0.056 -21.980 -0.064 13.458 0.036 4.125 0.016 44.600 42.067
13.000 -22.104 -0.038 -22.108 -0.036 -22.110 -0.035 -22.124 -0.032 -22.117 -0.036 -22.117 -0.036 -22.105 -0.038 -22.088 -0.040 -22.003 -0.056 -21.979 -0.065 13.454 0.035 4.124 0.016 44.599 42.054
13.400 -22.103 -0.039 -22.106 -0.037 -22.109 -0.036 -22.123 -0.033 -22.116 -0.037 -22.115 -0.037 -22.104 -0.038 -22.087 -0.040 -22.003 -0.057 -21.979 -0.066 13.450 0.034 4.124 0.015 44.598 42.043
13.800 -22.101 -0.040 -22.105 -0.038 -22.107 -0.037 -22.122 -0.034 -22.114 -0.037 -22.114 -0.037 -22.102 -0.039 -22.086 -0.041 -22.002 -0.058 -21.978 -0.067 13.445 0.033 4.123 0.015 44.598 42.033
14.200 -22.099 -0.040 -22.103 -0.039 -22.106 -0.038 -22.120 -0.034 -22.113 -0.038 -22.112 -0.038 -22.101 -0.039 -22.084 -0.042 -22.001 -0.059 -21.977 -0.068 13.440 0.032 4.123 0.015 44.597 42.025
14.600 -22.098 -0.041 -22.101 -0.040 -22.104 -0.039 -22.118 -0.035 -22.111 -0.038 -22.110 -0.038 -22.099 -0.040 -22.083 -0.042 -22.000 -0.060 -21.977 -0.069 13.434 0.032 4.123 0.015 44.596 42.021
15.000 -22.096 -0.043 -22.100 -0.041 -22.102 -0.040 -22.116 -0.036 -22.109 -0.039 -22.108 -0.039 -22.097 -0.041 -22.081 -0.043 -21.999 -0.061 -21.976 -0.070 13.426 0.032 4.122 0.015 44.595 42.021
15.400 -22.094 -0.044 -22.097 -0.042 -22.100 -0.041 -22.114 -0.037 -22.107 -0.040 -22.106 -0.040 -22.095 -0.041 -22.079 -0.044 -21.998 -0.062 -21.976 -0.071 13.418 0.032 4.123 0.015 44.594 42.027
15.800 -22.091 -0.045 -22.095 -0.043 -22.097 -0.042 -22.112 -0.038 -22.105 -0.041 -22.104 -0.041 -22.093 -0.042 -22.077 -0.045 -21.998 -0.063 -21.975 -0.072 13.409 0.033 4.123 0.015 44.593 42.038
16.200 -22.089 -0.046 -22.093 -0.044 -22.095 -0.043 -22.110 -0.039 -22.102 -0.041 -22.102 -0.042 -22.091 -0.043 -22.075 -0.046 -21.997 -0.064 -21.974 -0.073 13.398 0.035 4.123 0.016 44.592 42.056
16.600 -22.086 -0.047 -22.090 -0.046 -22.092 -0.045 -22.107 -0.040 -22.100 -0.042 -22.099 -0.042 -22.089 -0.044 -22.073 -0.047 -21.995 -0.066 -21.973 -0.075 13.386 0.037 4.124 0.017 44.590 42.078
17.000 -22.083 -0.049 -22.087 -0.047 -22.090 -0.046 -22.104 -0.041 -22.097 -0.043 -22.097 -0.043 -22.086 -0.045 -22.071 -0.047 -21.994 -0.067 -21.972 -0.076 13.373 0.039 4.125 0.018 44.589 42.105
17.400 -22.081 -0.050 -22.084 -0.048 -22.087 -0.047 -22.101 -0.043 -22.095 -0.044 -22.094 -0.044 -22.084 -0.046 -22.069 -0.048 -21.993 -0.068 -21.971 -0.077 13.360 0.042 4.126 0.019 44.587 42.134
17.800 -22.077 -0.051 -22.081 -0.050 -22.084 -0.049 -22.098 -0.044 -22.092 -0.045 -22.091 -0.045 -22.081 -0.047 -22.066 -0.050 -21.992 -0.070 -21.970 -0.079 13.344 0.045 4.128 0.021 44.586 42.163
18.200 -22.074 -0.053 -22.078 -0.051 -22.080 -0.050 -22.095 -0.045 -22.089 -0.046 -22.088 -0.046 -22.078 -0.048 -22.064 -0.051 -21.991 -0.071 -21.969 -0.080 13.328 0.048 4.130 0.022 44.584 42.194
18.600 -22.071 -0.054 -22.075 -0.052 -22.077 -0.051 -22.091 -0.046 -22.086 -0.047 -22.085 -0.047 -22.075 -0.049 -22.061 -0.052 -21.989 -0.073 -21.968 -0.082 13.311 0.052 4.132 0.024 44.582 42.223
19.000 -22.067 -0.055 -22.071 -0.054 -22.073 -0.053 -22.087 -0.047 -22.082 -0.048 -22.082 -0.048 -22.073 -0.050 -22.059 -0.053 -21.988 -0.074 -21.967 -0.083 13.293 0.056 4.135 0.026 44.580 42.253
19.400 -22.064 -0.057 -22.067 -0.055 -22.070 -0.054 -22.084 -0.049 -22.079 -0.049 -22.078 -0.049 -22.069 -0.051 -22.056 -0.054 -21.986 -0.076 -21.966 -0.085 13.274 0.060 4.137 0.028 44.578 42.281
19.800 -22.060 -0.058 -22.064 -0.056 -22.066 -0.055 -22.080 -0.050 -22.076 -0.050 -22.075 -0.050 -22.066 -0.052 -22.053 -0.055 -21.985 -0.077 -21.965 -0.086 13.255 0.064 4.140 0.029 44.576 42.307
20.200 -22.056 -0.059 -22.060 -0.058 -22.062 -0.056 -22.076 -0.051 -22.072 -0.051 -22.072 -0.051 -22.063 -0.053 -22.050 -0.056 -21.983 -0.079 -21.963 -0.088 13.237 0.068 4.142 0.032 44.574 42.333
20.600 -22.052 -0.061 -22.056 -0.059 -22.058 -0.058 -22.072 -0.052 -22.069 -0.052 -22.068 -0.052 -22.060 -0.054 -22.047 -0.057 -21.982 -0.080 -21.962 -0.089 13.214 0.072 4.146 0.034 44.572 42.357
21.000 -22.048 -0.062 -22.052 -0.060 -22.054 -0.059 -22.067 -0.053 -22.065 -0.053 -22.065 -0.053 -22.057 -0.055 -22.044 -0.058 -21.980 -0.082 -21.961 -0.091 13.193 0.076 4.149 0.036 44.570 42.379
21.400 -22.044 -0.063 -22.047 -0.061 -22.050 -0.060 -22.063 -0.054 -22.062 -0.054 -22.061 -0.054 -22.053 -0.056 -22.041 -0.059 -21.978 -0.083 -21.959 -0.093 13.171 0.081 4.152 0.038 44.568 42.401
21.800 -22.040 -0.064 -22.043 -0.062 -22.045 -0.061 -22.059 -0.055 -22.058 -0.055 -22.057 -0.055 -22.050 -0.057 -22.038 -0.060 -21.977 -0.085 -21.958 -0.094 13.150 0.085 4.155 0.040 44.566 42.421
22.200 -22.035 -0.065 -22.039 -0.064 -22.041 -0.062 -22.055 -0.056 -22.054 -0.056 -22.053 -0.056 -22.046 -0.058 -22.035 -0.061 -21.975 -0.086 -21.957 -0.096 13.127 0.089 4.158 0.042 44.563 42.439
22.600 -22.031 -0.067 -22.034 -0.065 -22.037 -0.064 -22.050 -0.057 -22.050 -0.056 -22.050 -0.057 -22.043 -0.059 -22.032 -0.062 -21.973 -0.087 -21.955 -0.097 13.107 0.094 4.161 0.044 44.561 42.457
23.000 -22.027 -0.068 -22.030 -0.066 -22.032 -0.065 -22.046 -0.058 -22.046 -0.057 -22.046 -0.057 -22.039 -0.059 -22.029 -0.063 -21.972 -0.089 -21.954 -0.099 13.082 0.098 4.165 0.047 44.559 42.473
23.400 -22.022 -0.069 -22.026 -0.067 -22.028 -0.066 -22.041 -0.059 -22.043 -0.058 -22.042 -0.058 -22.036 -0.060 -22.026 -0.064 -21.970 -0.090 -21.952 -0.100 13.060 0.102 4.169 0.049 44.557 42.488
23.800 -22.018 -0.070 -22.021 -0.068 -22.023 -0.067 -22.037 -0.060 -22.039 -0.059 -22.038 -0.059 -22.032 -0.061 -22.022 -0.065 -21.968 -0.092 -21.951 -0.102 13.037 0.106 4.172 0.051 44.554 42.502
24.200 -22.013 -0.071 -22.017 -0.069 -22.019 -0.068 -22.032 -0.061 -22.035 -0.060 -22.034 -0.060 -22.029 -0.062 -22.019 -0.066 -21.966 -0.093 -21.949 -0.103 13.014 0.110 4.176 0.053 44.552 42.514
24.600 -22.009 -0.072 -22.012 -0.070 -22.014 -0.069 -22.028 -0.062 -22.031 -0.061 -22.031 -0.061 -22.025 -0.063 -22.016 -0.067 -21.964 -0.095 -21.948 -0.105 12.992 0.114 4.179 0.055 44.550 42.526
25.000 -22.004 -0.073 -22.007 -0.071 -22.009 -0.070 -22.023 -0.063 -22.027 -0.061 -22.027 -0.061 -22.022 -0.064 -22.013 -0.068 -21.962 -0.096 -21.946 -0.107 12.969 0.117 4.183 0.057 44.547 42.537
25.400 -22.000 -0.074 -22.003 -0.072 -22.005 -0.070 -22.018 -0.064 -22.023 -0.062 -22.023 -0.062 -22.018 -0.065 -22.010 -0.069 -21.961 -0.098 -21.945 -0.108 12.948 0.121 4.185 0.059 44.545 42.547
25.800 -21.995 -0.074 -21.998 -0.072 -22.000 -0.071 -22.014 -0.064 -22.020 -0.063 -22.019 -0.063 -22.014 -0.065 -22.007 -0.070 -21.959 -0.099 -21.943 -0.110 12.926 0.124 4.188 0.061 44.543 42.556
26.200 -21.990 -0.075 -21.994 -0.073 -21.996 -0.072 -22.010 -0.065 -22.016 -0.064 -22.015 -0.064 -22.011 -0.066 -22.003 -0.071 -21.957 -0.101 -21.942 -0.111 12.901 0.128 4.193 0.063 44.540 42.564
26.600 -21.986 -0.076 -21.989 -0.074 -21.991 -0.073 -22.005 -0.066 -22.012 -0.064 -22.012 -0.064 -22.008 -0.067 -22.000 -0.072 -21.955 -0.102 -21.940 -0.113 12.881 0.131 4.196 0.065 44.538 42.572
27.000 -21.981 -0.077 -21.985 -0.075 -21.987 -0.074 -22.001 -0.066 -22.008 -0.065 -22.008 -0.065 -22.004 -0.068 -21.997 -0.073 -21.953 -0.104 -21.938 -0.114 12.859 0.134 4.199 0.066 44.536 42.578
27.400 -21.977 -0.078 -21.980 -0.076 -21.982 -0.074 -21.996 -0.067 -22.005 -0.066 -22.004 -0.066 -22.001 -0.069 -21.994 -0.074 -21.951 -0.105 -21.937 -0.116 12.837 0.137 4.203 0.068 44.534 42.584
27.800 -21.973 -0.079 -21.976 -0.077 -21.978 -0.075 -21.992 -0.068 -22.001 -0.067 -22.001 -0.067 -21.997 -0.070 -21.991 -0.075 -21.949 -0.106 -21.935 -0.117 12.816 0.140 4.207 0.070 44.532 42.590
28.200 -21.968 -0.079 -21.972 -0.077 -21.974 -0.076 -21.988 -0.068 -21.998 -0.067 -21.997 -0.068 -21.994 -0.070 -21.988 -0.076 -21.948 -0.108 -21.934 -0.119 12.794 0.142 4.210 0.071 44.529 42.594
28.600 -21.964 -0.080 -21.967 -0.078 -21.969 -0.077 -21.983 -0.069 -21.994 -0.068 -21.994 -0.068 -21.991 -0.071 -21.985 -0.076 -21.946 -0.109 -21.932 -0.120 12.773 0.145 4.214 0.073 44.527 42.598
29.000 -21.960 -0.081 -21.963 -0.079 -21.965 -0.078 -21.979 -0.070 -21.991 -0.069 -21.990 -0.069 -21.988 -0.072 -21.982 -0.077 -21.944 -0.111 -21.931 -0.122 12.752 0.147 4.217 0.074 44.525 42.602
29.400 -21.955 -0.082 -21.959 -0.080 -21.961 -0.078 -21.975 -0.070 -21.987 -0.070 -21.987 -0.070 -21.985 -0.073 -21.979 -0.078 -21.942 -0.112 -21.929 -0.123 12.732 0.149 4.221 0.076 44.523 42.605
29.800 -21.951 -0.083 -21.955 -0.080 -21.957 -0.079 -21.971 -0.071 -21.984 -0.070 -21.984 -0.071 -21.982 -0.074 -21.977 -0.079 -21.940 -0.113 -21.928 -0.125 12.712 0.151 4.224 0.077 44.521 42.608
30.200 -21.947 -0.083 -21.951 -0.081 -21.953 -0.080 -21.967 -0.072 -21.981 -0.071 -21.981 -0.071 -21.978 -0.075 -21.974 -0.081 -21.939 -0.115 -21.926 -0.126 12.692 0.153 4.228 0.078 44.519 42.611
30.600 -21.943 -0.084 -21.947 -0.082 -21.949 -0.081 -21.964 -0.072 -21.977 -0.072 -21.977 -0.072 -21.976 -0.076 -21.971 -0.082 -21.937 -0.116 -21.924 -0.128 12.673 0.155 4.231 0.080 44.517 42.613
31.000 -21.939 -0.085 -21.943 -0.083 -21.945 -0.081 -21.960 -0.073 -21.974 -0.073 -21.974 -0.073 -21.973 -0.077 -21.968 -0.083 -21.935 -0.118 -21.923 -0.129 12.655 0.157 4.234 0.081 44.515 42.615
31.400 -21.935 -0.086 -21.939 -0.084 -21.941 -0.082 -21.956 -0.074 -21.971 -0.074 -21.971 -0.074 -21.970 -0.078 -21.966 -0.084 -21.933 -0.119 -21.921 -0.131 12.637 0.158 4.237 0.082 44.513 42.617
31.800 -21.932 -0.087 -21.935 -0.085 -21.937 -0.083 -21.953 -0.075 -21.968 -0.075 -21.968 -0.075 -21.967 -0.079 -21.963 -0.085 -21.932 -0.121 -21.920 -0.132 12.619 0.160 4.240 0.083 44.512 42.619
32.200 -21.928 -0.088 -21.931 -0.086 -21.934 -0.084 -21.949 -0.075 -21.965 -0.076 -21.965 -0.076 -21.964 -0.080 -21.961 -0.086 -21.930 -0.122 -21.918 -0.133 12.603 0.162 4.242 0.084 44.510 42.621
32.600 -21.924 -0.089 -21.928 -0.086 -21.930 -0.085 -21.946 -0.076 -21.962 -0.076 -21.962 -0.077 -21.961 -0.081 -21.958 -0.087 -21.928 -0.123 -21.917 -0.135 12.587 0.163 4.245 0.085 44.508 42.623
33.000 -21.921 -0.090 -21.924 -0.088 -21.927 -0.086 -21.942 -0.077 -21.960 -0.077 -21.960 -0.078 -21.959 -0.082 -21.956 -0.088 -21.927 -0.125 -21.916 -0.136 12.572 0.165 4.247 0.086 44.507 42.624
33.400 -21.918 -0.091 -21.921 -0.089 -21.923 -0.087 -21.939 -0.078 -21.957 -0.078 -21.957 -0.079 -21.956 -0.083 -21.953 -0.089 -21.925 -0.126 -21.914 -0.138 12.557 0.166 4.249 0.088 44.505 42.626
33.800 -21.914 -0.092 -21.918 -0.090 -21.920 -0.088 -21.936 -0.079 -21.954 -0.079 -21.954 -0.080 -21.954 -0.084 -21.951 -0.090 -21.923 -0.127 -21.913 -0.139 12.543 0.168 4.251 0.089 44.503 42.628
34.200 -21.911 -0.093 -21.915 -0.091 -21.917 -0.089 -21.933 -0.080 -21.951 -0.080 -21.951 -0.081 -21.951 -0.085 -21.949 -0.091 -21.922 -0.129 -21.911 -0.141 12.529 0.169 4.253 0.089 44.502 42.630
34.600 -21.908 -0.095 -21.912 -0.092 -21.914 -0.090 -21.930 -0.081 -21.949 -0.081 -21.949 -0.082 -21.949 -0.086 -21.946 -0.093 -21.920 -0.130 -21.910 -0.142 12.515 0.171 4.255 0.090 44.500 42.631
35.000 -21.905 -0.096 -21.908 -0.093 -21.911 -0.092 -21.927 -0.082 -21.946 -0.082 -21.946 -0.083 -21.946 -0.087 -21.944 -0.094 -21.919 -0.132 -21.908 -0.143 12.502 0.172 4.257 0.091 44.499 42.633
35.400 -21.902 -0.097 -21.905 -0.095 -21.908 -0.093 -21.924 -0.083 -21.944 -0.084 -21.944 -0.084 -21.944 -0.088 -21.942 -0.095 -21.917 -0.133 -21.907 -0.145 12.489 0.173 4.259 0.092 44.497 42.635
35.800 -21.899 -0.099 -21.902 -0.096 -21.905 -0.094 -21.921 -0.084 -21.941 -0.085 -21.941 -0.085 -21.941 -0.089 -21.940 -0.096 -21.915 -0.134 -21.906 -0.146 12.476 0.175 4.261 0.093 44.496 42.636
36.200 -21.896 -0.100 -21.899 -0.097 -21.902 -0.096 -21.918 -0.086 -21.939 -0.086 -21.939 -0.086 -21.939 -0.091 -21.937 -0.097 -21.914 -0.136 -21.904 -0.148 12.463 0.176 4.263 0.094 44.495 42.638
36.600 -21.893 -0.101 -21.897 -0.099 -21.899 -0.097 -21.916 -0.087 -21.936 -0.087 -21.936 -0.087 -21.937 -0.092 -21.935 -0.099 -21.912 -0.137 -21.903 -0.149 12.450 0.177 4.265 0.095 44.493 42.639
37.000 -21.890 -0.103 -21.894 -0.100 -21.896 -0.099 -21.913 -0.088 -21.934 -0.088 -21.934 -0.088 -21.935 -0.093 -21.933 -0.100 -21.911 -0.138 -21.901 -0.150 12.437 0.178 4.267 0.096 44.492 42.641
37.400 -21.887 -0.104 -21.891 -0.102 -21.893 -0.100 -21.910 -0.090 -21.931 -0.089 -21.932 -0.090 -21.932 -0.094 -21.931 -0.101 -21.909 -0.140 -21.900 -0.152 12.425 0.180 4.269 0.097 44.491 42.642
37.800 -21.884 -0.106 -21.888 -0.103 -21.890 -0.102 -21.907 -0.091 -21.929 -0.090 -21.929 -0.091 -21.930 -0.095 -21.929 -0.102 -21.908 -0.141 -21.899 -0.153 12.412 0.181 4.271 0.097 44.489 42.644
38.200 -21.881 -0.108 -21.885 -0.105 -21.887 -0.103 -21.905 -0.092 -21.927 -0.092 -21.927 -0.092 -21.928 -0.096 -21.927 -0.103 -21.906 -0.142 -21.897 -0.155 12.399 0.182 4.273 0.098 44.488 42.645
38.600 -21.878 -0.109 -21.882 -0.106 -21.885 -0.105 -21.902 -0.094 -21.924 -0.093 -21.925 -0.093 -21.926 -0.098 -21.925 -0.105 -21.905 -0.144 -21.896 -0.156 12.386 0.183 4.275 0.099 44.486 42.646
39.000 -21.876 -0.111 -21.879 -0.108 -21.882 -0.106 -21.899 -0.096 -21.922 -0.094 -21.922 -0.094 -21.923 -0.099 -21.923 -0.106 -21.903 -0.145 -21.894 -0.157 12.373 0.184 4.277 0.100 44.485 42.648
39.400 -21.873 -0.113 -21.877 -0.110 -21.879 -0.108 -21.897 -0.097 -21.920 -0.095 -21.920 -0.096 -21.921 -0.100 -21.921 -0.107 -21.902 -0.146 -21.893 -0.158 12.360 0.185 4.280 0.100 44.484 42.649
39.800 -21.870 -0.114 -21.874 -0.112 -21.876 -0.110 -21.894 -0.099 -21.917 -0.097 -21.918 -0.097 -21.919 -0.101 -21.919 -0.108 -21.900 -0.148 -21.892 -0.160 12.347 0.186 4.282 0.101 44.482 42.650
40.200 -21.867 -0.116 -21.871 -0.113 -21.873 -0.112 -21.891 -0.100 -21.915 -0.098 -21.915 -0.098 -21.917 -0.103 -21.917 -0.110 -21.898 -0.149 -21.890 -0.161 12.334 0.187 4.285 0.102 44.481 42.651
40.600 -21.864 -0.118 -21.868 -0.115 -21.871 -0.113 -21.888 -0.102 -21.913 -0.099 -21.913 -0.099 -21.915 -0.104 -21.915 -0.111 -21.897 -0.150 -21.889 -0.162 12.320 0.188 4.287 0.103 44.480 42.652
41.000 -21.861 -0.120 -21.865 -0.117 -21.868 -0.115 -21.886 -0.104 -21.911 -0.100 -21.911 -0.101 -21.913 -0.105 -21.913 -0.112 -21.895 -0.151 -21.887 -0.164 12.307 0.189 4.290 0.103 44.478 42.653
41.400 -21.859 -0.122 -21.863 -0.119 -21.865 -0.117 -21.883 -0.105 -21.908 -0.102 -21.909 -0.102 -21.910 -0.106 -21.911 -0.113 -21.894 -0.153 -21.886 -0.165 12.294 0.190 4.292 0.104 44.477 42.654
41.800 -21.856 -0.123 -21.860 -0.120 -21.862 -0.119 -21.880 -0.107 -21.906 -0.103 -21.906 -0.103 -21.908 -0.107 -21.908 -0.114 -21.892 -0.154 -21.884 -0.166 12.281 0.190 4.295 0.105 44.476 42.655
42.200 -21.853 -0.125 -21.857 -0.122 -21.859 -0.121 -21.878 -0.109 -21.904 -0.104 -21.904 -0.105 -21.906 -0.109 -21.906 -0.115 -21.891 -0.155 -21.883 -0.167 12.268 0.191 4.297 0.105 44.474 42.656
42.600 -21.850 -0.127 -21.854 -0.124 -21.857 -0.122 -21.875 -0.110 -21.901 -0.106 -21.902 -0.106 -21.904 -0.110 -21.904 -0.117 -21.889 -0.156 -21.881 -0.169 12.255 0.192 4.300 0.106 44.473 42.656
43.000 -21.847 -0.129 -21.851 -0.126 -21.854 -0.124 -21.872 -0.112 -21.899 -0.107 -21.899 -0.107 -21.902 -0.111 -21.902 -0.118 -21.887 -0.157 -21.880 -0.170 12.242 0.193 4.302 0.107 44.472 42.657
43.400 -21.844 -0.131 -21.848 -0.128 -21.851 -0.126 -21.870 -0.114 -21.897 -0.108 -21.897 -0.108 -21.900 -0.112 -21.900 -0.119 -21.886 -0.159 -21.878 -0.171 12.229 0.194 4.305 0.107 44.470 42.658
43.800 -21.841 -0.133 -21.845 -0.130 -21.848 -0.128 -21.867 -0.116 -21.895 -0.109 -21.895 -0.110 -21.897 -0.114 -21.898 -0.120 -21.884 -0.160 -21.877 -0.172 12.216 0.194 4.307 0.108 44.469 42.658
44.200 -21.838 -0.135 -21.843 -0.132 -21.845 -0.130 -21.864 -0.117 -21.892 -0.111 -21.893 -0.111 -21.895 -0.115 -21.896 -0.121 -21.882 -0.161 -21.875 -0.174 12.203 0.195 4.310 0.108 44.468 42.659
44.600 -21.836 -0.137 -21.840 -0.134 -21.842 -0.132 -21.861 -0.119 -21.890 -0.112 -21.890 -0.112 -21.893 -0.116 -21.894 -0.123 -21.881 -0.162 -21.874 -0.175 12.190 0.196 4.312 0.109 44.466 42.659
45.000 -21.833 -0.139 -21.837 -0.136 -21.839 -0.134 -21.859 -0.121 -21.888 -0.113 -21.888 -0.114 -21.891 -0.117 -21.892 -0.124 -21.879 -0.163 -21.872 -0.176 12.177 0.196 4.314 0.110 44.465 42.660
45.400 -21.830 -0.141 -21.834 -0.138 -21.836 -0.136 -21.856 -0.123 -21.885 -0.115 -21.886 -0.115 -21.888 -0.118 -21.890 -0.125 -21.877 -0.165 -21.870 -0.177 12.164 0.197 4.316 0.110 44.463 42.660
45.800 -21.827 -0.143 -21.831 -0.139 -21.834 -0.138 -21.853 -0.125 -21.883 -0.116 -21.883 -0.116 -21.886 -0.120 -21.888 -0.126 -21.876 -0.166 -21.869 -0.178 12.152 0.198 4.319 0.111 44.462 42.660
46.200 -21.824 -0.144 -21.828 -0.141 -21.831 -0.140 -21.850 -0.126 -21.880 -0.117 -21.881 -0.118 -21.884 -0.121 -21.885 -0.127 -21.874 -0.167 -21.867 -0.180 12.139 0.198 4.321 0.111 44.461 42.660
46.600 -21.821 -0.146 -21.825 -0.143 -21.828 -0.141 -21.847 -0.128 -21.878 -0.119 -21.878 -0.119 -21.881 -0.122 -21.883 -0.128 -21.872 -0.168 -21.865 -0.181 12.127 0.199 4.323 0.112 44.459 42.660
47.000 -21.818 -0.148 -21.822 -0.145 -21.825 -0.143 -21.845 -0.130 -21.875 -0.120 -21.876 -0.120 -21.879 -0.123 -21.881 -0.130 -21.870 -0.169 -21.864 -0.182 12.114 0.200 4.325 0.112 44.458 42.661
47.400 -21.815 -0.150 -21.819 -0.147 -21.822 -0.145 -21.842 -0.132 -21.873 -0.121 -21.873 -0.122 -21.877 -0.125 -21.879 -0.131 -21.868 -0.170 -21.862 -0.183 12.102 0.200 4.327 0.113 44.457 42.661
47.800 -21.812 -0.152 -21.816 -0.149 -21.819 -0.147 -21.839 -0.134 -21.870 -0.123 -21.871 -0.123 -21.874 -0.126 -21.876 -0.132 -21.866 -0.172 -21.860 -0.185 12.090 0.201 4.328 0.113 44.455 42.660
48.200 -21.808 -0.154 -21.813 -0.151 -21.816 -0.149 -21.836 -0.135 -21.868 -0.124 -21.868 -0.124 -21.872 -0.127 -21.874 -0.133 -21.864 -0.173 -21.858 -0.186 12.077 0.201 4.330 0.114 44.454 42.660
48.600 -21.805 -0.156 -21.810 -0.153 -21.812 -0.151 -21.833 -0.137 -21.865 -0.125 -21.866 -0.126 -21.869 -0.128 -21.872 -0.134 -21.862 -0.174 -21.856 -0.187 12.065 0.202 4.331 0.114 44.452 42.660
49.000 -21.802 -0.158 -21.807 -0.155 -21.809 -0.153 -21.830 -0.139 -21.863 -0.127 -21.863 -0.127 -21.867 -0.130 -21.869 -0.135 -21.860 -0.175 -21.854 -0.188 12.053 0.202 4.333 0.115 44.451 42.660
49.400 -21.799 -0.160 -21.803 -0.157 -21.806 -0.155 -21.827 -0.141 -21.860 -0.128 -21.860 -0.128 -21.864 -0.131 -21.867 -0.137 -21.858 -0.176 -21.852 -0.189 12.042 0.203 4.334 0.115 44.449 42.660
49.800 -21.796 -0.162 -21.800 -0.159 -21.803 -0.157 -21.824 -0.143 -21.857 -0.130 -21.858 -0.130 -21.862 -0.132 -21.864 -0.138 -21.856 -0.178 -21.850 -0.191 12.030 0.203 4.336 0.116 44.448 42.660
50.200 -21.792 -0.164 -21.797 -0.161 -21.800 -0.159 -21.821 -0.145 -21.855 -0.131 -21.855 -0.131 -21.859 -0.134 -21.862 -0.139 -21.854 -0.179 -21.848 -0.192 12.018 0.204 4.337 0.116 44.446 42.659
50.600 -21.789 -0.166 -21.794 -0.163 -21.796 -0.161 -21.818 -0.147 -21.852 -0.133 -21.852 -0.133 -21.856 -0.135 -21.859 -0.141 -21.852 -0.180 -21.846 -0.193 12.006 0.204 4.338 0.117 44.445 42.659
51.000 -21.786 -0.168 -21.790 -0.165 -21.793 -0.163 -21.814 -0.148 -21.849 -0.134 -21.850 -0.134 -21.854 -0.136 -21.857 -0.142 -21.850 -0.181 -21.844 -0.194 11.994 0.205 4.339 0.117 44.443 42.658
51.400 -21.782 -0.170 -21.787 -0.167 -21.790 -0.165 -21.811 -0.150 -21.846 -0.136 -21.847 -0.136 -21.851 -0.138 -21.854 -0.143 -21.848 -0.183 -21.842 -0.196 11.983 0.205 4.340 0.118 44.442 42.658
51.800 -21.779 -0.172 -21.784 -0.169 -21.786 -0.167 -21.808 -0.152 -21.843 -0.137 -21.844 -0.137 -21.848 -0.139 -21.851 -0.145 -21.845 -0.184 -21.840 -0.197 11.972 0.206 4.340 0.118 44.440 42.658
52.200 -21.776 -0.174 -21.780 -0.171 -21.783 -0.169 -21.805 -0.154 -21.840 -0.139 -21.841 -0.139 -21.845 -0.141 -21.849 -0.146 -21.843 -0.185 -21.838 -0.198 11.961 0.206 4.341 0.119 44.439 42.657
52.600 -21.772 -0.176 -21.777 -0.173 -21.780 -0.171 -21.801 -0.156 -21.837 -0.140 -21.838 -0.140 -21.842 -0.142 -21.846 -0.148 -21.840 -0.187 -21.835 -0.200 11.950 0.207 4.341 0.119 44.437 42.657
53.000 -21.769 -0.178 -21.773 -0.175 -21.776 -0.173 -21.798 -0.158 -21.834 -0.142 -21.835 -0.142 -21.840 -0.144 -21.843 -0.149 -21.838 -0.188 -21.833 -0.201 11.939 0.207 4.341 0.120 44.436 42.656
53.400 -21.765 -0.180 -21.770 -0.177 -21.773 -0.175 -21.794 -0.160 -21.831 -0.144 -21.832 -0.144 -21.837 -0.145 -21.840 -0.151 -21.835 -0.189 -21.831 -0.202 11.928 0.208 4.341 0.120 44.434 42.656
53.800 -21.761 -0.182 -21.766 -0.179 -21.769 -0.177 -21.791 -0.162 -21.828 -0.145 -21.829 -0.145 -21.833 -0.147 -21.837 -0.152 -21.833 -0.191 -21.828 -0.204 11.918 0.208 4.341 0.120 44.433 42.655
54.200 -21.758 -0.184 -21.762 -0.181 -21.765 -0.179 -21.787 -0.164 -21.825 -0.147 -21.825 -0.147 -21.830 -0.149 -21.834 -0.154 -21.830 -0.192 -21.826 -0.205 11.907 0.209 4.340 0.121 44.431 42.655
54.600 -21.754 -0.186 -21.759 -0.183 -21.762 -0.181 -21.784 -0.166 -21.822 -0.149 -21.822 -0.149 -21.827 -0.151 -21.831 -0.155 -21.828 -0.194 -21.823 -0.206 11.897 0.210 4.340 0.121 44.430 42.654
55.000 -21.750 -0.188 -21.755 -0.185 -21.758 -0.183 -21.780 -0.168 -21.818 -0.151 -21.819 -0.151 -21.824 -0.152 -21.828 -0.157 -21.825 -0.195 -21.821 -0.208 11.887 0.210 4.339 0.122 44.428 42.654
55.400 -21.746 -0.190 -21.751 -0.187 -21.754 -0.185 -21.777 -0.170 -21.815 -0.153 -21.815 -0.153 -21.821 -0.154 -21.825 -0.159 -21.822 -0.196 -21.818 -0.209 11.877 0.211 4.338 0.123 44.426 42.653
55.800 -21.743 -0.192 -21.747 -0.189 -21.750 -0.187 -21.773 -0.172 -21.811 -0.155 -21.812 -0.155 -21.817 -0.156 -21.821 -0.161 -21.819 -0.198 -21.815 -0.211 11.867 0.212 4.337 0.123 44.425 42.653
56.200 -21.739 -0.194 -21.744 -0.191 -21.747 -0.189 -21.769 -0.174 -21.808 -0.157 -21.809 -0.157 -21.814 -0.158 -21.818 -0.162 -21.817 -0.199 -21.812 -0.212 11.857 0.212 4.336 0.124 44.423 42.652
56.600 -21.735 -0.196 -21.740 -0.193 -21.743 -0.191 -21.765 -0.176 -21.804 -0.159 -21.805 -0.159 -21.810 -0.160 -21.815 -0.164 -21.814 -0.201 -21.810 -0.214 11.848 0.213 4.335 0.124 44.421 42.652
57.000 -21.731 -0.198 -21.736 -0.195 -21.739 -0.193 -21.762 -0.178 -21.801 -0.161 -21.801 -0.161 -21.807 -0.162 -21.811 -0.166 -21.811 -0.203 -21.807 -0.215 11.838 0.214 4.333 0.125 44.420 42.652
57.400 -21.727 -0.200 -21.732 -0.197 -21.735 -0.195 -21.758 -0.180 -21.797 -0.163 -21.798 -0.163 -21.803 -0.164 -21.808 -0.168 -21.808 -0.204 -21.804 -0.217 11.829 0.214 4.332 0.125 44.418 42.651
57.800 -21.723 -0.202 -21.728 -0.199 -21.731 -0.197 -21.754 -0.182 -21.793 -0.165 -21.794 -0.165 -21.800 -0.166 -21.804 -0.170 -21.805 -0.206 -21.801 -0.218 11.819 0.215 4.330 0.126 44.416 42.651
58.200 -21.719 -0.204 -21.724 -0.201 -21.727 -0.199 -21.750 -0.184 -21.790 -0.167 -21.790 -0.167 -21.796 -0.168 -21.801 -0.172 -21.802 -0.207 -21.798 -0.220 11.810 0.216 4.328 0.126 44.414 42.650
58.600 -21.715 -0.206 -21.719 -0.203 -21.722 -0.201 -21.746 -0.186 -21.786 -0.169 -21.786 -0.169 -21.792 -0.170 -21.797 -0.174 -21.798 -0.209 -21.795 -0.221 11.801 0.217 4.326 0.127 44.413 42.650
59.000 -21.710 -0.208 -21.715 -0.205 -21.718 -0.203 -21.741 -0.188 -21.782 -0.171 -21.783 -0.171 -21.789 -0.172 -21.794 -0.176 -21.795 -0.211 -21.792 -0.223 11.792 0.217 4.324 0.127 44.411 42.649
59.400 -21.706 -0.210 -21.711 -0.207 -21.714 -0.205 -21.737 -0.190 -21.778 -0.173 -21.779 -0.173 -21.785 -0.174 -21.790 -0.178 -21.792 -0.212 -21.789 -0.224 11.783 0.218 4.321 0.128 44.409 42.648
59.800 -21.702 -0.212 -21.707 -0.209 -21.710 -0.207 -21.733 -0.192 -21.774 -0.175 -21.775 -0.175 -21.781 -0.176 -21.786 -0.180 -21.789 -0.214 -21.786 -0.226 11.774 0.219 4.319 0.128 44.407 42.648
60.200 -21.697 -0.214 -21.702 -0.211 -21.705 -0.209 -21.729 -0.195 -21.770 -0.177 -21.771 -0.177 -21.777 -0.178 -21.782 -0.182 -21.785 -0.216 -21.782 -0.227 11.765 0.219 4.316 0.129 44.405 42.647
60.600 -21.693 -0.216 -21.698 -0.213 -21.701 -0.211 -21.725 -0.197 -21.766 -0.179 -21.767 -0.179 -21.773 -0.180 -21.778 -0.184 -21.782 -0.217 -21.779 -0.229 11.757 0.220 4.313 0.130 44.404 42.647
61.000 -21.689 -0.218 -21.694 -0.215 -21.697 -0.213 -21.720 -0.199 -21.762 -0.182 -21.763 -0.182 -21.769 -0.182 -21.774 -0.186 -21.778 -0.219 -21.776 -0.231 11.748 0.221 4.310 0.130 44.402 42.646
61.400 -21.684 -0.220 -21.689 -0.217 -21.692 -0.215 -21.716 -0.201 -21.758 -0.184 -21.758 -0.184 -21.765 -0.185 -21.770 -0.188 -21.775 -0.221 -21.772 -0.232 11.740 0.222 4.307 0.131 44.400 42.645
61.800 -21.680 -0.222 -21.685 -0.219 -21.688 -0.217 -21.711 -0.203 -21.754 -0.186 -21.754 -0.186 -21.761 -0.187 -21.766 -0.190 -21.771 -0.222 -21.769 -0.234 11.731 0.222 4.304 0.131 44.398 42.644
62.200 -21.675 -0.224 -21.680 -0.221 -21.683 -0.219 -21.707 -0.205 -21.749 -0.188 -21.750 -0.188 -21.757 -0.189 -21.762 -0.192 -21.768 -0.224 -21.765 -0.235 11.723 0.223 4.301 0.132 44.396 42.644
62.600 -21.671 -0.226 -21.676 -0.223 -21.679 -0.221 -21.702 -0.207 -21.745 -0.190 -21.746 -0.190 -21.752 -0.191 -21.758 -0.194 -21.764 -0.226 -21.762 -0.237 11.714 0.224 4.297 0.132 44.394 42.643
63.000 -21.666 -0.228 -21.671 -0.225 -21.674 -0.223 -21.698 -0.209 -21.741 -0.192 -21.741 -0.192 -21.748 -0.193 -21.754 -0.196 -21.760 -0.227 -21.758 -0.239 11.706 0.225 4.294 0.133 44.392 42.642
63.400 -21.661 -0.230 -21.666 -0.227 -21.669 -0.225 -21.693 -0.211 -21.736 -0.194 -21.737 -0.194 -21.744 -0.195 -21.750 -0.198 -21.757 -0.229 -21.755 -0.240 11.698 0.225 4.290 0.133 44.390 42.641
63.800 -21.656 -0.232 -21.661 -0.229 -21.665 -0.227 -21.689 -0.213 -21.732 -0.197 -21.733 -0.197 -21.739 -0.197 -21.746 -0.200 -21.753 -0.231 -21.751 -0.242 11.690 0.226 4.286 0.134 44.388 42.640
64.200 -21.652 -0.234 -21.657 -0.231 -21.660 -0.229 -21.684 -0.215 -21.727 -0.199 -21.728 -0.199 -21.735 -0.199 -21.741 -0.202 -21.749 -0.232 -21.747 -0.243 11.682 0.227 4.283 0.134 44.386 42.639
64.600 -21.647 -0.235 -21.652 -0.232 -21.655 -0.231 -21.679 -0.217 -21.723 -0.201 -21.724 -0.201 -21.731 -0.201 -21.737 -0.204 -21.745 -0.234 -21.744 -0.245 11.673 0.227 4.279 0.134 44.384 42.638
65.000 -21.642 -0.237 -21.647 -0.234 -21.650 -0.232 -21.674 -0.219 -21.718 -0.203 -21.719 -0.203 -21.726 -0.203 -21.733 -0.206 -21.741 -0.236 -21.740 -0.247 11.665 0.228 4.274 0.135 44.382 42.637
65.400 -21.637 -0.239 -21.642 -0.236 -21.645 -0.234 -21.670 -0.221 -21.714 -0.205 -21.714 -0.205 -21.722 -0.205 -21.728 -0.208 -21.737 -0.237 -21.736 -0.248 11.657 0.229 4.270 0.135 44.380 42.636
65.800 -21.632 -0.241 -21.637 -0.238 -21.640 -0.236 -21.665 -0.223 -21.709 -0.207 -21.710 -0.207 -21.717 -0.207 -21.724 -0.210 -21.733 -0.239 -21.732 -0.250 11.649 0.230 4.266 0.136 44.378 42.635
66.200 -21.627 -0.243 -21.632 -0.240 -21.635 -0.238 -21.660 -0.225 -21.704 -0.209 -21.705 -0.209 -21.712 -0.209 -21.719 -0.212 -21.729 -0.241 -21.728 -0.251 11.642 0.230 4.262 0.136 44.376 42.634
66.600 -21.622 -0.244 -21.627 -0.241 -21.630 -0.240 -21.655 -0.226 -21.700 -0.211 -21.700 -0.211 -21.708 -0.211 -21.715 -0.214 -21.725 -0.242 -21.724 -0.253 11.634 0.231 4.257 0.137 44.374 42.633
67.000 -21.617 -0.246 -21.622 -0.243 -21.625 -0.241 -21.650 -0.228 -21.695 -0.213 -21.696 -0.213 -21.703 -0.213 -21.710 -0.216 -21.721 -0.244 -21.720 -0.254 11.626 0.232 4.253 0.137 44.372 42.632
67.400 -21.612 -0.248 -21.617 -0.245 -21.620 -0.243 -21.645 -0.230 -21.690 -0.215 -21.691 -0.215 -21.698 -0.215 -21.705 -0.218 -21.717 -0.246 -21.716 -0.256 11.618 0.232 4.248 0.138 44.370 42.631
67.800 -21.607 -0.249 -21.612 -0.247 -21.615 -0.245 -21.640 -0.232 -21.685 -0.217 -21.686 -0.217 -21.694 -0.217 -21.701 -0.220 -21.713 -0.247 -21.712 -0.257 11.610 0.233 4.243 0.138 44.368 42.630
68.200 -21.602 -0.251 -21.607 -0.248 -21.610 -0.246 -21.635 -0.234 -21.680 -0.218 -21.681 -0.218 -21.689 -0.219 -21.696 -0.222 -21.708 -0.249 -21.708 -0.259 11.603 0.234 4.238 0.138 44.365 42.628
68.600 -21.596 -0.253 -21.602 -0.250 -21.605 -0.248 -21.629 -0.235 -21.675 -0.220 -21.676 -0.220 -21.684 -0.221 -21.691 -0.223 -21.704 -0.250 -21.704 -0.260 11.595 0.234 4.234 0.139 44.363 42.627
69.000 -21.591 -0.254 -21.596 -0.251 -21.599 -0.250 -21.624 -0.237 -21.670 -0.222 -21.671 -0.222 -21.679 -0.223 -21.687 -0.225 -21.700 -0.252 -21.700 -0.262 11.587 0.235 4.229 0.139 44.361 42.626
69.400 -21.586 -0.256 -21.591 -0.253 -21.594 -0.251 -21.619 -0.239 -21.665 -0.224 -21.666 -0.224 -21.674 -0.224 -21.682 -0.227 -21.695 -0.253 -21.695 -0.263 11.580 0.236 4.223 0.140 44.359 42.624
69.800 -21.580 -0.257 -21.586 -0.255 -21.589 -0.253 -21.614 -0.240 -21.660 -0.226 -21.661 -0.226 -21.669 -0.226 -21.677 -0.229 -21.691 -0.255 -21.691 -0.264 11.572 0.236 4.218 0.140 44.357 42.623
70.200 -21.575 -0.259 -21.580 -0.256 -21.584 -0.254 -21.609 -0.242 -21.655 -0.227 -21.656 -0.227 -21.664 -0.228 -21.672 -0.230 -21.687 -0.256 -21.687 -0.266 11.564 0.237 4.213 0.140 44.355 42.622
70.600 -21.570 -0.260 -21.575 -0.258 -21.578 -0.256 -21.603 -0.243 -21.650 -0.229 -21.651 -0.229 -21.659 -0.229 -21.667 -0.232 -21.682 -0.257 -21.683 -0.267 11.557 0.238 4.208 0.141 44.352 42.620
71.000 -21.564 -0.262 -21.569 -0.259 -21.573 -0.257 -21.598 -0.245 -21.645 -0.231 -21.646 -0.231 -21.654 -0.231 -21.662 -0.233 -21.678 -0.259 -21.678 -0.268 11.549 0.238 4.202 0.141 44.350 42.619
71.400 -21.559 -0.263 -21.564 -0.260 -21.567 -0.259 -21.592 -0.246 -21.640 -0.232 -21.641 -0.232 -21.649 -0.233 -21.657 -0.235 -21.673 -0.260 -21.674 -0.270 11.542 0.239 4.197 0.142 44.348 42.617
71.800 -21.553 -0.265 -21.559 -0.262 -21.562 -0.260 -21.587 -0.248 -21.635 -0.234 -21.636 -0.234 -21.644 -0.234 -21.652 -0.237 -21.669 -0.261 -21.669 -0.271 11.534 0.239 4.192 0.142 44.346 42.616
72.200 -21.548 -0.266 -21.553 -0.263 -21.556 -0.261 -21.582 -0.249 -21.630 -0.235 -21.630 -0.235 -21.639 -0.236 -21.647 -0.238 -21.664 -0.263 -21.665 -0.272 11.527 0.240 4.186 0.142 44.343 42.614
72.600 -21.542 -0.267 -21.547 -0.264 -21.551 -0.263 -21.576 -0.251 -21.624 -0.237 -21.625 -0.237 -21.634 -0.237 -21.642 -0.239 -21.659 -0.264 -21.660 -0.273 11.519 0.241 4.180 0.143 44.341 42.613
73.000 -21.537 -0.268 -21.542 -0.266 -21.545 -0.264 -21.571 -0.252 -21.619 -0.238 -21.620 -0.238 -21.628 -0.238 -21.637 -0.241 -21.655 -0.265 -21.656 -0.275 11.512 0.241 4.175 0.143 44.339 42.611
73.400 -21.531 -0.270 -21.536 -0.267 -21.539 -0.265 -21.565 -0.253 -21.614 -0.239 -21.615 -0.239 -21.623 -0.240 -21.632 -0.242 -21.650 -0.266 -21.651 -0.276 11.505 0.242 4.169 0.143 44.336 42.610
73.800 -21.525 -0.271 -21.531 -0.268 -21.534 -0.266 -21.559 -0.255 -21.608 -0.241 -21.609 -0.241 -21.618 -0.241 -21.627 -0.243 -21.645 -0.267 -21.647 -0.277 11.497 0.242 4.163 0.144 44.334 42.608
74.200 -21.520 -0.272 -21.525 -0.269 -21.528 -0.268 -21.554 -0.256 -21.603 -0.242 -21.604 -0.242 -21.613 -0.242 -21.621 -0.245 -21.640 -0.269 -21.642 -0.278 11.490 0.243 4.157 0.144 44.332 42.606
74.600 -21.514 -0.273 -21.519 -0.270 -21.522 -0.269 -21.548 -0.257 -21.598 -0.243 -21.598 -0.243 -21.607 -0.244 -21.616 -0.246 -21.636 -0.270 -21.637 -0.279 11.483 0.244 4.151 0.144 44.329 42.605
75.000 -21.508 -0.274 -21.513 -0.271 -21.517 -0.270 -21.542 -0.258 -21.592 -0.245 -21.593 -0.244 -21.602 -0.245 -21.611 -0.247 -21.631 -0.271 -21.633 -0.280 11.475 0.244 4.145 0.145 44.327 42.603
75.400 -21.502 -0.275 -21.508 -0.272 -21.511 -0.271 -21.537 -0.259 -21.587 -0.246 -21.588 -0.246 -21.597 -0.246 -21.606 -0.248 -21.626 -0.272 -21.628 -0.281 11.468 0.245 4.139 0.145 44.325 42.601
75.800 -21.496 -0.276 -21.502 -0.273 -21.505 -0.272 -21.531 -0.260 -21.581 -0.247 -21.582 -0.247 -21.591 -0.247 -21.600 -0.249 -21.621 -0.273 -21.623 -0.282 11.461 0.245 4.133 0.145 44.322 42.600
76.200 -21.491 -0.277 -21.496 -0.274 -21.499 -0.273 -21.525 -0.261 -21.576 -0.248 -21.577 -0.248 -21.586 -0.248 -21.595 -0.250 -21.616 -0.274 -21.618 -0.283 11.453 0.246 4.127 0.146 44.320 42.598
76.600 -21.485 -0.278 -21.490 -0.275 -21.493 -0.274 -21.519 -0.262 -21.570 -0.249 -21.571 -0.249 -21.580 -0.249 -21.590 -0.251 -21.611 -0.274 -21.614 -0.283 11.446 0.247 4.121 0.146 44.317 42.596
77.000 -21.479 -0.279 -21.484 -0.276 -21.488 -0.274 -21.514 -0.263 -21.565 -0.250 -21.565 -0.250 -21.575 -0.250 -21.584 -0.252 -21.606 -0.275 -21.609 -0.284 11.439 0.247 4.115 0.146 44.315 42.594
77.400 -21.473 -0.279 -21.478 -0.277 -21.482 -0.275 -21.508 -0.264 -21.559 -0.251 -21.560 -0.251 -21.569 -0.251 -21.579 -0.253 -21.601 -0.276 -21.604 -0.285 11.431 0.248 4.109 0.146 44.313 42.592
77.800 -21.467 -0.280 -21.472 -0.278 -21.476 -0.276 -21.502 -0.265 -21.553 -0.252 -21.554 -0.251 -21.564 -0.252 -21.574 -0.254 -21.596 -0.277 -21.599 -0.286 11.424 0.248 4.102 0.147 44.310 42.591
78.200 -21.461 -0.281 -21.466 -0.278 -21.470 -0.277 -21.496 -0.265 -21.548 -0.252 -21.549 -0.252 -21.558 -0.253 -21.568 -0.255 -21.591 -0.278 -21.594 -0.286 11.417 0.249 4.096 0.147 44.308 42.589
78.600 -21.455 -0.281 -21.460 -0.279 -21.464 -0.277 -21.490 -0.266 -21.542 -0.253 -21.543 -0.253 -21.553 -0.253 -21.563 -0.256 -21.586 -0.278 -21.589 -0.287 11.410 0.249 4.090 0.147 44.305 42.587
79.000 -21.449 -0.282 -21.454 -0.279 -21.458 -0.278 -21.484 -0.267 -21.536 -0.254 -21.537 -0.254 -21.547 -0.254 -21.557 -0.256 -21.581 -0.279 -21.584 -0.288 11.402 0.250 4.083 0.147 44.303 42.585
79.400 -21.443 -0.283 -21.448 -0.280 -21.452 -0.279 -21.478 -0.267 -21.531 -0.254 -21.532 -0.254 -21.541 -0.255 -21.552 -0.257 -21.576 -0.279 -21.579 -0.288 11.395 0.250 4.077 0.148 44.300 42.583
79.800 -21.437 -0.283 -21.442 -0.281 -21.446 -0.279 -21.472 -0.268 -21.525 -0.255 -21.526 -0.255 -21.536 -0.255 -21.546 -0.258 -21.571 -0.280 -21.574 -0.289 11.388 0.251 4.070 0.148 44.298 42.581
80.200 -21.431 -0.284 -21.436 -0.281 -21.439 -0.280 -21.466 -0.268 -21.519 -0.256 -21.520 -0.256 -21.530 -0.256 -21.540 -0.258 -21.566 -0.280 -21.569 -0.289 11.381 0.251 4.064 0.148 44.295 42.579
80.600 -21.424 -0.284 -21.430 -0.281 -21.433 -0.280 -21.460 -0.269 -21.513 -0.256 -21.514 -0.256 -21.524 -0.256 -21.535 -0.259 -21.561 -0.281 -21.564 -0.289 11.373 0.252 4.057 0.149 44.293 42.577
81.000 -21.418 -0.284 -21.424 -0.282 -21.427 -0.280 -21.454 -0.269 -21.508 -0.256 -21.509 -0.256 -21.519 -0.257 -21.529 -0.259 -21.555 -0.281 -21.559 -0.290 11.366 0.253 4.051 0.149 44.290 42.575
81.400 -21.412 -0.285 -21.418 -0.282 -21.421 -0.281 -21.448 -0.270 -21.502 -0.257 -21.503 -0.257 -21.513 -0.257 -21.524 -0.259 -21.550 -0.282 -21.554 -0.290 11.359 0.253 4.044 0.149 44.288 42.573
81.800 -21.406 -0.285 -21.411 -0.282 -21.415 -0.281 -21.442 -0.270 -21.496 -0.257 -21.497 -0.257 -21.507 -0.258 -21.518 -0.260 -21.545 -0.282 -21.549 -0.290 11.352 0.254 4.037 0.149 44.285 42.571
82.200 -21.400 -0.285 -21.405 -0.283 -21.409 -0.281 -21.436 -0.270 -21.490 -0.257 -21.491 -0.257 -21.501 -0.258 -21.512 -0.260 -21.540 -0.282 -21.544 -0.291 11.345 0.254 4.031 0.149 44.283 42.569
82.600 -21.393 -0.285 -21.399 -0.283 -21.402 -0.281 -21.430 -0.270 -21.484 -0.258 -21.485 -0.258 -21.496 -0.258 -21.507 -0.260 -21.534 -0.282 -21.539 -0.291 11.337 0.255 4.024 0.150 44.280 42.567
83.000 -21.387 -0.286 -21.393 -0.283 -21.396 -0.282 -21.424 -0.270 -21.478 -0.258 -21.479 -0.258 -21.490 -0.258 -21.501 -0.260 -21.529 -0.283 -21.533 -0.291 11.330 0.255 4.017 0.150 44.278 42.565
83.400 -21.381 -0.286 -21.386 -0.283 -21.390 -0.282 -21.417 -0.271 -21.472 -0.258 -21.473 -0.258 -21.484 -0.258 -21.495 -0.261 -21.524 -0.283 -21.528 -0.291 11.323 0.256 4.011 0.150 44.275 42.563
83.800 -21.375 -0.286 -21.380 -0.283 -21.384 -0.282 -21.411 -0.271 -21.466 -0.258 -21.468 -0.258 -21.478 -0.258 -21.489 -0.261 -21.519 -0.283 -21.523 -0.291 11.316 0.256 4.004 0.150 44.273 42.561
84.200 -21.368 -0.286 -21.374 -0.283 -21.377 -0.282 -21.405 -0.271 -21.461 -0.258 -21.462 -0.258 -21.472 -0.258 -21.484 -0.261 -21.513 -0.283 -21.518 -0.291 11.309 0.257 3.997 0.151 44.270 42.559
84.600 -21.362 -0.286 -21.368 -0.283 -21.371 -0.282 -21.399 -0.271 -21.455 -0.258 -21.456 -0.258 -21.466 -0.258 -21.478 -0.261 -21.508 -0.283 -21.513 -0.291 11.302 0.257 3.990 0.151 44.267 42.556
85.000 -21.356 -0.286 -21.361 -0.283 -21.365 -0.281 -21.393 -0.270 -21.449 -0.258 -21.450 -0.258 -21.461 -0.258 -21.472 -0.260 -21.503 -0.283 -21.507 -0.291 11.294 0.257 3.984 0.151 44.265 42.554
85.400 -21.349 -0.285 -21.355 -0.283 -21.358 -0.281 -21.386 -0.270 -21.443 -0.258 -21.444 -0.258 -21.455 -0.258 -21.466 -0.260 -21.497 -0.283 -21.502 -0.291 11.287 0.258 3.977 0.151 44.262 42.552
85.800 -21.343 -0.285 -21.348 -0.283 -21.352 -0.281 -21.380 -0.270 -21.437 -0.257 -21.438 -0.257 -21.449 -0.258 -21.461 -0.260 -21.492 -0.282 -21.497 -0.291 11.280 0.258 3.970 0.151 44.260 42.550
86.200 -21.336 -0.285 -21.342 -0.282 -21.346 -0.281 -21.374 -0.270 -21.431 -0.257 -21.432 -0.257 -21.443 -0.258 -21.455 -0.260 -21.486 -0.282 -21.491 -0.291 11.273 0.259 3.963 0.152 44.257 42.548
86.600 -21.330 -0.285 -21.336 -0.282 -21.339 -0.281 -21.367 -0.269 -21.425 -0.257 -21.426 -0.257 -21.437 -0.257 -21.449 -0.259 -21.481 -0.282 -21.486 -0.290 11.266 0.259 3.956 0.152 44.254 42.545
87.000 -21.323 -0.284 -21.329 -0.282 -21.333 -0.280 -21.361 -0.269 -21.419 -0.256 -21.420 -0.256 -21.431 -0.257 -21.443 -0.259 -21.475 -0.282 -21.481 -0.290 11.259 0.260 3.949 0.152 44.252 42.543
87.400 -21.317 -0.284 -21.323 -0.281 -21.326 -0.280 -21.355 -0.269 -21.412 -0.256 -21.414 -0.256 -21.425 -0.256 -21.437 -0.259 -21.470 -0.281 -21.475 -0.290 11.252 0.260 3.942 0.152 44.249 42.541
87.800 -21.311 -0.283 -21.316 -0.281 -21.320 -0.279 -21.348 -0.268 -21.406 -0.256 -21.407 -0.255 -21.419 -0.256 -21.431 -0.258 -21.465 -0.281 -21.470 -0.289 11.244 0.261 3.936 0.152 44.247 42.539
88.200 -21.304 -0.283 -21.310 -0.280 -21.313 -0.279 -21.342 -0.268 -21.400 -0.255 -21.401 -0.255 -21.413 -0.255 -21.425 -0.258 -21.459 -0.280 -21.465 -0.289 11.237 0.261 3.929 0.152 44.244 42.536
88.600 -21.298 -0.282 -21.303 -0.280 -21.307 -0.278 -21.336 -0.267 -21.394 -0.254 -21.395 -0.254 -21.407 -0.255 -21.419 -0.257 -21.454 -0.280 -21.459 -0.289 11.230 0.262 3.922 0.153 44.241 42.534
89.000 -21.291 -0.282 -21.297 -0.279 -21.300 -0.278 -21.329 -0.266 -21.388 -0.254 -21.389 -0.254 -21.401 -0.254 -21.414 -0.256 -21.448 -0.279 -21.454 -0.288 11.223 0.262 3.915 0.153 44.239 42.532
89.400 -21.284 -0.281 -21.290 -0.279 -21.294 -0.277 -21.323 -0.266 -21.382 -0.253 -21.383 -0.253 -21.395 -0.253 -21.408 -0.256 -21.443 -0.279 -21.449 -0.287 11.216 0.263 3.908 0.153 44.236 42.529
89.800 -21.278 -0.280 -21.284 -0.278 -21.287 -0.276 -21.316 -0.265 -21.376 -0.252 -21.377 -0.252 -21.389 -0.253 -21.402 -0.255 -21.437 -0.278 -21.443 -0.287 11.209 0.263 3.901 0.153 44.233 42.527
90.200 -21.271 -0.280 -21.277 -0.277 -21.281 -0.276 -21.310 -0.264 -21.370 -0.251 -21.371 -0.251 -21.383 -0.252 -21.396 -0.254 -21.432 -0.277 -21.438 -0.286 11.202 0.263 3.894 0.153 44.231 42.525
90.600 -21.265 -0.279 -21.271 -0.276 -21.274 -0.275 -21.303 -0.263 -21.364 -0.250 -21.365 -0.250 -21.377 -0.251 -21.390 -0.253 -21.426 -0.277 -21.432 -0.285 11.195 0.264 3.887 0.153 44.228 42.522
91.000 -21.258 -0.278 -21.264 -0.276 -21.268 -0.274 -21.297 -0.262 -21.357 -0.250 -21.359 -0.249 -21.371 -0.250 -21.384 -0.252 -21.420 -0.276 -21.427 -0.285 11.187 0.264 3.880 0.154 44.225 42.520
91.400 -21.252 -0.277 -21.258 -0.275 -21.261 -0.273 -21.291 -0.261 -21.351 -0.249 -21.352 -0.248 -21.365 -0.249 -21.378 -0.251 -21.415 -0.275 -21.421 -0.284 11.180 0.265 3.873 0.154 44.223 42.518
91.800 -21.245 -0.276 -21.251 -0.274 -21.255 -0.272 -21.284 -0.260 -21.345 -0.247 -21.346 -0.247 -21.359 -0.248 -21.372 -0.250 -21.409 -0.274 -21.416 -0.283 11.173 0.265 3.866 0.154 44.220 42.515
92.200 -21.238 -0.275 -21.244 -0.273 -21.248 -0.271 -21.278 -0.259 -21.339 -0.246 -21.340 -0.246 -21.353 -0.247 -21.366 -0.249 -21.404 -0.273 -21.411 -0.282 11.166 0.266 3.859 0.154 44.217 42.513
92.600 -21.232 -0.274 -21.238 -0.272 -21.241 -0.270 -21.271 -0.258 -21.333 -0.245 -21.334 -0.245 -21.346 -0.246 -21.360 -0.248 -21.398 -0.272 -21.405 -0.281 11.159 0.266 3.852 0.154 44.215 42.510
93.000 -21.225 -0.273 -21.231 -0.271 -21.235 -0.269 -21.265 -0.257 -21.327 -0.244 -21.328 -0.244 -21.340 -0.245 -21.354 -0.247 -21.393 -0.271 -21.400 -0.280 11.152 0.266 3.845 0.154 44.212 42.508
93.400 -21.218 -0.272 -21.224 -0.270 -21.228 -0.268 -21.258 -0.256 -21.320 -0.243 -21.322 -0.243 -21.334 -0.243 -21.348 -0.246 -21.387 -0.270 -21.394 -0.279 11.145 0.267 3.838 0.155 44.209 42.505
93.800 -21.212 -0.271 -21.218 -0.268 -21.222 -0.267 -21.252 -0.255 -21.314 -0.241 -21.315 -0.241 -21.328 -0.242 -21.342 -0.245 -21.381 -0.269 -21.389 -0.278 11.138 0.267 3.831 0.155 44.207 42.503
94.200 -21.205 -0.270 -21.211 -0.267 -21.215 -0.265 -21.245 -0.253 -21.308 -0.240 -21.309 -0.240 -21.322 -0.241 -21.336 -0.243 -21.376 -0.268 -21.383 -0.277 11.131 0.268 3.824 0.155 44.204 42.501
94.600 -21.198 -0.269 -21.205 -0.266 -21.208 -0.264 -21.239 -0.252 -21.302 -0.239 -21.303 -0.239 -21.316 -0.239 -21.330 -0.242 -21.370 -0.267 -21.378 -0.276 11.124 0.268 3.817 0.155 44.201 42.498
95.000 -21.192 -0.267 -21.198 -0.265 -21.202 -0.263 -21.232 -0.251 -21.296 -0.237 -21.297 -0.237 -21.310 -0.238 -21.324 -0.240 -21.365 -0.265 -21.372 -0.275 11.117 0.269 3.810 0.155 44.199 42.496
95.400 -21.185 -0.266 -21.191 -0.263 -21.195 -0.262 -21.225 -0.249 -21.289 -0.236 -21.291 -0.236 -21.304 -0.236 -21.318 -0.239 -21.359 -0.264 -21.367 -0.274 11.110 0.269 3.803 0.155 44.196 42.493
95.800 -21.178 -0.265 -21.185 -0.262 -21.188 -0.260 -21.219 -0.248 -21.283 -0.234 -21.284 -0.234 -21.297 -0.235 -21.312 -0.237 -21.353 -0.263 -21.361 -0.272 11.103 0.269 3.796 0.155 44.193 42.491
96.200 -21.172 -0.263 -21.178 -0.260 -21.182 -0.259 -21.212 -0.246 -21.277 -0.232 -21.278 -0.232 -21.291 -0.233 -21.306 -0.236 -21.348 -0.261 -21.356 -0.271 11.096 0.270 3.789 0.155 44.190 42.488
96.600 -21.165 -0.262 -21.171 -0.259 -21.175 -0.257 -21.206 -0.245 -21.271 -0.231 -21.272 -0.231 -21.285 -0.231 -21.300 -0.234 -21.342 -0.260 -21.350 -0.270 11.089 0.270 3.782 0.156 44.188 42.486
97.000 -21.158 -0.260 -21.165 -0.258 -21.168 -0.256 -21.199 -0.243 -21.264 -0.229 -21.266 -0.229 -21.279 -0.230 -21.294 -0.232 -21.336 -0.259 -21.345 -0.268 11.082 0.271 3.775 0.156 44.185 42.483
97.400 -21.152 -0.259 -21.158 -0.256 -21.162 -0.254 -21.193 -0.241 -21.258 -0.227 -21.259 -0.227 -21.273 -0.228 -21.288 -0.231 -21.331 -0.257 -21.339 -0.267 11.075 0.271 3.768 0.156 44.182 42.481
97.800 -21.145 -0.257 -21.151 -0.254 -21.155 -0.253 -21.186 -0.240 -21.252 -0.225 -21.253 -0.225 -21.267 -0.226 -21.282 -0.229 -21.325 -0.256 -21.334 -0.266 11.068 0.271 3.761 0.156 44.180 42.478
98.200 -21.138 -0.256 -21.144 -0.253 -21.148 -0.251 -21.180 -0.238 -21.246 -0.224 -21.247 -0.223 -21.261 -0.224 -21.276 -0.227 -21.320 -0.254 -21.328 -0.264 11.061 0.272 3.754 0.156 44.177 42.476
98.600 -21.131 -0.254 -21.138 -0.251 -21.142 -0.249 -21.173 -0.236 -21.239 -0.222 -21.241 -0.222 -21.255 -0.222 -21.270 -0.225 -21.314 -0.253 -21.322 -0.263 11.054 0.272 3.747 0.156 44.174 42.473
99.000 -21.125 -0.252 -21.131 -0.249 -21.135 -0.248 -21.166 -0.234 -21.233 -0.220 -21.235 -0.220 -21.248 -0.220 -21.263 -0.223 -21.308 -0.251 -21.317 -0.261 11.047 0.273 3.740 0.156 44.172 42.471
99.400 -21.118 -0.251 -21.124 -0.248 -21.128 -0.246 -21.160 -0.233 -21.227 -0.218 -21.228 -0.218 -21.242 -0.218 -21.257 -0.221 -21.303 -0.249 -21.311 -0.259 11.040 0.273 3.733 0.156 44.169 42.468
99.800 -21.111 -0.249 -21.118 -0.246 -21.122 -0.244 -21.153 -0.231 -21.221 -0.216 -21.222 -0.216 -21.236 -0.216 -21.251 -0.219 -21.297 -0.248 -21.306 -0.258 11.033 0.273 3.726 0.156 44.166 42.466
100.200 -21.104 -0.247 -21.111 -0.244 -21.115 -0.242 -21.147 -0.229 -21.215 -0.213 -21.216 -0.213 -21.230 -0.214 -21.245 -0.217 -21.291 -0.246 -21.300 -0.256 11.026 0.274 3.719 0.157 44.163 42.463
100.600 -21.098 -0.245 -21.104 -0.242 -21.108 -0.240 -21.140 -0.227 -21.208 -0.211 -21.210 -0.211 -21.224 -0.212 -21.239 -0.215 -21.286 -0.244 -21.295 -0.255 11.019 0.274 3.712 0.157 44.161 42.460
101.000 -21.091 -0.244 -21.097 -0.241 -21.101 -0.239 -21.134 -0.225 -21.202 -0.209 -21.203 -0.209 -21.218 -0.210 -21.233 -0.213 -21.280 -0.242 -21.289 -0.253 11.013 0.275 3.705 0.157 44.158 42.458
101.400 -21.084 -0.242 -21.091 -0.239 -21.095 -0.237 -21.127 -0.223 -21.196 -0.207 -21.197 -0.207 -21.212 -0.208 -21.227 -0.211 -21.274 -0.240 -21.284 -0.251 11.006 0.275 3.698 0.157 44.155 42.455
101.800 -21.077 -0.240 -21.084 -0.237 -21.088 -0.235 -21.120 -0.221 -21.190 -0.205 -21.191 -0.205 -21.205 -0.206 -21.221 -0.209 -21.269 -0.239 -21.278 -0.249 10.999 0.275 3.691 0.157 44.153 42.453
102.200 -21.071 -0.238 -21.077 -0.235 -21.081 -0.233 -21.114 -0.218 -21.183 -0.202 -21.185 -0.202 -21.199 -0.203 -21.215 -0.207 -21.263 -0.237 -21.273 -0.248 10.992 0.276 3.684 0.157 44.150 42.450
102.600 -21.064 -0.236 -21.070 -0.233 -21.075 -0.231 -21.107 -0.216 -21.177 -0.200 -21.179 -0.200 -21.193 -0.201 -21.209 -0.204 -21.258 -0.235 -21.267 -0.246 10.985 0.276 3.677 0.157 44.147 42.448
103.000 -21.057 -0.234 -21.064 -0.231 -21.068 -0.229 -21.101 -0.214 -21.171 -0.198 -21.172 -0.198 -21.187 -0.199 -21.203 -0.202 -21.252 -0.233 -21.262 -0.244 10.979 0.277 3.670 0.157 44.144 42.445
103.400 -21.050 -0.232 -21.057 -0.229 -21.061 -0.227 -21.094 -0.212 -21.165 -0.195 -21.166 -0.195 -21.181 -0.196 -21.197 -0.200 -21.246 -0.231 -21.256 -0.242 10.972 0.277 3.663 0.157 44.142 42.443
103.800 -21.044 -0.230 -21.050 -0.227 -21.054 -0.225 -21.088 -0.210 -21.159 -0.193 -21.160 -0.193 -21.175 -0.194 -21.191 -0.197 -21.241 -0.229 -21.251 -0.240 10.965 0.277 3.656 0.157 44.139 42.440
104.200 -21.037 -0.228 -21.044 -0.225 -21.048 -0.223 -21.081 -0.207 -21.152 -0.190 -21.154 -0.190 -21.169 -0.191 -21.185 -0.195 -21.235 -0.227 -21.245 -0.239 10.959 0.278 3.649 0.157 44.136 42.438
104.600 -21.030 -0.226 -21.037 -0.223 -21.041 -0.221 -21.074 -0.205 -21.146 -0.188 -21.148 -0.188 -21.163 -0.189 -21.179 -0.193 -21.230 -0.225 -21.240 -0.237 10.952 0.278 3.642 0.158 44.134 42.435
105.000 -21.023 -0.224 -21.030 -0.221 -21.034 -0.218 -21.068 -0.203 -21.140 -0.185 -21.141 -0.185 -21.157 -0.186 -21.173 -0.190 -21.224 -0.223 -21.234 -0.235 10.945 0.279 3.635 0.158 44.131 42.432
105.400 -21.017 -0.222 -21.023 -0.218 -21.028 -0.216 -21.061 -0.201 -21.134 -0.183 -21.135 -0.183 -21.150 -0.184 -21.167 -0.188 -21.218 -0.221 -21.229 -0.233 10.939 0.279 3.628 0.158 44.128 42.430
105.800 -21.010 -0.220 -21.017 -0.216 -21.021 -0.214 -21.055 -0.198 -21.128 -0.180 -21.129 -0.180 -21.144 -0.181 -21.161 -0.185 -21.213 -0.219 -21.223 -0.231 10.932 0.280 3.621 0.158 44.125 42.427
106.200 -21.003 -0.218 -21.010 -0.214 -21.014 -0.212 -21.048 -0.196 -21.121 -0.177 -21.123 -0.177 -21.138 -0.179 -21.155 -0.183 -21.207 -0.217 -21.218 -0.229 10.926 0.280 3.614 0.158 44.123 42.425
106.600 -20.997 -0.216 -21.003 -0.212 -21.008 -0.210 -21.042 -0.193 -21.115 -0.175 -21.117 -0.175 -21.132 -0.176 -21.149 -0.180 -21.202 -0.215 -21.212 -0.227 10.919 0.280 3.607 0.158 44.120 42.422
107.000 -20.990 -0.214 -20.997 -0.210 -21.001 -0.208 -21.035 -0.191 -21.109 -0.172 -21.111 -0.172 -21.126 -0.173 -21.143 -0.177 -21.196 -0.213 -21.207 -0.225 10.913 0.281 3.600 0.158 44.117 42.420
107.400 -20.983 -0.211 -20.990 -0.208 -20.994 -0.205 -21.029 -0.189 -21.103 -0.169 -21.104 -0.169 -21.120 -0.171 -21.137 -0.175 -21.191 -0.211 -21.201 -0.223 10.906 0.281 3.593 0.158 44.115 42.417
107.800 -20.976 -0.209 -20.983 -0.206 -20.988 -0.203 -21.022 -0.186 -21.097 -0.167 -21.098 -0.167 -21.114 -0.168 -21.132 -0.172 -21.185 -0.208 -21.196 -0.221 10.900 0.282 3.586 0.158 44.112 42.415
108.200 -20.970 -0.207 -20.977 -0.203 -20.981 -0.201 -21.016 -0.184 -21.091 -0.164 -21.092 -0.164 -21.108 -0.165 -21.126 -0.170 -21.180 -0.206 -21.191 -0.219 10.894 0.282 3.579 0.158 44.109 42.412
108.600 -20.963 -0.205 -20.970 -0.201 -20.974 -0.199 -21.009 -0.181 -21.085 -0.161 -21.086 -0.161 -21.102 -0.163 -21.120 -0.167 -21.174 -0.204 -21.185 -0.217 10.887 0.282 3.572 0.158 44.106 42.410
109.000 -20.956 -0.203 -20.963 -0.199 -20.968 -0.197 -21.003 -0.179 -21.078 -0.159 -21.080 -0.159 -21.096 -0.160 -21.114 -0.164 -21.169 -0.202 -21.180 -0.215 10.881 0.283 3.565 0.158 44.104 42.407
109.400 -20.949 -0.201 -20.956 -0.197 -20.961 -0.194 -20.996 -0.177 -21.072 -0.156 -21.074 -0.156 -21.090 -0.157 -21.108 -0.162 -21.163 -0.200 -21.174 -0.213 10.875 0.283 3.558 0.158 44.101 42.405
109.800 -20.943 -0.199 -20.950 -0.195 -20.954 -0.192 -20.990 -0.174 -21.066 -0.153 -21.068 -0.153 -21.084 -0.154 -21.102 -0.159 -21.158 -0.198 -21.169 -0.211 10.869 0.284 3.551 0.158 44.098 42.402
110.200 -20.936 -0.196 -20.943 -0.192 -20.948 -0.190 -20.983 -0.172 -21.060 -0.150 -21.062 -0.150 -21.078 -0.152 -21.096 -0.156 -21.152 -0.196 -21.164 -0.209 10.862 0.284 3.545 0.159 44.096 42.400
110.600 -20.929 -0.194 -20.937 -0.190 -20.941 -0.188 -20.977 -0.169 -21.054 -0.147 -21.056 -0.147 -21.072 -0.149 -21.090 -0.154 -21.147 -0.194 -21.158 -0.207 10.856 0.285 3.538 0.159 44.093 42.397
111.000 -20.923 -0.192 -20.930 -0.188 -20.934 -0.186 -20.970 -0.167 -21.048 -0.145 -21.050 -0.145 -21.066 -0.146 -21.084 -0.151 -21.141 -0.192 -21.153 -0.205 10.850 0.285 3.531 0.159 44.090 42.395
111.400 -20.916 -0.190 -20.923 -0.186 -20.928 -0.183 -20.964 -0.165 -21.042 -0.142 -21.044 -0.142 -21.060 -0.143 -21.079 -0.149 -21.136 -0.190 -21.148 -0.203 10.844 0.286 3.524 0.159 44.088 42.392
111.800 -20.909 -0.188 -20.917 -0.184 -20.921 -0.181 -20.957 -0.162 -21.036 -0.139 -21.038 -0.139 -21.054 -0.141 -21.073 -0.146 -21.130 -0.187 -21.142 -0.201 10.838 0.286 3.517 0.159 44.085 42.390
112.200 -20.903 -0.186 -20.910 -0.182 -20.914 -0.179 -20.951 -0.160 -21.030 -0.136 -21.032 -0.136 -21.048 -0.138 -21.067 -0.143 -21.125 -0.185 -21.137 -0.199 10.832 0.286 3.510 0.159 44.082 42.387
112.600 -20.896 -0.184 -20.903 -0.180 -20.908 -0.177 -20.944 -0.157 -21.024 -0.134 -21.026 -0.134 -21.042 -0.135 -21.061 -0.141 -21.120 -0.183 -21.132 -0.197 10.826 0.287 3.503 0.159 44.080 42.385
113.000 -20.889 -0.182 -20.897 -0.178 -20.901 -0.175 -20.938 -0.155 -21.018 -0.131 -21.020 -0.131 -21.037 -0.133 -21.055 -0.138 -21.114 -0.181 -21.126 -0.195 10.820 0.287 3.496 0.159 44.077 42.382
113.400 -20.883 -0.180 -20.890 -0.176 -20.895 -0.173 -20.932 -0.153 -21.012 -0.128 -21.014 -0.128 -21.031 -0.130 -21.050 -0.136 -21.109 -0.179 -21.121 -0.194 10.813 0.288 3.489 0.159 44.074 42.380
113.800 -20.876 -0.178 -20.884 -0.174 -20.888 -0.171 -20.925 -0.151 -21.006 -0.126 -21.008 -0.126 -21.025 -0.127 -21.044 -0.133 -21.103 -0.177 -21.116 -0.192 10.807 0.288 3.483 0.159 44.071 42.377
114.200 -20.870 -0.176 -20.877 -0.172 -20.882 -0.169 -20.919 -0.148 -21.000 -0.123 -21.002 -0.123 -21.019 -0.125 -21.038 -0.131 -21.098 -0.175 -21.111 -0.190 10.801 0.288 3.476 0.159 44.069 42.375
114.600 -20.863 -0.174 -20.870 -0.170 -20.875 -0.167 -20.912 -0.146 -20.994 -0.121 -20.996 -0.121 -21.013 -0.122 -21.033 -0.128 -21.093 -0.174 -21.105 -0.188 10.795 0.289 3.469 0.159 44.066 42.372
115.000 -20.856 -0.172 -20.864 -0.168 -20.869 -0.165 -20.906 -0.144 -20.988 -0.118 -20.990 -0.118 -21.007 -0.120 -21.027 -0.126 -21.087 -0.172 -21.100 -0.186 10.789 0.289 3.462 0.159 44.064 42.370
115.400 -20.850 -0.170 -20.857 -0.166 -20.862 -0.163 -20.900 -0.142 -20.982 -0.116 -20.984 -0.116 -21.002 -0.117 -21.021 -0.124 -21.082 -0.170 -21.095 -0.184 10.783 0.290 3.456 0.159 44.061 42.367
115.800 -20.843 -0.168 -20.851 -0.164 -20.855 -0.161 -20.893 -0.140 -20.976 -0.113 -20.978 -0.113 -20.996 -0.115 -21.015 -0.121 -21.077 -0.168 -21.090 -0.183 10.776 0.290 3.449 0.159 44.058 42.365
116.200 -20.837 -0.167 -20.844 -0.162 -20.849 -0.159 -20.887 -0.138 -20.971 -0.111 -20.972 -0.111 -20.990 -0.113 -21.010 -0.119 -21.072 -0.166 -21.085 -0.181 10.770 0.290 3.443 0.159 44.056 42.362
116.600 -20.830 -0.165 -20.838 -0.160 -20.843 -0.158 -20.881 -0.136 -20.965 -0.109 -20.966 -0.109 -20.984 -0.111 -21.004 -0.117 -21.066 -0.164 -21.079 -0.179 10.764 0.291 3.437 0.159 44.053 42.360
117.000 -20.824 -0.163 -20.831 -0.159 -20.836 -0.156 -20.875 -0.134 -20.959 -0.106 -20.961 -0.106 -20.979 -0.108 -20.999 -0.115 -21.061 -0.163 -21.074 -0.178 10.757 0.291 3.430 0.159 44.050 42.357
117.400 -20.817 -0.162 -20.825 -0.157 -20.830 -0.154 -20.868 -0.132 -20.953 -0.104 -20.955 -0.104 -20.973 -0.106 -20.993 -0.113 -21.056 -0.161 -21.069 -0.176 10.750 0.291 3.424 0.159 44.048 42.354
117.800 -20.811 -0.160 -20.818 -0.155 -20.823 -0.152 -20.862 -0.131 -20.947 -0.102 -20.949 -0.102 -20.967 -0.104 -20.987 -0.111 -21.051 -0.159 -21.064 -0.174 10.744 0.292 3.418 0.159 44.045 42.352
118.200 -20.804 -0.158 -20.812 -0.154 -20.817 -0.151 -20.856 -0.129 -20.942 -0.100 -20.943 -0.100 -20.962 -0.102 -20.982 -0.109 -21.046 -0.158 -21.059 -0.173 10.737 0.292 3.413 0.159 44.042 42.349
118.600 -20.798 -0.157 -20.805 -0.152 -20.810 -0.149 -20.850 -0.127 -20.936 -0.098 -20.937 -0.098 -20.956 -0.101 -20.976 -0.108 -21.040 -0.156 -21.054 -0.171 10.730 0.292 3.407 0.159 44.040 42.346
119.000 -20.791 -0.155 -20.799 -0.151 -20.804 -0.148 -20.843 -0.126 -20.930 -0.097 -20.932 -0.097 -20.950 -0.099 -20.971 -0.106 -21.035 -0.155 -21.049 -0.170 10.722 0.292 3.401 0.159 44.037 42.343
119.400 -20.785 -0.154 -20.793 -0.149 -20.797 -0.146 -20.837 -0.124 -20.924 -0.095 -20.926 -0.095 -20.945 -0.097 -20.965 -0.104 -21.030 -0.153 -21.044 -0.168 10.715 0.292 3.396 0.159 44.035 42.340
119.800 -20.778 -0.152 -20.786 -0.148 -20.791 -0.145 -20.831 -0.123 -20.919 -0.094 -20.920 -0.094 -20.939 -0.096 -20.960 -0.103 -21.025 -0.152 -21.039 -0.167 10.707 0.292 3.391 0.159 44.032 42.337
120.200 -20.772 -0.151 -20.780 -0.146 -20.785 -0.144 -20.825 -0.122 -20.913 -0.092 -20.915 -0.092 -20.934 -0.095 -20.954 -0.102 -21.020 -0.150 -21.034 -0.165 10.699 0.292 3.386 0.158 44.030 42.334
120.600 -20.765 -0.150 -20.773 -0.145 -20.778 -0.142 -20.819 -0.120 -20.907 -0.091 -20.909 -0.091 -20.928 -0.093 -20.949 -0.100 -21.015 -0.149 -21.029 -0.164 10.691 0.292 3.381 0.158 44.027 42.331
121.000 -20.759 -0.148 -20.767 -0.144 -20.772 -0.141 -20.813 -0.119 -20.902 -0.090 -20.903 -0.090 -20.922 -0.092 -20.944 -0.099 -21.010 -0.148 -21.024 -0.162 10.682 0.292 3.377 0.158 44.025 42.328
121.400 -20.753 -0.147 -20.761 -0.142 -20.766 -0.140 -20.806 -0.118 -20.896 -0.089 -20.898 -0.089 -20.917 -0.091 -20.938 -0.098 -21.005 -0.146 -21.019 -0.161 10.674 0.292 3.373 0.158 44.022 42.324
121.800 -20.746 -0.146 -20.754 -0.141 -20.759 -0.138 -20.800 -0.117 -20.890 -0.088 -20.892 -0.088 -20.912 -0.090 -20.933 -0.097 -21.000 -0.145 -21.014 -0.160 10.665 0.292 3.369 0.158 44.020 42.321
122.200 -20.740 -0.145 -20.748 -0.140 -20.753 -0.137 -20.794 -0.116 -20.885 -0.087 -20.887 -0.087 -20.906 -0.090 -20.928 -0.096 -20.995 -0.144 -21.009 -0.158 10.656 0.292 3.365 0.158 44.017 42.317
122.600 -20.734 -0.143 -20.742 -0.139 -20.747 -0.136 -20.788 -0.115 -20.879 -0.087 -20.881 -0.087 -20.901 -0.089 -20.922 -0.096 -20.990 -0.143 -21.004 -0.157 10.646 0.291 3.361 0.158 44.015 42.314
123.000 -20.727 -0.142 -20.736 -0.138 -20.741 -0.135 -20.782 -0.114 -20.874 -0.086 -20.876 -0.086 -20.895 -0.088 -20.917 -0.095 -20.985 -0.142 -21.000 -0.156 10.637 0.291 3.358 0.158 44.012 42.310
123.400 -20.721 -0.141 -20.729 -0.137 -20.735 -0.134 -20.776 -0.113 -20.868 -0.086 -20.870 -0.086 -20.890 -0.088 -20.912 -0.094 -20.980 -0.140 -20.995 -0.155 10.627 0.290 3.355 0.158 44.010 42.306
123.800 -20.715 -0.140 -20.723 -0.136 -20.728 -0.133 -20.770 -0.112 -20.863 -0.085 -20.865 -0.085 -20.885 -0.087 -20.906 -0.094 -20.975 -0.139 -20.990 -0.153 10.617 0.290 3.352 0.158 44.007 42.302
124.200 -20.709 -0.139 -20.717 -0.135 -20.722 -0.132 -20.764 -0.111 -20.857 -0.085 -20.859 -0.085 -20.879 -0.087 -20.901 -0.093 -20.971 -0.138 -20.985 -0.152 10.607 0.290 3.349 0.158 44.005 42.298
124.600 -20.702 -0.138 -20.711 -0.134 -20.716 -0.131 -20.758 -0.111 -20.852 -0.085 -20.854 -0.085 -20.874 -0.087 -20.896 -0.093 -20.966 -0.137 -20.981 -0.151 10.596 0.289 3.346 0.158 44.003 42.294
125.000 -20.696 -0.137 -20.705 -0.133 -20.710 -0.130 -20.753 -0.110 -20.847 -0.085 -20.849 -0.085 -20.869 -0.086 -20.891 -0.092 -20.961 -0.136 -20.976 -0.150 10.586 0.288 3.344 0.158 44.000 42.290
125.400 -20.690 -0.136 -20.699 -0.132 -20.704 -0.129 -20.747 -0.109 -20.841 -0.084 -20.843 -0.084 -20.863 -0.086 -20.886 -0.092 -20.956 -0.135 -20.971 -0.149 10.575 0.288 3.341 0.158 43.998 42.286
125.800 -20.684 -0.135 -20.692 -0.131 -20.698 -0.128 -20.741 -0.109 -20.836 -0.084 -20.838 -0.084 -20.858 -0.086 -20.881 -0.092 -20.952 -0.134 -20.967 -0.148 10.564 0.287 3.339 0.157 43.995 42.282
126.200 -20.678 -0.134 -20.686 -0.130 -20.692 -0.127 -20.735 -0.108 -20.831 -0.084 -20.833 -0.084 -20.853 -0.086 -20.876 -0.091 -20.947 -0.133 -20.962 -0.146 10.553 0.287 3.337 0.157 43.993 42.278
126.600 -20.672 -0.133 -20.680 -0.129 -20.686 -0.126 -20.729 -0.107 -20.825 -0.084 -20.827 -0.084 -20.848 -0.086 -20.871 -0.091 -20.942 -0.132 -20.957 -0.145 10.542 0.286 3.335 0.157 43.991 42.274
127.000 -20.666 -0.132 -20.674 -0.128 -20.680 -0.126 -20.723 -0.107 -20.820 -0.084 -20.822 -0.084 -20.843 -0.085 -20.866 -0.091 -20.938 -0.131 -20.953 -0.144 10.531 0.285 3.333 0.157 43.988 42.270
127.400 -20.660 -0.131 -20.668 -0.127 -20.674 -0.125 -20.718 -0.106 -20.815 -0.084 -20.817 -0.084 -20.838 -0.085 -20.861 -0.090 -20.933 -0.130 -20.948 -0.143 10.520 0.284 3.332 0.157 43.986 42.265
127.800 -20.653 -0.130 -20.662 -0.126 -20.668 -0.124 -20.712 -0.106 -20.810 -0.084 -20.812 -0.084 -20.833 -0.085 -20.856 -0.090 -20.928 -0.129 -20.944 -0.142 10.509 0.284 3.330 0.157 43.984 42.261
128.200 -20.647 -0.129 -20.656 -0.125 -20.662 -0.123 -20.706 -0.105 -20.805 -0.084 -20.807 -0.084 -20.828 -0.085 -20.851 -0.090 -20.924 -0.128 -20.940 -0.141 10.497 0.283 3.329 0.157 43.982 42.257
128.600 -20.641 -0.128 -20.650 -0.124 -20.656 -0.122 -20.701 -0.104 -20.800 -0.083 -20.802 -0.083 -20.823 -0.085 -20.846 -0.090 -20.919 -0.127 -20.935 -0.140 10.486 0.282 3.327 0.156 43.979 42.252
129.000 -20.636 -0.127 -20.644 -0.123 -20.650 -0.121 -20.695 -0.104 -20.795 -0.083 -20.797 -0.083 -20.818 -0.085 -20.842 -0.089 -20.915 -0.126 -20.931 -0.139 10.474 0.281 3.326 0.156 43.977 42.248
129.400 -20.630 -0.126 -20.639 -0.123 -20.644 -0.120 -20.690 -0.103 -20.790 -0.083 -20.792 -0.083 -20.813 -0.084 -20.837 -0.089 -20.911 -0.125 -20.926 -0.137 10.463 0.280 3.325 0.156 43.975 42.244
129.800 -20.624 -0.125 -20.633 -0.122 -20.638 -0.119 -20.684 -0.103 -20.785 -0.083 -20.787 -0.083 -20.808 -0.084 -20.832 -0.089 -20.906 -0.124 -20.922 -0.136 10.451 0.279 3.324 0.156 43.973 42.239
130.200 -20.618 -0.124 -20.627 -0.121 -20.632 -0.118 -20.678 -0.102 -20.780 -0.083 -20.782 -0.083 -20.804 -0.084 -20.827 -0.088 -20.902 -0.123 -20.918 -0.135 10.440 0.278 3.322 0.156 43.971 42.235
130.600 -20.612 -0.123 -20.621 -0.120 -20.627 -0.117 -20.673 -0.101 -20.775 -0.083 -20.777 -0.083 -20.799 -0.084 -20.823 -0.088 -20.898 -0.122 -20.914 -0.134 10.428 0.277 3.322 0.156 43.968 42.231
131.000 -20.606 -0.122 -20.615 -0.119 -20.621 -0.117 -20.668 -0.101 -20.770 -0.082 -20.772 -0.082 -20.794 -0.083 -20.818 -0.087 -20.893 -0.121 -20.909 -0.133 10.417 0.277 3.321 0.155 43.966 42.226
131.400 -20.600 -0.121 -20.610 -0.118 -20.615 -0.116 -20.662 -0.100 -20.766 -0.082 -20.768 -0.082 -20.790 -0.083 -20.814 -0.087 -20.889 -0.120 -20.905 -0.132 10.405 0.276 3.320 0.155 43.964 42.222
131.800 -20.595 -0.120 -20.604 -0.117 -20.610 -0.115 -20.657 -0.099 -20.761 -0.082 -20.763 -0.082 -20.785 -0.083 -20.809 -0.087 -20.885 -0.119 -20.901 -0.130 10.393 0.275 3.319 0.155 43.962 42.217
132.200 -20.589 -0.119 -20.598 -0.116 -20.604 -0.114 -20.651 -0.098 -20.756 -0.081 -20.758 -0.081 -20.780 -0.082 -20.805 -0.086 -20.881 -0.118 -20.897 -0.129 10.382 0.273 3.318 0.155 43.960 42.213
132.600 -20.583 -0.118 -20.592 -0.115 -20.598 -0.113 -20.646 -0.098 -20.752 -0.081 -20.754 -0.081 -20.776 -0.082 -20.800 -0.086 -20.877 -0.117 -20.893 -0.128 10.370 0.272 3.318 0.154 43.958 42.208
133.000 -20.577 -0.117 -20.587 -0.114 -20.593 -0.112 -20.641 -0.097 -20.747 -0.081 -20.749 -0.081 -20.772 -0.082 -20.796 -0.085 -20.872 -0.116 -20.889 -0.127 10.358 0.271 3.317 0.154 43.956 42.204
133.400 -20.572 -0.116 -20.581 -0.113 -20.587 -0.111 -20.636 -0.096 -20.742 -0.080 -20.745 -0.080 -20.767 -0.081 -20.792 -0.084 -20.868 -0.115 -20.885 -0.126 10.347 0.270 3.317 0.154 43.953 42.199
133.800 -20.566 -0.115 -20.576 -0.112 -20.582 -0.110 -20.630 -0.095 -20.738 -0.080 -20.740 -0.080 -20.763 -0.081 -20.788 -0.084 -20.864 -0.113 -20.881 -0.125 10.335 0.269 3.317 0.154 43.951 42.194
134.200 -20.561 -0.114 -20.570 -0.111 -20.576 -0.109 -20.625 -0.094 -20.734 -0.079 -20.736 -0.079 -20.758 -0.080 -20.783 -0.083 -20.861 -0.112 -20.877 -0.123 10.323 0.268 3.316 0.153 43.949 42.190
134.600 -20.555 -0.113 -20.565 -0.110 -20.571 -0.108 -20.620 -0.094 -20.729 -0.079 -20.731 -0.079 -20.754 -0.080 -20.779 -0.083 -20.857 -0.111 -20.873 -0.122 10.311 0.267 3.316 0.153 43.947 42.185
135.000 -20.549 -0.112 -20.559 -0.109 -20.565 -0.107 -20.615 -0.093 -20.725 -0.078 -20.727 -0.078 -20.750 -0.079 -20.775 -0.082 -20.853 -0.110 -20.870 -0.121 10.299 0.266 3.316 0.153 43.945 42.180
135.400 -20.544 -0.111 -20.554 -0.107 -20.560 -0.106 -20.610 -0.092 -20.720 -0.078 -20.723 -0.078 -20.746 -0.079 -20.771 -0.081 -20.849 -0.109 -20.866 -0.120 10.288 0.265 3.316 0.152 43.943 42.176
135.800 -20.539 -0.110 -20.548 -0.106 -20.554 -0.105 -20.605 -0.091 -20.716 -0.077 -20.718 -0.077 -20.742 -0.078 -20.767 -0.081 -20.845 -0.108 -20.862 -0.119 10.276 0.263 3.316 0.152 43.941 42.171
136.200 -20.533 -0.108 -20.543 -0.105 -20.549 -0.103 -20.600 -0.090 -20.712 -0.077 -20.714 -0.077 -20.738 -0.077 -20.763 -0.080 -20.841 -0.107 -20.858 -0.118 10.264 0.262 3.316 0.152 43.939 42.166
136.600 -20.528 -0.107 -20.538 -0.104 -20.544 -0.102 -20.595 -0.089 -20.708 -0.076 -20.710 -0.076 -20.734 -0.077 -20.759 -0.080 -20.838 -0.106 -20.855 -0.116 10.252 0.261 3.317 0.151 43.937 42.161
137.000 -20.522 -0.106 -20.532 -0.103 -20.539 -0.101 -20.590 -0.089 -20.704 -0.075 -20.706 -0.075 -20.730 -0.076 -20.755 -0.079 -20.834 -0.105 -20.851 -0.115 10.240 0.260 3.317 0.151 43.935 42.157
137.400 -20.517 -0.105 -20.527 -0.102 -20.533 -0.100 -20.585 -0.088 -20.700 -0.075 -20.702 -0.075 -20.726 -0.076 -20.751 -0.078 -20.831 -0.104 -20.848 -0.114 10.228 0.259 3.317 0.151 43.934 42.152
137.800 -20.512 -0.104 -20.522 -0.101 -20.528 -0.099 -20.580 -0.087 -20.696 -0.074 -20.698 -0.074 -20.722 -0.075 -20.748 -0.078 -20.827 -0.103 -20.844 -0.113 10.216 0.257 3.318 0.150 43.932 42.147
138.200 -20.506 -0.103 -20.517 -0.100 -20.523 -0.098 -20.575 -0.086 -20.692 -0.074 -20.694 -0.074 -20.718 -0.074 -20.744 -0.077 -20.824 -0.102 -20.841 -0.112 10.204 0.256 3.319 0.150 43.930 42.142
138.600 -20.501 -0.102 -20.511 -0.099 -20.518 -0.097 -20.571 -0.085 -20.688 -0.073 -20.690 -0.073 -20.714 -0.074 -20.740 -0.077 -20.820 -0.101 -20.838 -0.111 10.192 0.255 3.319 0.150 43.928 42.137
139.000 -20.496 -0.101 -20.506 -0.098 -20.513 -0.096 -20.566 -0.084 -20.684 -0.073 -20.686 -0.073 -20.710 -0.073 -20.737 -0.076 -20.817 -0.100 -20.834 -0.110 10.180 0.254 3.320 0.149 43.926 42.133
139.400 -20.491 -0.100 -20.501 -0.097 -20.508 -0.096 -20.561 -0.084 -20.680 -0.072 -20.682 -0.072 -20.707 -0.073 -20.733 -0.075 -20.813 -0.099 -20.831 -0.109 10.168 0.252 3.321 0.149 43.924 42.128
139.800 -20.486 -0.099 -20.496 -0.096 -20.503 -0.095 -20.556 -0.083 -20.676 -0.072 -20.678 -0.072 -20.703 -0.072 -20.729 -0.075 -20.810 -0.098 -20.828 -0.108 10.155 0.251 3.322 0.149 43.922 42.123
140.200 -20.481 -0.098 -20.491 -0.095 -20.498 -0.094 -20.552 -0.082 -20.672 -0.071 -20.674 -0.071 -20.699 -0.072 -20.726 -0.074 -20.807 -0.097 -20.825 -0.107 10.143 0.250 3.323 0.149 43.921 42.119
140.600 -20.476 -0.097 -20.486 -0.095 -20.493 -0.093 -20.547 -0.082 -20.668 -0.071 -20.671 -0.071 -20.696 -0.072 -20.722 -0.074 -20.804 -0.097 -20.822 -0.106 10.131 0.249 3.324 0.148 43.919 42.115
141.000 -20.471 -0.097 -20.481 -0.094 -20.488 -0.092 -20.543 -0.081 -20.665 -0.071 -20.667 -0.071 -20.692 -0.071 -20.719 -0.074 -20.801 -0.096 -20.819 -0.106 10.119 0.248 3.325 0.148 43.917 42.110
141.400 -20.466 -0.096 -20.476 -0.093 -20.483 -0.091 -20.538 -0.081 -20.661 -0.070 -20.663 -0.070 -20.688 -0.071 -20.715 -0.073 -20.798 -0.095 -20.816 -0.105 10.107 0.247 3.327 0.148 43.915 42.106
141.800 -20.461 -0.095 -20.471 -0.092 -20.478 -0.091 -20.534 -0.080 -20.657 -0.070 -20.660 -0.070 -20.685 -0.071 -20.712 -0.073 -20.795 -0.095 -20.813 -0.104 10.095 0.246 3.328 0.148 43.914 42.102
142.200 -20.456 -0.094 -20.467 -0.092 -20.473 -0.090 -20.529 -0.080 -20.653 -0.070 -20.656 -0.070 -20.681 -0.071 -20.709 -0.073 -20.792 -0.094 -20.810 -0.104 10.083 0.246 3.329 0.148 43.912 42.098
142.600 -20.451 -0.094 -20.462 -0.091 -20.469 -0.089 -20.525 -0.079 -20.650 -0.070 -20.652 -0.070 -20.678 -0.071 -20.705 -0.073 -20.789 -0.094 -20.807 -0.103 10.071 0.245 3.331 0.148 43.910 42.095
143.000 -20.446 -0.093 -20.457 -0.090 -20.464 -0.089 -20.520 -0.079 -20.646 -0.070 -20.649 -0.070 -20.674 -0.070 -20.702 -0.073 -20.786 -0.093 -20.804 -0.103 10.059 0.244 3.332 0.148 43.909 42.091
143.400 -20.442 -0.092 -20.452 -0.090 -20.459 -0.088 -20.516 -0.078 -20.642 -0.070 -20.645 -0.070 -20.671 -0.070 -20.699 -0.073 -20.783 -0.093 -20.802 -0.102 10.048 0.244 3.334 0.148 43.907 42.088
143.800 -20.437 -0.092 -20.448 -0.089 -20.455 -0.088 -20.512 -0.078 -20.639 -0.070 -20.641 -0.070 -20.668 -0.070 -20.696 -0.072 -20.781 -0.092 -20.799 -0.102 10.036 0.243 3.335 0.148 43.905 42.085
144.200 -20.432 -0.091 -20.443 -0.089 -20.450 -0.087 -20.507 -0.078 -20.635 -0.070 -20.638 -0.070 -20.664 -0.070 -20.692 -0.072 -20.778 -0.092 -20.797 -0.101 10.024 0.243 3.337 0.149 43.904 42.082
144.600 -20.428 -0.091 -20.439 -0.088 -20.446 -0.087 -20.503 -0.078 -20.632 -0.070 -20.634 -0.070 -20.661 -0.071 -20.689 -0.072 -20.776 -0.092 -20.794 -0.101 10.013 0.242 3.339 0.149 43.902 42.079
145.000 -20.423 -0.090 -20.434 -0.088 -20.441 -0.086 -20.499 -0.077 -20.628 -0.070 -20.631 -0.070 -20.657 -0.071 -20.686 -0.072 -20.773 -0.092 -20.792 -0.101 10.001 0.242 3.340 0.149 43.901 42.076
145.400 -20.419 -0.090 -20.430 -0.087 -20.437 -0.086 -20.495 -0.077 -20.625 -0.070 -20.627 -0.070 -20.654 -0.071 -20.683 -0.073 -20.771 -0.091 -20.789 -0.100 9.990 0.241 3.342 0.149 43.899 42.073
145.800 -20.414 -0.089 -20.425 -0.087 -20.432 -0.086 -20.490 -0.077 -20.621 -0.070 -20.624 -0.070 -20.651 -0.071 -20.680 -0.073 -20.768 -0.091 -20.787 -0.100 9.979 0.241 3.343 0.150 43.897 42.070
146.200 -20.410 -0.089 -20.421 -0.086 -20.428 -0.085 -20.486 -0.077 -20.618 -0.070 -20.620 -0.070 -20.648 -0.071 -20.677 -0.073 -20.766 -0.091 -20.785 -0.100 9.967 0.241 3.345 0.150 43.896 42.067
146.600 -20.405 -0.088 -20.416 -0.086 -20.423 -0.085 -20.482 -0.076 -20.614 -0.070 -20.617 -0.070 -20.644 -0.071 -20.674 -0.073 -20.763 -0.091 -20.782 -0.100 9.956 0.240 3.347 0.150 43.894 42.064
147.000 -20.401 -0.088 -20.412 -0.086 -20.419 -0.084 -20.478 -0.076 -20.611 -0.070 -20.614 -0.070 -20.641 -0.071 -20.671 -0.073 -20.761 -0.091 -20.780 -0.099 9.945 0.240 3.348 0.150 43.893 42.061
147.400 -20.396 -0.087 -20.408 -0.085 -20.415 -0.084 -20.474 -0.076 -20.608 -0.070 -20.610 -0.070 -20.638 -0.071 -20.668 -0.073 -20.759 -0.091 -20.778 -0.099 9.935 0.239 3.350 0.150 43.891 42.058
147.800 -20.392 -0.087 -20.403 -0.085 -20.411 -0.083 -20.470 -0.076 -20.604 -0.070 -20.607 -0.070 -20.635 -0.071 -20.665 -0.073 -20.757 -0.091 -20.776 -0.099 9.924 0.239 3.351 0.151 43.890 42.055
148.200 -20.388 -0.086 -20.399 -0.084 -20.406 -0.083 -20.466 -0.075 -20.601 -0.070 -20.604 -0.070 -20.632 -0.071 -20.663 -0.073 -20.754 -0.090 -20.773 -0.099 9.914 0.238 3.353 0.151 43.889 42.052
148.600 -20.383 -0.086 -20.395 -0.084 -20.402 -0.082 -20.462 -0.075 -20.598 -0.070 -20.601 -0.070 -20.629 -0.071 -20.660 -0.073 -20.752 -0.090 -20.771 -0.099 9.903 0.238 3.354 0.151 43.887 42.049
149.000 -20.379 -0.085 -20.391 -0.083 -20.398 -0.082 -20.458 -0.075 -20.595 -0.070 -20.597 -0.070 -20.626 -0.071 -20.657 -0.073 -20.750 -0.090 -20.769 -0.099 9.893 0.237 3.355 0.151 43.886 42.046
149.400 -20.375 -0.084 -20.386 -0.082 -20.394 -0.081 -20.454 -0.074 -20.592 -0.070 -20.594 -0.070 -20.623 -0.071 -20.654 -0.072 -20.748 -0.090 -20.767 -0.098 9.884 0.237 3.356 0.151 43.884 42.042
149.800 -20.371 -0.084 -20.382 -0.082 -20.390 -0.081 -20.451 -0.074 -20.588 -0.070 -20.591 -0.070 -20.620 -0.071 -20.652 -0.072 -20.745 -0.090 -20.765 -0.098 9.874 0.236 3.357 0.151 43.883 42.039
150.200 -20.366 -0.083 -20.378 -0.081 -20.385 -0.080 -20.447 -0.073 -20.585 -0.070 -20.588 -0.070 -20.617 -0.070 -20.649 -0.072 -20.743 -0.090 -20.763 -0.098 9.865 0.236 3.358 0.151 43.881 42.036
150.600 -20.362 -0.082 -20.374 -0.080 -20.381 -0.079 -20.443 -0.073 -20.582 -0.069 -20.585 -0.069 -20.614 -0.070 -20.646 -0.072 -20.741 -0.089 -20.761 -0.098 9.856 0.235 3.359 0.151 43.880 42.032
151.000 -20.358 -0.081 -20.370 -0.079 -20.377 -0.078 -20.439 -0.072 -20.579 -0.069 -20.582 -0.069 -20.612 -0.070 -20.644 -0.071 -20.739 -0.089 -20.759 -0.098 9.847 0.234 3.359 0.151 43.879 42.029
151.400 -20.354 -0.081 -20.366 -0.079 -20.373 -0.078 -20.435 -0.071 -20.576 -0.068 -20.579 -0.068 -20.609 -0.069 -20.641 -0.071 -20.737 -0.089 -20.756 -0.097 9.839 0.234 3.360 0.151 43.877 42.025
151.800 -20.350 -0.080 -20.362 -0.078 -20.369 -0.077 -20.432 -0.071 -20.573 -0.068 -20.576 -0.068 -20.606 -0.069 -20.638 -0.071 -20.735 -0.089 -20.754 -0.097 9.831 0.233 3.360 0.151 43.876 42.021
152.200 -20.346 -0.079 -20.358 -0.077 -20.365 -0.076 -20.428 -0.070 -20.570 -0.067 -20.573 -0.067 -20.603 -0.068 -20.636 -0.070 -20.733 -0.088 -20.752 -0.097 9.824 0.232 3.359 0.151 43.875 42.017
152.600 -20.342 -0.078 -20.354 -0.076 -20.361 -0.075 -20.424 -0.069 -20.567 -0.067 -20.570 -0.067 -20.601 -0.068 -20.633 -0.070 -20.730 -0.088 -20.750 -0.097 9.817 0.231 3.359 0.150 43.873 42.013
153.000 -20.338 -0.077 -20.350 -0.075 -20.357 -0.074 -20.420 -0.068 -20.565 -0.066 -20.567 -0.066 -20.598 -0.067 -20.631 -0.069 -20.728 -0.088 -20.748 -0.096 9.810 0.230 3.358 0.150 43.872 42.009
153.400 -20.334 -0.076 -20.346 -0.074 -20.353 -0.073 -20.417 -0.067 -20.562 -0.065 -20.565 -0.066 -20.595 -0.067 -20.628 -0.069 -20.726 -0.088 -20.746 -0.096 9.804 0.230 3.357 0.150 43.870 42.005
153.800 -20.330 -0.075 -20.342 -0.073 -20.350 -0.072 -20.413 -0.066 -20.559 -0.065 -20.562 -0.065 -20.592 -0.066 -20.626 -0.068 -20.724 -0.087 -20.744 -0.096 9.799 0.229 3.356 0.150 43.869 42.000
154.200 -20.326 -0.074 -20.338 -0.072 -20.346 -0.071 -20.410 -0.065 -20.556 -0.064 -20.559 -0.064 -20.590 -0.065 -20.623 -0.067 -20.722 -0.087 -20.742 -0.096 9.794 0.228 3.354 0.149 43.868 41.996
154.600 -20.322 -0.073 -20.334 -0.071 -20.342 -0.070 -20.406 -0.064 -20.553 -0.063 -20.556 -0.063 -20.587 -0.064 -20.621 -0.067 -20.720 -0.087 -20.739 -0.096 9.789 0.227 3.352 0.149 43.866 41.991
155.000 -20.318 -0.071 -20.330 -0.070 -20.338 -0.069 -20.402 -0.063 -20.550 -0.062 -20.553 -0.062 -20.584 -0.064 -20.618 -0.066 -20.717 -0.086 -20.737 -0.095 9.785 0.226 3.350 0.148 43.865 41.986
155.400 -20.314 -0.070 -20.326 -0.068 -20.334 -0.067 -20.399 -0.062 -20.547 -0.061 -20.550 -0.061 -20.582 -0.063 -20.616 -0.065 -20.715 -0.086 -20.735 -0.095 9.781 0.225 3.347 0.148 43.864 41.981
155.800 -20.310 -0.069 -20.323 -0.067 -20.330 -0.066 -20.395 -0.061 -20.545 -0.060 -20.548 -0.060 -20.579 -0.062 -20.613 -0.065 -20.713 -0.086 -20.733 -0.095 9.778 0.224 3.344 0.147 43.862 41.976
156.200 -20.307 -0.068 -20.319 -0.066 -20.327 -0.065 -20.392 -0.060 -20.542 -0.059 -20.545 -0.060 -20.576 -0.061 -20.610 -0.064 -20.711 -0.086 -20.731 -0.095 9.775 0.223 3.341 0.147 43.861 41.971
156.600 -20.303 -0.067 -20.315 -0.065 -20.323 -0.064 -20.388 -0.058 -20.539 -0.059 -20.542 -0.059 -20.574 -0.060 -20.608 -0.063 -20.708 -0.086 -20.728 -0.095 9.773 0.222 3.337 0.146 43.860 41.966
157.000 -20.299 -0.066 -20.311 -0.064 -20.319 -0.063 -20.385 -0.057 -20.536 -0.058 -20.539 -0.058 -20.571 -0.060 -20.605 -0.063 -20.706 -0.086 -20.726 -0.095 9.771 0.221 3.333 0.145 43.858 41.961
157.400 -20.295 -0.065 -20.308 -0.063 -20.316 -0.062 -20.381 -0.056 -20.533 -0.057 -20.536 -0.057 -20.568 -0.059 -20.603 -0.062 -20.704 -0.086 -20.724 -0.095 9.770 0.220 3.329 0.145 43.857 41.956
157.800 -20.292 -0.065 -20.304 -0.062 -20.312 -0.061 -20.378 -0.056 -20.531 -0.056 -20.534 -0.056 -20.566 -0.058 -20.600 -0.062 -20.701 -0.086 -20.721 -0.096 9.768 0.219 3.325 0.144 43.856 41.951
158.200 -20.288 -0.064 -20.301 -0.062 -20.308 -0.061 -20.375 -0.055 -20.528 -0.055 -20.531 -0.056 -20.563 -0.058 -20.597 -0.061 -20.699 -0.086 -20.719 -0.096 9.767 0.218 3.321 0.144 43.854 41.946
158.600 -20.285 -0.063 -20.297 -0.061 -20.305 -0.060 -20.371 -0.054 -20.525 -0.055 -20.528 -0.055 -20.560 -0.057 -20.595 -0.061 -20.696 -0.086 -20.717 -0.096 9.766 0.217 3.316 0.143 43.853 41.942
159.000 -20.281 -0.063 -20.293 -0.061 -20.301 -0.060 -20.368 -0.054 -20.522 -0.055 -20.525 -0.055 -20.557 -0.057 -20.592 -0.061 -20.694 -0.087 -20.714 -0.097 9.765 0.217 3.312 0.142 43.852 41.938
159.400 -20.277 -0.063 -20.290 -0.060 -20.298 -0.059 -20.364 -0.053 -20.519 -0.054 -20.522 -0.054 -20.554 -0.057 -20.589 -0.061 -20.691 -0.087 -20.712 -0.098 9.764 0.216 3.308 0.142 43.850 41.934
159.800 -20.274 -0.063 -20.287 -0.060 -20.294 -0.059 -20.361 -0.053 -20.516 -0.054 -20.519 -0.054 -20.552 -0.057 -20.586 -0.061 -20.689 -0.088 -20.709 -0.098 9.763 0.216 3.303 0.142 43.849 41.931
160.200 -20.271 -0.063 -20.283 -0.061 -20.291 -0.059 -20.358 -0.053 -20.513 -0.054 -20.516 -0.054 -20.549 -0.057 -20.584 -0.061 -20.686 -0.089 -20.706 -0.099 9.761 0.216 3.300 0.142 43.848 41.929
160.600 -20.267 -0.063 -20.280 -0.061 -20.288 -0.060 -20.355 -0.053 -20.510 -0.055 -20.513 -0.055 -20.546 -0.057 -20.581 -0.062 -20.683 -0.090 -20.704 -0.100 9.759 0.216 3.296 0.141 43.846 41.927
161.000 -20.264 -0.064 -20.277 -0.062 -20.284 -0.060 -20.351 -0.054 -20.507 -0.055 -20.510 -0.055 -20.543 -0.058 -20.578 -0.062 -20.680 -0.091 -20.701 -0.102 9.757 0.216 3.292 0.142 43.845 41.926
161.400 -20.261 -0.065 -20.273 -0.063 -20.281 -0.061 -20.348 -0.055 -20.504 -0.056 -20.507 -0.056 -20.539 -0.059 -20.575 -0.063 -20.678 -0.092 -20.698 -0.103 9.755 0.216 3.289 0.142 43.844 41.926
161.800 -20.258 -0.066 -20.270 -0.064 -20.278 -0.063 -20.345 -0.056 -20.501 -0.057 -20.504 -0.057 -20.536 -0.060 -20.572 -0.065 -20.675 -0.094 -20.696 -0.104 9.752 0.217 3.286 0.142 43.843 41.927
