"Time (MJD)" cyan-5182.42 cyan-5182.42_err g-4746.48 g-4746.48_err orange-6629.82 orange-6629.82_err r-6120.65 r-6120.65_err r-6366.38 r-6366.38_err "Temp./1e3 (K)" "Temp. Err." "Radius/1e15 (cm)" "Radius Err." "Log10(Bol. Lum)" "Log10(Bol. Err)"
-34.000 -21.468 -0.087 -21.406 -0.073 -21.269 -0.069 -21.235 -0.075 -21.200 -0.084 21.036 0.282 1.591 0.024 44.548 42.929
-33.600 -21.491 -0.085 -21.430 -0.070 -21.293 -0.066 -21.259 -0.071 -21.224 -0.081 21.004 0.276 1.611 0.024 44.556 42.929
-33.200 -21.514 -0.083 -21.453 -0.068 -21.317 -0.063 -21.283 -0.069 -21.248 -0.078 20.956 0.269 1.633 0.023 44.564 42.927
-32.800 -21.537 -0.082 -21.476 -0.067 -21.341 -0.061 -21.307 -0.067 -21.272 -0.076 20.893 0.261 1.657 0.023 44.571 42.922
-32.400 -21.560 -0.081 -21.500 -0.067 -21.366 -0.060 -21.332 -0.066 -21.297 -0.075 20.818 0.253 1.682 0.023 44.578 42.915
-32.000 -21.582 -0.081 -21.524 -0.067 -21.391 -0.060 -21.357 -0.065 -21.322 -0.074 20.734 0.244 1.709 0.022 44.585 42.907
-31.600 -21.605 -0.081 -21.547 -0.067 -21.416 -0.060 -21.382 -0.065 -21.347 -0.074 20.642 0.235 1.737 0.022 44.591 42.897
-31.200 -21.628 -0.082 -21.571 -0.068 -21.441 -0.061 -21.407 -0.066 -21.372 -0.074 20.545 0.226 1.766 0.022 44.597 42.887
-30.800 -21.651 -0.083 -21.594 -0.069 -21.466 -0.062 -21.432 -0.067 -21.397 -0.075 20.445 0.217 1.795 0.021 44.603 42.876
-30.400 -21.673 -0.084 -21.618 -0.071 -21.491 -0.063 -21.458 -0.068 -21.422 -0.076 20.343 0.209 1.826 0.021 44.609 42.865
-30.000 -21.695 -0.086 -21.641 -0.072 -21.516 -0.065 -21.483 -0.069 -21.447 -0.077 20.239 0.201 1.857 0.021 44.615 42.854
-29.600 -21.717 -0.087 -21.664 -0.074 -21.540 -0.067 -21.507 -0.071 -21.472 -0.078 20.135 0.193 1.889 0.021 44.621 42.844
-29.200 -21.739 -0.089 -21.687 -0.076 -21.565 -0.069 -21.532 -0.073 -21.497 -0.080 20.031 0.186 1.921 0.020 44.627 42.834
-28.800 -21.761 -0.090 -21.709 -0.078 -21.589 -0.071 -21.557 -0.074 -21.522 -0.081 19.926 0.180 1.953 0.020 44.632 42.824
-28.400 -21.782 -0.092 -21.732 -0.080 -21.613 -0.073 -21.581 -0.076 -21.546 -0.083 19.823 0.174 1.986 0.020 44.638 42.816
-28.000 -21.803 -0.093 -21.754 -0.081 -21.637 -0.074 -21.605 -0.078 -21.570 -0.085 19.721 0.169 2.019 0.020 44.643 42.809
-27.600 -21.824 -0.094 -21.775 -0.083 -21.660 -0.076 -21.628 -0.080 -21.593 -0.086 19.621 0.165 2.053 0.020 44.648 42.804
-27.200 -21.844 -0.096 -21.796 -0.084 -21.683 -0.078 -21.651 -0.081 -21.617 -0.088 19.523 0.162 2.086 0.020 44.654 42.800
-26.800 -21.864 -0.097 -21.817 -0.086 -21.705 -0.080 -21.674 -0.083 -21.640 -0.089 19.429 0.159 2.119 0.020 44.659 42.797
-26.400 -21.884 -0.098 -21.838 -0.087 -21.727 -0.081 -21.696 -0.085 -21.662 -0.091 19.338 0.157 2.152 0.020 44.664 42.796
-26.000 -21.903 -0.099 -21.858 -0.088 -21.748 -0.083 -21.718 -0.086 -21.684 -0.092 19.250 0.155 2.184 0.021 44.669 42.796
-25.600 -21.922 -0.100 -21.877 -0.089 -21.769 -0.084 -21.739 -0.087 -21.705 -0.094 19.165 0.154 2.216 0.021 44.674 42.797
-25.200 -21.940 -0.101 -21.896 -0.090 -21.790 -0.085 -21.760 -0.089 -21.726 -0.095 19.082 0.153 2.248 0.021 44.679 42.800
-24.800 -21.958 -0.101 -21.915 -0.091 -21.810 -0.086 -21.780 -0.090 -21.747 -0.096 19.002 0.152 2.280 0.022 44.684 42.804
-24.400 -21.975 -0.102 -21.933 -0.091 -21.829 -0.087 -21.800 -0.091 -21.767 -0.097 18.923 0.152 2.311 0.022 44.688 42.808
-24.000 -21.992 -0.102 -21.951 -0.092 -21.848 -0.088 -21.819 -0.092 -21.786 -0.098 18.845 0.153 2.343 0.023 44.693 42.813
-23.600 -22.009 -0.102 -21.968 -0.092 -21.867 -0.089 -21.838 -0.092 -21.806 -0.099 18.768 0.154 2.374 0.023 44.697 42.820
-23.200 -22.025 -0.102 -21.984 -0.092 -21.885 -0.089 -21.856 -0.093 -21.824 -0.099 18.693 0.155 2.404 0.024 44.702 42.827
-22.800 -22.040 -0.102 -22.001 -0.092 -21.902 -0.090 -21.874 -0.094 -21.842 -0.100 18.620 0.156 2.435 0.025 44.706 42.834
-22.400 -22.055 -0.102 -22.016 -0.092 -21.919 -0.090 -21.891 -0.094 -21.860 -0.100 18.547 0.158 2.465 0.025 44.710 42.843
-22.000 -22.070 -0.102 -22.032 -0.092 -21.936 -0.090 -21.908 -0.094 -21.877 -0.101 18.477 0.160 2.495 0.026 44.714 42.851
-21.600 -22.085 -0.101 -22.047 -0.091 -21.952 -0.090 -21.925 -0.094 -21.894 -0.101 18.407 0.162 2.525 0.027 44.717 42.861
-21.200 -22.098 -0.101 -22.061 -0.091 -21.968 -0.090 -21.941 -0.094 -21.910 -0.101 18.339 0.164 2.554 0.028 44.721 42.870
-20.800 -22.112 -0.100 -22.075 -0.090 -21.983 -0.089 -21.956 -0.094 -21.926 -0.101 18.273 0.167 2.583 0.029 44.724 42.880
-20.400 -22.125 -0.099 -22.089 -0.089 -21.998 -0.089 -21.971 -0.093 -21.942 -0.100 18.209 0.169 2.611 0.030 44.728 42.890
-20.000 -22.138 -0.098 -22.102 -0.088 -22.012 -0.088 -21.986 -0.093 -21.957 -0.100 18.146 0.172 2.639 0.031 44.731 42.900
-19.600 -22.150 -0.097 -22.115 -0.087 -22.026 -0.087 -22.000 -0.092 -21.971 -0.100 18.085 0.175 2.667 0.032 44.734 42.909
-19.200 -22.162 -0.096 -22.127 -0.086 -22.039 -0.086 -22.014 -0.092 -21.985 -0.099 18.027 0.178 2.694 0.033 44.737 42.919
-18.800 -22.173 -0.095 -22.139 -0.085 -22.052 -0.086 -22.027 -0.091 -21.999 -0.099 17.970 0.181 2.720 0.034 44.740 42.929
-18.400 -22.185 -0.094 -22.151 -0.083 -22.065 -0.085 -22.040 -0.090 -22.012 -0.098 17.916 0.184 2.746 0.035 44.743 42.938
-18.000 -22.195 -0.092 -22.162 -0.082 -22.077 -0.084 -22.053 -0.089 -22.025 -0.098 17.863 0.187 2.771 0.036 44.746 42.947
-17.600 -22.206 -0.091 -22.173 -0.081 -22.089 -0.083 -22.065 -0.089 -22.038 -0.097 17.812 0.189 2.796 0.037 44.749 42.955
-17.200 -22.216 -0.090 -22.183 -0.079 -22.101 -0.082 -22.077 -0.088 -22.050 -0.096 17.763 0.192 2.820 0.038 44.751 42.963
-16.800 -22.226 -0.089 -22.194 -0.078 -22.112 -0.081 -22.088 -0.087 -22.062 -0.096 17.715 0.195 2.844 0.040 44.754 42.972
-16.400 -22.236 -0.087 -22.204 -0.077 -22.123 -0.080 -22.099 -0.087 -22.073 -0.095 17.668 0.198 2.867 0.041 44.757 42.980
-16.000 -22.245 -0.086 -22.213 -0.075 -22.133 -0.079 -22.110 -0.086 -22.084 -0.095 17.622 0.200 2.890 0.042 44.759 42.987
-15.600 -22.254 -0.085 -22.223 -0.074 -22.144 -0.079 -22.121 -0.085 -22.095 -0.094 17.577 0.203 2.913 0.043 44.761 42.995
-15.200 -22.263 -0.084 -22.232 -0.073 -22.154 -0.078 -22.131 -0.085 -22.106 -0.094 17.534 0.206 2.935 0.044 44.764 43.002
-14.800 -22.271 -0.084 -22.241 -0.072 -22.163 -0.078 -22.141 -0.084 -22.116 -0.094 17.491 0.208 2.957 0.045 44.766 43.008
-14.400 -22.280 -0.083 -22.249 -0.072 -22.173 -0.077 -22.151 -0.084 -22.126 -0.093 17.449 0.210 2.979 0.046 44.768 43.014
-14.000 -22.288 -0.082 -22.258 -0.071 -22.182 -0.077 -22.160 -0.084 -22.136 -0.093 17.409 0.212 3.000 0.047 44.770 43.020
-13.600 -22.296 -0.082 -22.266 -0.070 -22.191 -0.076 -22.170 -0.083 -22.145 -0.093 17.369 0.214 3.021 0.048 44.772 43.026
-13.200 -22.303 -0.081 -22.274 -0.070 -22.200 -0.076 -22.179 -0.083 -22.155 -0.092 17.329 0.216 3.042 0.049 44.774 43.031
-12.800 -22.311 -0.081 -22.282 -0.070 -22.209 -0.076 -22.187 -0.083 -22.164 -0.092 17.291 0.217 3.062 0.050 44.776 43.035
-12.400 -22.318 -0.081 -22.290 -0.069 -22.217 -0.075 -22.196 -0.083 -22.173 -0.092 17.253 0.218 3.082 0.051 44.778 43.039
-12.000 -22.325 -0.081 -22.297 -0.069 -22.225 -0.075 -22.205 -0.082 -22.181 -0.092 17.216 0.219 3.102 0.051 44.780 43.043
-11.600 -22.332 -0.081 -22.304 -0.069 -22.233 -0.075 -22.213 -0.082 -22.190 -0.092 17.179 0.220 3.122 0.052 44.782 43.046
-11.200 -22.339 -0.081 -22.312 -0.069 -22.241 -0.075 -22.221 -0.082 -22.198 -0.092 17.143 0.221 3.142 0.053 44.783 43.049
-10.800 -22.346 -0.081 -22.319 -0.070 -22.249 -0.075 -22.229 -0.082 -22.207 -0.091 17.106 0.221 3.161 0.053 44.785 43.051
-10.400 -22.352 -0.081 -22.325 -0.070 -22.257 -0.075 -22.237 -0.082 -22.215 -0.091 17.069 0.222 3.181 0.054 44.787 43.054
-10.000 -22.359 -0.082 -22.332 -0.070 -22.264 -0.075 -22.244 -0.082 -22.222 -0.091 17.031 0.222 3.200 0.054 44.788 43.055
-9.600 -22.365 -0.082 -22.339 -0.071 -22.271 -0.075 -22.252 -0.082 -22.230 -0.091 16.993 0.222 3.220 0.055 44.790 43.057
-9.200 -22.371 -0.083 -22.345 -0.071 -22.279 -0.075 -22.259 -0.082 -22.238 -0.091 16.953 0.222 3.240 0.055 44.791 43.058
-8.800 -22.376 -0.083 -22.351 -0.072 -22.286 -0.075 -22.267 -0.082 -22.245 -0.091 16.913 0.221 3.261 0.056 44.792 43.059
-8.400 -22.382 -0.084 -22.357 -0.072 -22.293 -0.076 -22.274 -0.082 -22.253 -0.091 16.871 0.221 3.281 0.056 44.793 43.060
-8.000 -22.387 -0.085 -22.363 -0.073 -22.299 -0.076 -22.281 -0.082 -22.260 -0.091 16.829 0.221 3.302 0.057 44.794 43.061
-7.600 -22.393 -0.086 -22.369 -0.074 -22.306 -0.076 -22.288 -0.083 -22.267 -0.092 16.785 0.221 3.322 0.057 44.795 43.062
-7.200 -22.398 -0.087 -22.375 -0.075 -22.313 -0.077 -22.294 -0.083 -22.274 -0.092 16.741 0.220 3.343 0.058 44.796 43.062
-6.800 -22.402 -0.088 -22.380 -0.076 -22.319 -0.077 -22.301 -0.083 -22.281 -0.092 16.695 0.220 3.364 0.058 44.797 43.062
-6.400 -22.407 -0.089 -22.385 -0.077 -22.325 -0.077 -22.307 -0.083 -22.287 -0.092 16.650 0.219 3.386 0.059 44.798 43.062
-6.000 -22.411 -0.090 -22.390 -0.078 -22.331 -0.078 -22.313 -0.083 -22.293 -0.092 16.603 0.219 3.407 0.059 44.798 43.062
-5.600 -22.416 -0.091 -22.395 -0.079 -22.337 -0.078 -22.319 -0.084 -22.300 -0.092 16.557 0.218 3.428 0.060 44.799 43.061
-5.200 -22.419 -0.093 -22.399 -0.080 -22.342 -0.078 -22.325 -0.084 -22.306 -0.092 16.510 0.217 3.449 0.060 44.799 43.060
-4.800 -22.423 -0.093 -22.403 -0.081 -22.347 -0.078 -22.330 -0.084 -22.311 -0.092 16.463 0.217 3.470 0.060 44.799 43.059
-4.400 -22.427 -0.094 -22.407 -0.082 -22.353 -0.078 -22.336 -0.083 -22.317 -0.091 16.416 0.216 3.490 0.061 44.800 43.058
-4.000 -22.430 -0.095 -22.411 -0.082 -22.357 -0.078 -22.341 -0.083 -22.322 -0.091 16.370 0.215 3.510 0.061 44.800 43.057
-3.600 -22.433 -0.096 -22.414 -0.083 -22.362 -0.078 -22.346 -0.083 -22.327 -0.091 16.323 0.214 3.530 0.062 44.800 43.056
-3.200 -22.435 -0.096 -22.418 -0.083 -22.366 -0.077 -22.350 -0.082 -22.332 -0.090 16.277 0.214 3.550 0.062 44.800 43.055
-2.800 -22.438 -0.097 -22.421 -0.083 -22.370 -0.077 -22.354 -0.082 -22.336 -0.090 16.231 0.213 3.570 0.062 44.799 43.053
-2.400 -22.440 -0.097 -22.423 -0.083 -22.374 -0.076 -22.358 -0.081 -22.340 -0.089 16.185 0.212 3.589 0.063 44.799 43.051
-2.000 -22.442 -0.097 -22.426 -0.083 -22.377 -0.075 -22.362 -0.080 -22.344 -0.088 16.140 0.211 3.607 0.063 44.799 43.050
-1.600 -22.443 -0.097 -22.428 -0.083 -22.380 -0.074 -22.365 -0.079 -22.348 -0.087 16.095 0.211 3.625 0.063 44.798 43.048
-1.200 -22.444 -0.097 -22.430 -0.082 -22.383 -0.073 -22.368 -0.078 -22.351 -0.086 16.050 0.210 3.643 0.064 44.798 43.046
-0.800 -22.445 -0.097 -22.431 -0.082 -22.386 -0.072 -22.371 -0.077 -22.354 -0.085 16.006 0.209 3.660 0.064 44.797 43.044
-0.400 -22.446 -0.096 -22.432 -0.081 -22.388 -0.071 -22.373 -0.076 -22.356 -0.084 15.962 0.208 3.676 0.065 44.796 43.041
-0.000 -22.446 -0.096 -22.433 -0.080 -22.390 -0.070 -22.375 -0.075 -22.359 -0.083 15.919 0.208 3.692 0.065 44.795 43.039
0.400 -22.446 -0.095 -22.433 -0.079 -22.391 -0.068 -22.377 -0.074 -22.360 -0.083 15.876 0.207 3.707 0.065 44.794 43.036
0.800 -22.445 -0.095 -22.433 -0.078 -22.392 -0.067 -22.378 -0.073 -22.362 -0.082 15.834 0.206 3.722 0.065 44.793 43.033
1.200 -22.444 -0.094 -22.433 -0.077 -22.393 -0.066 -22.379 -0.072 -22.363 -0.081 15.792 0.206 3.736 0.066 44.791 43.029
1.600 -22.443 -0.093 -22.432 -0.076 -22.393 -0.065 -22.380 -0.071 -22.364 -0.081 15.751 0.205 3.749 0.066 44.790 43.026
2.000 -22.441 -0.092 -22.431 -0.075 -22.393 -0.064 -22.380 -0.070 -22.364 -0.080 15.712 0.204 3.761 0.066 44.788 43.022
2.400 -22.439 -0.091 -22.429 -0.074 -22.393 -0.064 -22.379 -0.070 -22.364 -0.080 15.670 0.204 3.773 0.067 44.786 43.018
2.800 -22.436 -0.091 -22.427 -0.074 -22.392 -0.064 -22.379 -0.070 -22.363 -0.081 15.631 0.203 3.783 0.067 44.785 43.014
3.200 -22.433 -0.090 -22.425 -0.073 -22.390 -0.064 -22.378 -0.070 -22.362 -0.081 15.593 0.203 3.793 0.068 44.783 43.010
3.600 -22.430 -0.089 -22.422 -0.072 -22.388 -0.064 -22.376 -0.071 -22.361 -0.082 15.556 0.203 3.802 0.068 44.780 43.005
4.000 -22.426 -0.089 -22.419 -0.072 -22.386 -0.065 -22.374 -0.072 -22.359 -0.083 15.520 0.203 3.809 0.069 44.778 43.001
4.400 -22.422 -0.088 -22.415 -0.072 -22.383 -0.066 -22.371 -0.073 -22.357 -0.084 15.489 0.203 3.814 0.069 44.776 42.998
4.800 -22.417 -0.088 -22.411 -0.072 -22.380 -0.067 -22.368 -0.075 -22.354 -0.086 15.448 0.203 3.822 0.070 44.773 42.993
5.200 -22.412 -0.088 -22.406 -0.072 -22.376 -0.069 -22.365 -0.076 -22.351 -0.087 15.418 0.204 3.825 0.071 44.770 42.989
5.600 -22.406 -0.088 -22.401 -0.073 -22.372 -0.071 -22.361 -0.078 -22.348 -0.089 15.384 0.205 3.829 0.071 44.767 42.986
6.000 -22.400 -0.089 -22.395 -0.073 -22.367 -0.073 -22.357 -0.080 -22.344 -0.091 15.340 0.205 3.836 0.072 44.764 42.981
6.400 -22.393 -0.089 -22.389 -0.075 -22.362 -0.075 -22.352 -0.083 -22.339 -0.094 15.303 0.206 3.839 0.073 44.760 42.978
6.800 -22.386 -0.090 -22.383 -0.076 -22.357 -0.077 -22.347 -0.085 -22.334 -0.096 15.266 0.207 3.842 0.074 44.757 42.975
7.200 -22.379 -0.092 -22.375 -0.078 -22.351 -0.080 -22.341 -0.088 -22.329 -0.099 15.227 0.209 3.844 0.075 44.753 42.972
7.600 -22.371 -0.093 -22.368 -0.079 -22.344 -0.083 -22.335 -0.091 -22.323 -0.101 15.187 0.210 3.846 0.076 44.749 42.970
8.000 -22.362 -0.095 -22.360 -0.082 -22.337 -0.086 -22.328 -0.093 -22.317 -0.104 15.146 0.212 3.848 0.077 44.745 42.968
8.400 -22.353 -0.097 -22.351 -0.084 -22.330 -0.089 -22.321 -0.096 -22.310 -0.107 15.104 0.215 3.850 0.078 44.740 42.967
8.800 -22.344 -0.099 -22.342 -0.087 -22.322 -0.092 -22.314 -0.099 -22.304 -0.109 15.061 0.217 3.851 0.080 44.735 42.966
9.200 -22.334 -0.101 -22.333 -0.089 -22.314 -0.095 -22.306 -0.102 -22.296 -0.112 15.018 0.220 3.852 0.081 44.731 42.965
9.600 -22.324 -0.104 -22.323 -0.092 -22.306 -0.098 -22.298 -0.105 -22.289 -0.115 14.974 0.223 3.852 0.083 44.726 42.964
10.000 -22.313 -0.106 -22.313 -0.095 -22.297 -0.101 -22.290 -0.108 -22.281 -0.118 14.931 0.226 3.852 0.084 44.721 42.964
10.400 -22.302 -0.109 -22.302 -0.098 -22.288 -0.104 -22.281 -0.111 -22.272 -0.121 14.888 0.228 3.851 0.086 44.715 42.963
10.800 -22.291 -0.112 -22.291 -0.102 -22.278 -0.107 -22.272 -0.114 -22.264 -0.124 14.846 0.231 3.849 0.087 44.710 42.962
11.200 -22.280 -0.115 -22.280 -0.105 -22.268 -0.110 -22.262 -0.117 -22.255 -0.127 14.804 0.234 3.847 0.089 44.705 42.962
11.600 -22.268 -0.118 -22.269 -0.108 -22.258 -0.113 -22.253 -0.120 -22.245 -0.130 14.763 0.237 3.844 0.090 44.699 42.961
12.000 -22.256 -0.121 -22.257 -0.111 -22.248 -0.117 -22.243 -0.123 -22.236 -0.132 14.722 0.240 3.840 0.092 44.693 42.960
12.400 -22.244 -0.124 -22.246 -0.114 -22.237 -0.119 -22.232 -0.126 -22.226 -0.135 14.682 0.243 3.836 0.093 44.688 42.959
12.800 -22.232 -0.127 -22.233 -0.118 -22.226 -0.122 -22.222 -0.129 -22.216 -0.137 14.642 0.246 3.832 0.094 44.682 42.957
13.200 -22.219 -0.130 -22.221 -0.121 -22.215 -0.125 -22.211 -0.131 -22.206 -0.140 14.603 0.249 3.826 0.096 44.676 42.956
13.600 -22.206 -0.133 -22.209 -0.124 -22.204 -0.128 -22.200 -0.134 -22.195 -0.142 14.564 0.251 3.821 0.097 44.670 42.954
14.000 -22.193 -0.136 -22.196 -0.126 -22.192 -0.130 -22.189 -0.136 -22.185 -0.145 14.525 0.254 3.815 0.098 44.664 42.952
14.400 -22.180 -0.138 -22.183 -0.129 -22.181 -0.133 -22.178 -0.139 -22.174 -0.147 14.487 0.257 3.809 0.100 44.658 42.950
14.800 -22.167 -0.141 -22.170 -0.132 -22.169 -0.135 -22.166 -0.141 -22.163 -0.149 14.449 0.259 3.802 0.101 44.652 42.947
15.200 -22.153 -0.143 -22.157 -0.134 -22.157 -0.137 -22.155 -0.143 -22.152 -0.151 14.411 0.262 3.795 0.102 44.646 42.945
15.600 -22.140 -0.146 -22.144 -0.137 -22.145 -0.139 -22.143 -0.145 -22.140 -0.152 14.374 0.264 3.788 0.103 44.640 42.942
16.000 -22.126 -0.148 -22.131 -0.139 -22.133 -0.141 -22.131 -0.146 -22.129 -0.154 14.337 0.267 3.781 0.105 44.634 42.939
16.400 -22.112 -0.150 -22.117 -0.141 -22.120 -0.143 -22.119 -0.148 -22.117 -0.155 14.300 0.269 3.773 0.106 44.628 42.936
16.800 -22.098 -0.152 -22.104 -0.143 -22.108 -0.144 -22.107 -0.149 -22.106 -0.156 14.264 0.271 3.765 0.107 44.621 42.933
17.200 -22.084 -0.154 -22.090 -0.145 -22.095 -0.146 -22.095 -0.150 -22.094 -0.158 14.228 0.274 3.758 0.108 44.615 42.930
17.600 -22.070 -0.156 -22.076 -0.146 -22.083 -0.147 -22.083 -0.151 -22.083 -0.159 14.191 0.276 3.750 0.109 44.609 42.927
18.000 -22.056 -0.158 -22.063 -0.148 -22.070 -0.148 -22.071 -0.152 -22.071 -0.159 14.155 0.278 3.742 0.110 44.603 42.923
18.400 -22.042 -0.159 -22.049 -0.149 -22.058 -0.148 -22.059 -0.153 -22.059 -0.160 14.120 0.281 3.733 0.111 44.596 42.919
18.800 -22.028 -0.160 -22.035 -0.150 -22.045 -0.149 -22.046 -0.154 -22.047 -0.160 14.084 0.283 3.725 0.113 44.590 42.916
19.200 -22.014 -0.161 -22.021 -0.151 -22.032 -0.150 -22.034 -0.154 -22.035 -0.161 14.049 0.285 3.717 0.114 44.584 42.912
19.600 -22.000 -0.162 -22.008 -0.152 -22.020 -0.150 -22.022 -0.154 -22.024 -0.161 14.013 0.287 3.709 0.115 44.578 42.908
20.000 -21.986 -0.163 -21.994 -0.153 -22.007 -0.150 -22.010 -0.154 -22.012 -0.161 13.978 0.289 3.701 0.116 44.571 42.904
20.400 -21.972 -0.164 -21.980 -0.153 -21.995 -0.150 -21.997 -0.154 -22.000 -0.161 13.943 0.291 3.694 0.117 44.565 42.900
20.800 -21.958 -0.164 -21.967 -0.153 -21.982 -0.150 -21.985 -0.154 -21.988 -0.160 13.908 0.293 3.686 0.118 44.559 42.896
21.200 -21.944 -0.165 -21.953 -0.153 -21.970 -0.149 -21.973 -0.153 -21.977 -0.160 13.873 0.295 3.678 0.119 44.553 42.892
21.600 -21.930 -0.165 -21.940 -0.153 -21.957 -0.149 -21.961 -0.153 -21.965 -0.159 13.838 0.297 3.671 0.120 44.547 42.888
22.000 -21.916 -0.165 -21.926 -0.153 -21.945 -0.148 -21.949 -0.152 -21.954 -0.158 13.803 0.298 3.664 0.121 44.541 42.883
22.400 -21.903 -0.165 -21.913 -0.153 -21.933 -0.147 -21.938 -0.151 -21.942 -0.157 13.768 0.300 3.657 0.122 44.535 42.879
22.800 -21.889 -0.165 -21.900 -0.152 -21.921 -0.146 -21.926 -0.150 -21.931 -0.156 13.732 0.301 3.651 0.123 44.529 42.874
23.200 -21.876 -0.164 -21.887 -0.152 -21.909 -0.145 -21.914 -0.149 -21.920 -0.155 13.697 0.303 3.644 0.124 44.523 42.869
23.600 -21.862 -0.164 -21.874 -0.151 -21.897 -0.144 -21.903 -0.148 -21.909 -0.154 13.661 0.304 3.639 0.124 44.517 42.864
24.000 -21.849 -0.163 -21.861 -0.150 -21.886 -0.142 -21.892 -0.146 -21.898 -0.153 13.625 0.305 3.633 0.125 44.511 42.859
24.400 -21.836 -0.163 -21.848 -0.149 -21.874 -0.141 -21.881 -0.145 -21.888 -0.151 13.589 0.306 3.629 0.126 44.505 42.854
24.800 -21.823 -0.162 -21.836 -0.148 -21.863 -0.139 -21.870 -0.143 -21.877 -0.149 13.552 0.307 3.624 0.127 44.499 42.848
25.200 -21.810 -0.161 -21.823 -0.147 -21.852 -0.138 -21.859 -0.141 -21.867 -0.148 13.515 0.308 3.620 0.127 44.494 42.842
25.600 -21.797 -0.160 -21.811 -0.145 -21.841 -0.136 -21.849 -0.140 -21.857 -0.146 13.478 0.308 3.617 0.128 44.488 42.836
26.000 -21.785 -0.158 -21.799 -0.144 -21.830 -0.134 -21.838 -0.138 -21.847 -0.144 13.440 0.309 3.614 0.129 44.482 42.830
26.400 -21.772 -0.157 -21.787 -0.142 -21.820 -0.132 -21.828 -0.136 -21.837 -0.142 13.402 0.309 3.612 0.129 44.477 42.824
26.800 -21.760 -0.156 -21.776 -0.140 -21.810 -0.130 -21.818 -0.133 -21.827 -0.140 13.364 0.309 3.610 0.130 44.472 42.818
27.200 -21.748 -0.154 -21.764 -0.139 -21.799 -0.128 -21.808 -0.131 -21.817 -0.138 13.327 0.309 3.608 0.131 44.466 42.811
27.600 -21.736 -0.153 -21.753 -0.137 -21.789 -0.125 -21.799 -0.129 -21.808 -0.136 13.289 0.309 3.607 0.131 44.461 42.805
28.000 -21.724 -0.151 -21.741 -0.135 -21.779 -0.123 -21.789 -0.127 -21.799 -0.133 13.251 0.309 3.605 0.132 44.456 42.798
28.400 -21.712 -0.149 -21.730 -0.133 -21.770 -0.120 -21.780 -0.124 -21.790 -0.131 13.214 0.309 3.604 0.132 44.451 42.792
28.800 -21.701 -0.148 -21.719 -0.130 -21.760 -0.118 -21.770 -0.121 -21.781 -0.128 13.177 0.309 3.603 0.133 44.446 42.786
29.200 -21.689 -0.146 -21.708 -0.128 -21.751 -0.115 -21.761 -0.119 -21.772 -0.126 13.141 0.309 3.603 0.133 44.441 42.780
29.600 -21.678 -0.144 -21.698 -0.126 -21.741 -0.112 -21.752 -0.116 -21.763 -0.123 13.105 0.309 3.602 0.134 44.436 42.774
30.000 -21.667 -0.143 -21.687 -0.124 -21.732 -0.110 -21.743 -0.113 -21.754 -0.121 13.069 0.309 3.601 0.134 44.431 42.768
30.400 -21.656 -0.141 -21.676 -0.122 -21.723 -0.107 -21.734 -0.111 -21.746 -0.118 13.034 0.309 3.600 0.135 44.426 42.762
30.800 -21.645 -0.139 -21.666 -0.120 -21.714 -0.104 -21.725 -0.108 -21.737 -0.116 13.000 0.309 3.600 0.135 44.421 42.757
31.200 -21.634 -0.138 -21.656 -0.118 -21.705 -0.102 -21.717 -0.106 -21.729 -0.114 12.967 0.309 3.599 0.136 44.416 42.751
31.600 -21.623 -0.137 -21.646 -0.116 -21.696 -0.099 -21.708 -0.103 -21.720 -0.112 12.935 0.309 3.597 0.136 44.412 42.746
32.000 -21.613 -0.135 -21.636 -0.114 -21.687 -0.097 -21.699 -0.101 -21.712 -0.110 12.904 0.309 3.595 0.137 44.407 42.740
32.400 -21.602 -0.135 -21.626 -0.113 -21.678 -0.095 -21.691 -0.099 -21.704 -0.108 12.875 0.309 3.593 0.137 44.403 42.735
32.800 -21.592 -0.134 -21.616 -0.112 -21.669 -0.094 -21.682 -0.098 -21.695 -0.107 12.847 0.309 3.590 0.137 44.398 42.730
33.200 -21.582 -0.134 -21.606 -0.112 -21.660 -0.093 -21.674 -0.097 -21.687 -0.106 12.822 0.308 3.586 0.137 44.394 42.725
33.600 -21.572 -0.134 -21.596 -0.111 -21.652 -0.092 -21.665 -0.097 -21.678 -0.105 12.800 0.308 3.582 0.138 44.390 42.719
34.000 -21.562 -0.135 -21.587 -0.112 -21.643 -0.092 -21.657 -0.097 -21.670 -0.106 12.781 0.308 3.576 0.138 44.386 42.714
34.400 -21.552 -0.136 -21.578 -0.113 -21.634 -0.093 -21.648 -0.097 -21.662 -0.106 12.765 0.308 3.568 0.137 44.382 42.709
34.800 -21.543 -0.137 -21.568 -0.114 -21.626 -0.095 -21.639 -0.099 -21.653 -0.108 12.752 0.307 3.559 0.137 44.378 42.703
35.200 -21.533 -0.139 -21.559 -0.116 -21.617 -0.097 -21.631 -0.101 -21.645 -0.110 12.744 0.307 3.548 0.137 44.374 42.698
35.600 -21.524 -0.142 -21.550 -0.119 -21.608 -0.100 -21.622 -0.104 -21.636 -0.113 12.739 0.306 3.536 0.136 44.370 42.692
