"Time (MJD)" G-5850.88 G-5850.88_err cyan-5182.42 cyan-5182.42_err g-4671.78 g-4671.78_err g-4746.48 g-4746.48_err i-7457.89 i-7457.89_err orange-6629.82 orange-6629.82_err r-6141.12 r-6141.12_err r-6366.38 r-6366.38_err "Temp./1e3 (K)" "Temp. Err." "Radius/1e15 (cm)" "Radius Err." "Log10(Bol. Lum)" "Log10(Bol. Err)"
-35.000 -20.700 -0.081 -20.690 -0.077 -20.632 -0.065 -20.532 -0.059 -20.484 -0.058 -20.445 -0.059 -20.397 -0.066 -20.245 -0.115 16.972 0.124 1.558 0.012 44.157 42.289
-34.600 -20.727 -0.078 -20.718 -0.074 -20.661 -0.062 -20.562 -0.056 -20.514 -0.055 -20.476 -0.056 -20.428 -0.063 -20.274 -0.112 16.865 0.140 1.590 0.014 44.164 42.352
-34.200 -20.754 -0.075 -20.745 -0.071 -20.689 -0.060 -20.592 -0.054 -20.545 -0.053 -20.507 -0.054 -20.459 -0.060 -20.304 -0.109 16.752 0.157 1.624 0.017 44.170 42.407
-33.800 -20.781 -0.072 -20.772 -0.069 -20.718 -0.058 -20.622 -0.053 -20.576 -0.051 -20.538 -0.052 -20.490 -0.058 -20.333 -0.107 16.634 0.172 1.659 0.019 44.177 42.456
-33.400 -20.808 -0.070 -20.800 -0.067 -20.746 -0.057 -20.653 -0.052 -20.607 -0.049 -20.569 -0.050 -20.521 -0.056 -20.363 -0.106 16.514 0.188 1.695 0.021 44.183 42.499
-33.000 -20.835 -0.068 -20.827 -0.065 -20.775 -0.056 -20.683 -0.051 -20.638 -0.048 -20.601 -0.049 -20.553 -0.055 -20.393 -0.104 16.392 0.202 1.733 0.024 44.189 42.539
-32.600 -20.862 -0.067 -20.854 -0.064 -20.803 -0.055 -20.714 -0.051 -20.669 -0.048 -20.632 -0.048 -20.584 -0.054 -20.423 -0.103 16.270 0.216 1.771 0.026 44.195 42.574
-32.200 -20.889 -0.066 -20.881 -0.063 -20.831 -0.055 -20.744 -0.051 -20.700 -0.048 -20.663 -0.048 -20.615 -0.054 -20.453 -0.102 16.150 0.229 1.811 0.029 44.201 42.606
-31.800 -20.916 -0.065 -20.908 -0.062 -20.859 -0.055 -20.774 -0.051 -20.731 -0.048 -20.694 -0.048 -20.646 -0.053 -20.483 -0.101 16.034 0.241 1.850 0.031 44.207 42.634
-31.400 -20.942 -0.065 -20.935 -0.062 -20.887 -0.055 -20.804 -0.051 -20.762 -0.049 -20.725 -0.049 -20.677 -0.054 -20.513 -0.101 15.921 0.252 1.890 0.034 44.214 42.661
-31.000 -20.969 -0.065 -20.961 -0.062 -20.915 -0.056 -20.834 -0.052 -20.792 -0.049 -20.756 -0.049 -20.708 -0.054 -20.543 -0.100 15.812 0.262 1.931 0.036 44.220 42.685
-30.600 -20.995 -0.065 -20.988 -0.062 -20.943 -0.056 -20.863 -0.053 -20.822 -0.050 -20.786 -0.050 -20.739 -0.055 -20.572 -0.100 15.708 0.272 1.971 0.039 44.227 42.706
-30.200 -21.021 -0.065 -21.014 -0.062 -20.970 -0.056 -20.893 -0.053 -20.852 -0.051 -20.816 -0.051 -20.769 -0.055 -20.602 -0.100 15.608 0.280 2.012 0.041 44.234 42.727
-29.800 -21.047 -0.065 -21.040 -0.062 -20.997 -0.057 -20.922 -0.054 -20.882 -0.052 -20.846 -0.052 -20.799 -0.056 -20.631 -0.100 15.511 0.288 2.053 0.044 44.240 42.745
-29.400 -21.073 -0.065 -21.066 -0.063 -21.024 -0.058 -20.950 -0.055 -20.911 -0.053 -20.876 -0.052 -20.829 -0.057 -20.660 -0.100 15.418 0.294 2.094 0.046 44.247 42.761
-29.000 -21.098 -0.065 -21.092 -0.063 -21.051 -0.058 -20.979 -0.055 -20.940 -0.053 -20.905 -0.053 -20.859 -0.057 -20.689 -0.100 15.327 0.300 2.136 0.049 44.254 42.776
-28.600 -21.123 -0.065 -21.117 -0.063 -21.077 -0.058 -21.006 -0.056 -20.968 -0.054 -20.934 -0.054 -20.888 -0.058 -20.718 -0.100 15.238 0.305 2.178 0.051 44.261 42.790
-28.200 -21.148 -0.066 -21.142 -0.063 -21.103 -0.059 -21.034 -0.056 -20.997 -0.055 -20.962 -0.055 -20.916 -0.059 -20.746 -0.100 15.153 0.308 2.220 0.053 44.267 42.802
-27.800 -21.173 -0.066 -21.167 -0.064 -21.128 -0.059 -21.061 -0.057 -21.024 -0.055 -20.990 -0.055 -20.945 -0.059 -20.774 -0.100 15.070 0.311 2.261 0.055 44.274 42.812
-27.400 -21.197 -0.066 -21.191 -0.063 -21.154 -0.059 -21.087 -0.057 -21.051 -0.055 -21.018 -0.056 -20.973 -0.060 -20.802 -0.100 14.990 0.312 2.303 0.057 44.281 42.820
-27.000 -21.221 -0.065 -21.215 -0.063 -21.178 -0.058 -21.113 -0.057 -21.078 -0.056 -21.045 -0.056 -21.000 -0.060 -20.829 -0.100 14.913 0.313 2.345 0.058 44.287 42.827
-26.600 -21.245 -0.065 -21.239 -0.063 -21.202 -0.058 -21.139 -0.057 -21.104 -0.056 -21.072 -0.056 -21.027 -0.060 -20.856 -0.100 14.840 0.312 2.387 0.060 44.294 42.833
-26.200 -21.268 -0.064 -21.262 -0.062 -21.226 -0.058 -21.164 -0.057 -21.130 -0.056 -21.098 -0.056 -21.054 -0.061 -20.882 -0.100 14.769 0.311 2.428 0.061 44.301 42.837
-25.800 -21.291 -0.064 -21.285 -0.062 -21.250 -0.057 -21.188 -0.056 -21.155 -0.056 -21.123 -0.056 -21.079 -0.061 -20.908 -0.100 14.701 0.308 2.469 0.062 44.307 42.839
-25.400 -21.313 -0.063 -21.307 -0.061 -21.272 -0.056 -21.212 -0.056 -21.179 -0.055 -21.148 -0.056 -21.105 -0.061 -20.934 -0.099 14.637 0.305 2.509 0.063 44.314 42.840
-25.000 -21.335 -0.062 -21.330 -0.060 -21.295 -0.055 -21.236 -0.055 -21.203 -0.055 -21.172 -0.056 -21.129 -0.060 -20.959 -0.099 14.576 0.301 2.549 0.064 44.320 42.840
-24.600 -21.357 -0.061 -21.351 -0.059 -21.317 -0.054 -21.259 -0.055 -21.227 -0.054 -21.196 -0.055 -21.154 -0.060 -20.983 -0.099 14.517 0.296 2.589 0.064 44.326 42.839
-24.200 -21.378 -0.060 -21.372 -0.058 -21.338 -0.053 -21.281 -0.054 -21.249 -0.054 -21.219 -0.055 -21.177 -0.060 -21.007 -0.098 14.463 0.291 2.627 0.064 44.333 42.837
-23.800 -21.399 -0.059 -21.393 -0.057 -21.359 -0.052 -21.302 -0.053 -21.271 -0.053 -21.242 -0.055 -21.200 -0.059 -21.031 -0.098 14.412 0.285 2.665 0.065 44.339 42.834
-23.400 -21.419 -0.058 -21.413 -0.055 -21.379 -0.050 -21.323 -0.052 -21.293 -0.053 -21.264 -0.054 -21.222 -0.059 -21.054 -0.097 14.365 0.279 2.702 0.064 44.345 42.830
-23.000 -21.439 -0.056 -21.433 -0.054 -21.399 -0.049 -21.344 -0.051 -21.314 -0.052 -21.285 -0.053 -21.244 -0.058 -21.076 -0.097 14.322 0.272 2.738 0.064 44.352 42.825
-22.600 -21.458 -0.055 -21.453 -0.052 -21.418 -0.047 -21.364 -0.050 -21.334 -0.051 -21.306 -0.053 -21.265 -0.058 -21.098 -0.096 14.283 0.266 2.772 0.064 44.358 42.819
-22.200 -21.477 -0.053 -21.472 -0.051 -21.437 -0.046 -21.383 -0.049 -21.354 -0.050 -21.326 -0.052 -21.285 -0.057 -21.119 -0.095 14.249 0.259 2.805 0.063 44.364 42.814
-21.800 -21.496 -0.052 -21.490 -0.049 -21.455 -0.044 -21.401 -0.048 -21.373 -0.049 -21.345 -0.051 -21.305 -0.057 -21.140 -0.094 14.218 0.253 2.837 0.063 44.370 42.808
-21.400 -21.514 -0.051 -21.508 -0.048 -21.472 -0.042 -21.419 -0.047 -21.391 -0.049 -21.364 -0.051 -21.324 -0.056 -21.160 -0.093 14.192 0.247 2.868 0.062 44.376 42.802
-21.000 -21.532 -0.049 -21.526 -0.046 -21.490 -0.041 -21.437 -0.046 -21.409 -0.048 -21.382 -0.050 -21.343 -0.056 -21.179 -0.092 14.170 0.241 2.897 0.062 44.382 42.797
-20.600 -21.549 -0.048 -21.543 -0.045 -21.506 -0.039 -21.454 -0.045 -21.426 -0.047 -21.399 -0.049 -21.361 -0.055 -21.198 -0.091 14.152 0.236 2.924 0.061 44.388 42.792
-20.200 -21.565 -0.046 -21.560 -0.044 -21.523 -0.038 -21.470 -0.044 -21.443 -0.046 -21.416 -0.049 -21.378 -0.054 -21.217 -0.090 14.138 0.231 2.950 0.061 44.394 42.787
-19.800 -21.582 -0.045 -21.576 -0.042 -21.538 -0.036 -21.486 -0.043 -21.459 -0.045 -21.432 -0.048 -21.394 -0.054 -21.234 -0.088 14.128 0.226 2.975 0.060 44.400 42.782
-19.400 -21.597 -0.044 -21.591 -0.041 -21.554 -0.035 -21.501 -0.042 -21.474 -0.044 -21.448 -0.047 -21.410 -0.053 -21.252 -0.087 14.122 0.220 2.998 0.059 44.406 42.777
-19.000 -21.612 -0.043 -21.607 -0.040 -21.569 -0.034 -21.516 -0.041 -21.489 -0.044 -21.463 -0.046 -21.426 -0.052 -21.268 -0.086 14.118 0.215 3.020 0.058 44.412 42.772
-18.600 -21.627 -0.042 -21.621 -0.039 -21.583 -0.033 -21.530 -0.040 -21.503 -0.043 -21.477 -0.046 -21.440 -0.051 -21.284 -0.084 14.116 0.209 3.040 0.057 44.418 42.766
-18.200 -21.641 -0.041 -21.635 -0.038 -21.597 -0.032 -21.543 -0.039 -21.516 -0.042 -21.491 -0.045 -21.455 -0.051 -21.300 -0.082 14.116 0.204 3.060 0.056 44.423 42.760
-17.800 -21.655 -0.040 -21.649 -0.038 -21.611 -0.031 -21.556 -0.038 -21.529 -0.041 -21.504 -0.044 -21.468 -0.050 -21.315 -0.081 14.118 0.198 3.079 0.055 44.429 42.753
-17.400 -21.668 -0.040 -21.662 -0.037 -21.624 -0.031 -21.569 -0.036 -21.542 -0.039 -21.517 -0.043 -21.481 -0.049 -21.329 -0.079 14.121 0.193 3.096 0.053 44.434 42.746
-17.000 -21.680 -0.039 -21.674 -0.036 -21.636 -0.030 -21.581 -0.035 -21.554 -0.038 -21.529 -0.042 -21.493 -0.048 -21.343 -0.077 14.126 0.187 3.112 0.052 44.439 42.739
-16.600 -21.692 -0.038 -21.686 -0.036 -21.648 -0.029 -21.592 -0.034 -21.565 -0.037 -21.540 -0.040 -21.505 -0.047 -21.356 -0.075 14.134 0.182 3.127 0.051 44.444 42.732
-16.200 -21.704 -0.038 -21.698 -0.035 -21.660 -0.028 -21.603 -0.032 -21.576 -0.035 -21.551 -0.039 -21.516 -0.045 -21.368 -0.073 14.143 0.176 3.140 0.049 44.449 42.724
-15.800 -21.715 -0.037 -21.709 -0.034 -21.671 -0.027 -21.613 -0.030 -21.586 -0.034 -21.561 -0.038 -21.527 -0.044 -21.381 -0.071 14.155 0.171 3.153 0.048 44.454 42.717
-15.400 -21.726 -0.036 -21.720 -0.033 -21.681 -0.026 -21.622 -0.029 -21.595 -0.032 -21.571 -0.037 -21.537 -0.043 -21.392 -0.069 14.169 0.166 3.163 0.047 44.458 42.711
-15.000 -21.736 -0.035 -21.730 -0.032 -21.691 -0.026 -21.631 -0.027 -21.604 -0.031 -21.580 -0.035 -21.546 -0.042 -21.403 -0.066 14.185 0.163 3.173 0.046 44.463 42.707
-14.600 -21.746 -0.034 -21.740 -0.032 -21.700 -0.025 -21.640 -0.025 -21.613 -0.029 -21.589 -0.034 -21.555 -0.041 -21.414 -0.064 14.203 0.160 3.181 0.045 44.467 42.706
-14.200 -21.755 -0.033 -21.749 -0.031 -21.709 -0.024 -21.648 -0.023 -21.621 -0.027 -21.597 -0.033 -21.564 -0.039 -21.424 -0.062 14.222 0.159 3.188 0.044 44.472 42.709
-13.800 -21.764 -0.032 -21.758 -0.030 -21.717 -0.023 -21.655 -0.021 -21.628 -0.025 -21.604 -0.031 -21.572 -0.038 -21.433 -0.059 14.242 0.160 3.194 0.045 44.476 42.717
-13.400 -21.773 -0.031 -21.766 -0.029 -21.725 -0.022 -21.662 -0.019 -21.635 -0.024 -21.612 -0.030 -21.579 -0.037 -21.443 -0.057 14.263 0.163 3.199 0.045 44.480 42.730
-13.000 -21.780 -0.030 -21.774 -0.028 -21.731 -0.021 -21.668 -0.017 -21.641 -0.023 -21.618 -0.029 -21.586 -0.036 -21.451 -0.055 14.283 0.168 3.204 0.047 44.483 42.747
-12.600 -21.788 -0.029 -21.781 -0.027 -21.738 -0.021 -21.674 -0.016 -21.647 -0.021 -21.624 -0.028 -21.593 -0.035 -21.460 -0.052 14.302 0.175 3.208 0.048 44.487 42.768
-12.200 -21.795 -0.028 -21.788 -0.026 -21.743 -0.021 -21.680 -0.015 -21.653 -0.021 -21.630 -0.027 -21.599 -0.034 -21.467 -0.050 14.318 0.181 3.212 0.050 44.490 42.787
-11.800 -21.801 -0.027 -21.794 -0.025 -21.748 -0.020 -21.685 -0.015 -21.658 -0.020 -21.636 -0.027 -21.605 -0.033 -21.475 -0.048 14.328 0.187 3.217 0.052 44.493 42.804
-11.400 -21.806 -0.026 -21.799 -0.024 -21.753 -0.021 -21.689 -0.016 -21.663 -0.020 -21.641 -0.026 -21.610 -0.033 -21.482 -0.046 14.334 0.192 3.224 0.053 44.495 42.816
-11.000 -21.812 -0.026 -21.804 -0.024 -21.757 -0.021 -21.693 -0.017 -21.668 -0.021 -21.645 -0.026 -21.615 -0.032 -21.488 -0.045 14.333 0.196 3.231 0.055 44.497 42.825
-10.600 -21.816 -0.025 -21.809 -0.023 -21.760 -0.021 -21.697 -0.019 -21.672 -0.021 -21.650 -0.026 -21.620 -0.032 -21.495 -0.043 14.326 0.198 3.240 0.056 44.499 42.830
-10.200 -21.820 -0.025 -21.812 -0.023 -21.764 -0.022 -21.701 -0.020 -21.676 -0.022 -21.654 -0.026 -21.625 -0.032 -21.500 -0.042 14.312 0.199 3.251 0.056 44.500 42.832
-9.800 -21.823 -0.025 -21.816 -0.023 -21.767 -0.022 -21.705 -0.022 -21.679 -0.023 -21.658 -0.027 -21.629 -0.032 -21.506 -0.042 14.291 0.198 3.262 0.056 44.500 42.831
-9.400 -21.826 -0.025 -21.818 -0.023 -21.770 -0.023 -21.708 -0.023 -21.683 -0.024 -21.661 -0.027 -21.633 -0.032 -21.511 -0.042 14.266 0.196 3.275 0.056 44.501 42.825
-9.000 -21.829 -0.025 -21.821 -0.024 -21.773 -0.024 -21.711 -0.025 -21.686 -0.025 -21.665 -0.027 -21.636 -0.032 -21.516 -0.041 14.238 0.192 3.288 0.056 44.501 42.817
-8.600 -21.831 -0.025 -21.823 -0.024 -21.776 -0.025 -21.714 -0.026 -21.689 -0.026 -21.668 -0.028 -21.640 -0.032 -21.521 -0.042 14.207 0.188 3.302 0.055 44.500 42.808
-8.200 -21.833 -0.026 -21.825 -0.025 -21.778 -0.027 -21.717 -0.028 -21.692 -0.027 -21.671 -0.029 -21.643 -0.032 -21.526 -0.042 14.175 0.184 3.316 0.054 44.500 42.797
-7.800 -21.834 -0.026 -21.827 -0.025 -21.781 -0.028 -21.719 -0.029 -21.695 -0.028 -21.674 -0.029 -21.647 -0.032 -21.530 -0.043 14.142 0.180 3.330 0.053 44.500 42.787
-7.400 -21.836 -0.027 -21.828 -0.026 -21.783 -0.029 -21.722 -0.030 -21.697 -0.029 -21.677 -0.030 -21.650 -0.033 -21.534 -0.043 14.108 0.176 3.344 0.052 44.499 42.776
-7.000 -21.837 -0.027 -21.830 -0.026 -21.786 -0.030 -21.725 -0.031 -21.700 -0.029 -21.680 -0.030 -21.653 -0.033 -21.538 -0.044 14.074 0.172 3.358 0.052 44.499 42.766
-6.600 -21.839 -0.028 -21.831 -0.027 -21.788 -0.031 -21.727 -0.032 -21.703 -0.030 -21.683 -0.031 -21.656 -0.034 -21.542 -0.045 14.040 0.168 3.372 0.051 44.498 42.756
-6.200 -21.840 -0.028 -21.833 -0.027 -21.790 -0.032 -21.730 -0.033 -21.705 -0.031 -21.686 -0.031 -21.659 -0.034 -21.546 -0.046 14.004 0.164 3.387 0.050 44.497 42.745
-5.800 -21.841 -0.029 -21.834 -0.028 -21.793 -0.033 -21.733 -0.034 -21.708 -0.031 -21.689 -0.032 -21.662 -0.035 -21.549 -0.047 13.966 0.161 3.402 0.050 44.497 42.735
-5.400 -21.842 -0.029 -21.836 -0.028 -21.795 -0.033 -21.736 -0.035 -21.711 -0.032 -21.692 -0.032 -21.666 -0.035 -21.553 -0.049 13.927 0.157 3.418 0.049 44.496 42.724
-5.000 -21.843 -0.030 -21.837 -0.029 -21.797 -0.034 -21.738 -0.035 -21.714 -0.033 -21.695 -0.033 -21.669 -0.036 -21.556 -0.050 13.886 0.154 3.434 0.048 44.495 42.713
-4.600 -21.844 -0.031 -21.838 -0.030 -21.799 -0.035 -21.741 -0.036 -21.717 -0.034 -21.698 -0.034 -21.672 -0.036 -21.560 -0.051 13.843 0.150 3.452 0.048 44.494 42.701
-4.200 -21.845 -0.032 -21.839 -0.031 -21.801 -0.036 -21.744 -0.037 -21.721 -0.035 -21.701 -0.034 -21.675 -0.037 -21.563 -0.053 13.798 0.146 3.470 0.047 44.493 42.690
-3.800 -21.846 -0.032 -21.840 -0.032 -21.803 -0.036 -21.747 -0.038 -21.724 -0.035 -21.704 -0.035 -21.678 -0.038 -21.566 -0.054 13.752 0.143 3.488 0.046 44.491 42.678
-3.400 -21.847 -0.033 -21.841 -0.032 -21.805 -0.037 -21.750 -0.038 -21.727 -0.036 -21.708 -0.036 -21.681 -0.038 -21.569 -0.056 13.704 0.139 3.507 0.046 44.490 42.666
-3.000 -21.848 -0.034 -21.842 -0.033 -21.806 -0.038 -21.753 -0.039 -21.730 -0.037 -21.711 -0.036 -21.684 -0.039 -21.573 -0.057 13.655 0.136 3.526 0.045 44.489 42.653
-2.600 -21.848 -0.035 -21.843 -0.034 -21.808 -0.038 -21.756 -0.040 -21.733 -0.037 -21.714 -0.037 -21.687 -0.039 -21.575 -0.059 13.605 0.132 3.546 0.044 44.487 42.640
-2.200 -21.848 -0.036 -21.843 -0.035 -21.809 -0.039 -21.758 -0.040 -21.736 -0.038 -21.717 -0.037 -21.690 -0.040 -21.578 -0.060 13.553 0.128 3.567 0.044 44.485 42.627
-1.800 -21.848 -0.037 -21.843 -0.036 -21.811 -0.039 -21.761 -0.040 -21.739 -0.038 -21.719 -0.038 -21.693 -0.040 -21.581 -0.062 13.499 0.125 3.588 0.043 44.484 42.613
-1.400 -21.848 -0.038 -21.843 -0.037 -21.812 -0.040 -21.763 -0.041 -21.741 -0.039 -21.722 -0.038 -21.695 -0.041 -21.584 -0.063 13.443 0.121 3.609 0.042 44.482 42.600
-1.000 -21.847 -0.039 -21.843 -0.038 -21.812 -0.040 -21.766 -0.041 -21.744 -0.039 -21.725 -0.039 -21.698 -0.041 -21.586 -0.064 13.386 0.118 3.632 0.042 44.480 42.585
-0.600 -21.846 -0.041 -21.842 -0.039 -21.813 -0.041 -21.768 -0.041 -21.746 -0.039 -21.727 -0.039 -21.700 -0.042 -21.588 -0.065 13.325 0.115 3.655 0.041 44.477 42.571
-0.200 -21.845 -0.042 -21.841 -0.040 -21.813 -0.041 -21.770 -0.042 -21.748 -0.040 -21.729 -0.039 -21.702 -0.042 -21.590 -0.066 13.263 0.112 3.679 0.040 44.475 42.558
0.200 -21.844 -0.043 -21.840 -0.042 -21.813 -0.042 -21.772 -0.042 -21.751 -0.040 -21.731 -0.039 -21.704 -0.042 -21.592 -0.067 13.199 0.109 3.703 0.040 44.472 42.546
0.600 -21.842 -0.044 -21.838 -0.043 -21.813 -0.042 -21.773 -0.042 -21.752 -0.040 -21.733 -0.040 -21.706 -0.042 -21.594 -0.068 13.134 0.107 3.728 0.040 44.469 42.536
1.000 -21.840 -0.046 -21.837 -0.044 -21.813 -0.042 -21.775 -0.042 -21.754 -0.040 -21.735 -0.040 -21.707 -0.042 -21.596 -0.069 13.068 0.106 3.754 0.040 44.467 42.529
1.400 -21.838 -0.047 -21.835 -0.045 -21.812 -0.042 -21.776 -0.041 -21.756 -0.040 -21.736 -0.039 -21.709 -0.042 -21.597 -0.070 13.001 0.105 3.779 0.040 44.464 42.525
1.800 -21.836 -0.048 -21.833 -0.046 -21.811 -0.042 -21.777 -0.041 -21.757 -0.039 -21.738 -0.039 -21.710 -0.042 -21.599 -0.071 12.935 0.106 3.805 0.041 44.461 42.524
2.200 -21.834 -0.049 -21.830 -0.047 -21.810 -0.043 -21.778 -0.041 -21.759 -0.039 -21.739 -0.039 -21.711 -0.042 -21.600 -0.071 12.868 0.107 3.831 0.042 44.458 42.526
2.600 -21.831 -0.050 -21.828 -0.048 -21.809 -0.043 -21.779 -0.040 -21.760 -0.038 -21.740 -0.039 -21.712 -0.042 -21.601 -0.072 12.802 0.109 3.857 0.043 44.455 42.531
3.000 -21.828 -0.051 -21.825 -0.049 -21.808 -0.042 -21.780 -0.039 -21.761 -0.038 -21.741 -0.038 -21.713 -0.042 -21.601 -0.072 12.738 0.111 3.883 0.045 44.451 42.538
3.400 -21.825 -0.051 -21.823 -0.049 -21.806 -0.042 -21.780 -0.039 -21.762 -0.037 -21.742 -0.038 -21.714 -0.041 -21.602 -0.073 12.674 0.114 3.908 0.047 44.448 42.547
3.800 -21.822 -0.052 -21.820 -0.050 -21.805 -0.042 -21.781 -0.038 -21.762 -0.036 -21.743 -0.037 -21.714 -0.041 -21.602 -0.073 12.615 0.117 3.931 0.049 44.445 42.556
4.200 -21.819 -0.052 -21.817 -0.050 -21.803 -0.042 -21.781 -0.037 -21.763 -0.036 -21.743 -0.036 -21.715 -0.041 -21.602 -0.073 12.554 0.120 3.955 0.050 44.442 42.564
4.600 -21.815 -0.053 -21.813 -0.050 -21.801 -0.041 -21.781 -0.036 -21.763 -0.035 -21.743 -0.036 -21.715 -0.040 -21.602 -0.073 12.500 0.123 3.977 0.052 44.440 42.571
5.000 -21.812 -0.053 -21.810 -0.051 -21.799 -0.041 -21.780 -0.035 -21.762 -0.034 -21.743 -0.035 -21.714 -0.040 -21.602 -0.073 12.449 0.125 3.997 0.054 44.437 42.576
5.400 -21.808 -0.053 -21.807 -0.051 -21.797 -0.041 -21.779 -0.034 -21.762 -0.033 -21.742 -0.035 -21.714 -0.040 -21.601 -0.073 12.403 0.127 4.014 0.055 44.434 42.578
5.800 -21.805 -0.053 -21.803 -0.051 -21.795 -0.041 -21.778 -0.033 -21.761 -0.032 -21.741 -0.034 -21.713 -0.039 -21.600 -0.073 12.361 0.128 4.030 0.056 44.432 42.579
6.200 -21.801 -0.053 -21.800 -0.051 -21.792 -0.040 -21.777 -0.032 -21.759 -0.031 -21.740 -0.033 -21.711 -0.039 -21.599 -0.073 12.322 0.128 4.043 0.056 44.429 42.577
6.600 -21.796 -0.053 -21.796 -0.050 -21.790 -0.040 -21.775 -0.031 -21.758 -0.030 -21.738 -0.033 -21.710 -0.039 -21.598 -0.072 12.287 0.128 4.055 0.057 44.427 42.574
7.000 -21.792 -0.053 -21.791 -0.050 -21.787 -0.040 -21.773 -0.030 -21.755 -0.030 -21.736 -0.032 -21.707 -0.038 -21.596 -0.072 12.255 0.127 4.064 0.057 44.424 42.569
7.400 -21.787 -0.052 -21.787 -0.050 -21.784 -0.039 -21.771 -0.029 -21.753 -0.029 -21.733 -0.032 -21.705 -0.038 -21.594 -0.072 12.226 0.126 4.072 0.056 44.422 42.561
7.800 -21.783 -0.052 -21.782 -0.049 -21.780 -0.039 -21.767 -0.029 -21.750 -0.029 -21.730 -0.032 -21.702 -0.038 -21.592 -0.071 12.198 0.123 4.078 0.056 44.419 42.550
8.200 -21.777 -0.051 -21.778 -0.049 -21.776 -0.039 -21.764 -0.028 -21.746 -0.029 -21.727 -0.032 -21.699 -0.038 -21.590 -0.071 12.173 0.120 4.082 0.054 44.416 42.534
8.600 -21.772 -0.050 -21.772 -0.048 -21.771 -0.039 -21.759 -0.029 -21.742 -0.029 -21.723 -0.032 -21.695 -0.038 -21.587 -0.070 12.150 0.116 4.085 0.053 44.413 42.515
9.000 -21.766 -0.050 -21.767 -0.047 -21.767 -0.038 -21.755 -0.029 -21.737 -0.029 -21.718 -0.032 -21.691 -0.038 -21.584 -0.070 12.127 0.110 4.086 0.051 44.410 42.491
9.400 -21.760 -0.049 -21.761 -0.046 -21.761 -0.038 -21.749 -0.029 -21.732 -0.030 -21.713 -0.032 -21.687 -0.038 -21.581 -0.070 12.105 0.105 4.086 0.048 44.407 42.463
9.800 -21.754 -0.048 -21.754 -0.046 -21.755 -0.038 -21.744 -0.030 -21.727 -0.030 -21.708 -0.033 -21.682 -0.038 -21.578 -0.069 12.083 0.099 4.086 0.046 44.404 42.431
10.200 -21.747 -0.047 -21.748 -0.045 -21.749 -0.038 -21.737 -0.031 -21.721 -0.031 -21.703 -0.034 -21.677 -0.039 -21.574 -0.069 12.061 0.092 4.085 0.043 44.401 42.397
10.600 -21.739 -0.046 -21.740 -0.044 -21.743 -0.037 -21.731 -0.032 -21.714 -0.032 -21.697 -0.034 -21.672 -0.039 -21.570 -0.069 12.038 0.086 4.083 0.040 44.397 42.361
11.000 -21.732 -0.046 -21.733 -0.043 -21.735 -0.037 -21.724 -0.033 -21.708 -0.033 -21.690 -0.035 -21.666 -0.040 -21.566 -0.069 12.014 0.080 4.082 0.038 44.393 42.324
11.400 -21.723 -0.045 -21.725 -0.043 -21.728 -0.037 -21.716 -0.034 -21.701 -0.034 -21.684 -0.036 -21.660 -0.041 -21.562 -0.068 11.988 0.075 4.081 0.036 44.389 42.286
11.800 -21.715 -0.045 -21.716 -0.042 -21.720 -0.037 -21.708 -0.035 -21.693 -0.035 -21.677 -0.038 -21.653 -0.042 -21.557 -0.068 11.959 0.070 4.080 0.034 44.385 42.250
12.200 -21.706 -0.044 -21.708 -0.042 -21.711 -0.037 -21.700 -0.036 -21.686 -0.037 -21.670 -0.039 -21.647 -0.043 -21.553 -0.069 11.928 0.066 4.080 0.032 44.380 42.215
12.600 -21.696 -0.044 -21.698 -0.042 -21.702 -0.037 -21.692 -0.038 -21.678 -0.038 -21.662 -0.040 -21.640 -0.044 -21.548 -0.069 11.895 0.062 4.081 0.030 44.376 42.183
13.000 -21.687 -0.045 -21.688 -0.042 -21.693 -0.037 -21.683 -0.039 -21.670 -0.039 -21.654 -0.041 -21.633 -0.045 -21.542 -0.069 11.858 0.059 4.082 0.029 44.371 42.155
13.400 -21.676 -0.045 -21.678 -0.043 -21.684 -0.038 -21.675 -0.040 -21.661 -0.041 -21.646 -0.043 -21.625 -0.046 -21.537 -0.070 11.819 0.057 4.085 0.028 44.365 42.130
13.800 -21.666 -0.046 -21.668 -0.043 -21.674 -0.038 -21.666 -0.041 -21.653 -0.042 -21.638 -0.044 -21.618 -0.047 -21.531 -0.070 11.777 0.055 4.088 0.027 44.360 42.108
14.200 -21.655 -0.046 -21.657 -0.044 -21.664 -0.039 -21.656 -0.042 -21.644 -0.043 -21.630 -0.045 -21.610 -0.048 -21.526 -0.071 11.734 0.054 4.092 0.027 44.354 42.089
14.600 -21.643 -0.047 -21.646 -0.045 -21.653 -0.040 -21.647 -0.043 -21.635 -0.045 -21.621 -0.046 -21.602 -0.049 -21.520 -0.072 11.689 0.053 4.097 0.027 44.349 42.072
15.000 -21.632 -0.048 -21.634 -0.046 -21.643 -0.041 -21.637 -0.045 -21.625 -0.046 -21.612 -0.047 -21.593 -0.050 -21.513 -0.072 11.642 0.051 4.102 0.026 44.343 42.055
15.400 -21.619 -0.049 -21.622 -0.047 -21.632 -0.042 -21.627 -0.046 -21.616 -0.047 -21.603 -0.048 -21.585 -0.051 -21.507 -0.073 11.593 0.050 4.107 0.026 44.337 42.039
15.800 -21.607 -0.050 -21.610 -0.048 -21.621 -0.043 -21.617 -0.047 -21.606 -0.048 -21.594 -0.049 -21.576 -0.052 -21.501 -0.073 11.543 0.049 4.113 0.026 44.331 42.024
16.200 -21.594 -0.051 -21.598 -0.049 -21.609 -0.044 -21.606 -0.048 -21.596 -0.049 -21.585 -0.050 -21.567 -0.053 -21.494 -0.074 11.492 0.049 4.120 0.025 44.324 42.011
16.600 -21.581 -0.052 -21.585 -0.050 -21.597 -0.045 -21.596 -0.049 -21.586 -0.050 -21.575 -0.051 -21.558 -0.053 -21.487 -0.075 11.438 0.048 4.128 0.026 44.318 42.000
17.000 -21.568 -0.053 -21.571 -0.051 -21.585 -0.046 -21.585 -0.049 -21.576 -0.050 -21.565 -0.051 -21.549 -0.054 -21.480 -0.075 11.383 0.048 4.136 0.026 44.311 41.992
17.400 -21.554 -0.054 -21.558 -0.052 -21.573 -0.047 -21.574 -0.050 -21.565 -0.051 -21.555 -0.052 -21.540 -0.054 -21.472 -0.075 11.325 0.049 4.145 0.026 44.304 41.987
17.800 -21.539 -0.054 -21.544 -0.052 -21.560 -0.048 -21.562 -0.051 -21.555 -0.051 -21.545 -0.052 -21.530 -0.054 -21.465 -0.076 11.266 0.049 4.155 0.027 44.297 41.985
18.200 -21.525 -0.055 -21.529 -0.053 -21.547 -0.049 -21.551 -0.051 -21.544 -0.052 -21.535 -0.053 -21.520 -0.055 -21.457 -0.076 11.205 0.050 4.165 0.028 44.290 41.984
18.600 -21.509 -0.056 -21.514 -0.054 -21.533 -0.050 -21.539 -0.052 -21.532 -0.052 -21.524 -0.053 -21.510 -0.055 -21.449 -0.076 11.141 0.051 4.177 0.029 44.282 41.985
19.000 -21.494 -0.056 -21.499 -0.054 -21.519 -0.051 -21.526 -0.052 -21.521 -0.052 -21.513 -0.053 -21.500 -0.055 -21.441 -0.076 11.076 0.053 4.189 0.030 44.275 41.987
19.400 -21.477 -0.056 -21.483 -0.055 -21.505 -0.051 -21.514 -0.052 -21.509 -0.052 -21.502 -0.053 -21.490 -0.055 -21.433 -0.077 11.008 0.054 4.203 0.031 44.267 41.989
19.800 -21.461 -0.056 -21.466 -0.055 -21.490 -0.052 -21.501 -0.053 -21.497 -0.053 -21.490 -0.053 -21.479 -0.055 -21.424 -0.077 10.938 0.056 4.217 0.033 44.259 41.992
20.200 -21.443 -0.057 -21.449 -0.055 -21.474 -0.052 -21.487 -0.053 -21.484 -0.052 -21.478 -0.053 -21.468 -0.055 -21.416 -0.077 10.866 0.058 4.232 0.034 44.250 41.995
20.600 -21.426 -0.056 -21.432 -0.055 -21.458 -0.052 -21.474 -0.053 -21.471 -0.052 -21.466 -0.053 -21.457 -0.055 -21.406 -0.077 10.793 0.060 4.248 0.036 44.242 41.998
21.000 -21.407 -0.056 -21.414 -0.055 -21.442 -0.053 -21.459 -0.053 -21.458 -0.052 -21.454 -0.053 -21.445 -0.055 -21.397 -0.077 10.717 0.062 4.266 0.038 44.233 42.000
21.400 -21.388 -0.056 -21.395 -0.054 -21.425 -0.053 -21.445 -0.053 -21.445 -0.052 -21.441 -0.053 -21.433 -0.055 -21.388 -0.077 10.639 0.064 4.284 0.040 44.224 42.001
21.800 -21.369 -0.056 -21.376 -0.054 -21.407 -0.053 -21.430 -0.053 -21.431 -0.052 -21.428 -0.052 -21.421 -0.054 -21.378 -0.077 10.559 0.066 4.303 0.042 44.215 42.002
22.200 -21.348 -0.055 -21.356 -0.054 -21.389 -0.052 -21.414 -0.053 -21.416 -0.052 -21.414 -0.052 -21.408 -0.054 -21.368 -0.077 10.477 0.068 4.324 0.044 44.206 42.002
22.600 -21.327 -0.055 -21.335 -0.053 -21.370 -0.052 -21.398 -0.053 -21.401 -0.052 -21.401 -0.052 -21.396 -0.054 -21.358 -0.077 10.395 0.070 4.345 0.046 44.196 42.002
23.000 -21.306 -0.054 -21.314 -0.053 -21.351 -0.052 -21.381 -0.053 -21.386 -0.052 -21.386 -0.052 -21.383 -0.054 -21.347 -0.077 10.311 0.073 4.366 0.049 44.186 42.001
23.400 -21.284 -0.053 -21.292 -0.052 -21.331 -0.051 -21.364 -0.052 -21.371 -0.052 -21.372 -0.052 -21.369 -0.054 -21.336 -0.077 10.226 0.075 4.389 0.052 44.176 41.999
23.800 -21.261 -0.052 -21.270 -0.051 -21.310 -0.051 -21.347 -0.052 -21.355 -0.051 -21.357 -0.052 -21.355 -0.054 -21.325 -0.077 10.140 0.078 4.412 0.055 44.166 41.996
24.200 -21.238 -0.052 -21.247 -0.050 -21.289 -0.050 -21.329 -0.052 -21.338 -0.051 -21.341 -0.052 -21.341 -0.054 -21.314 -0.077 10.053 0.081 4.436 0.058 44.156 41.993
24.600 -21.214 -0.051 -21.223 -0.049 -21.267 -0.050 -21.311 -0.052 -21.321 -0.051 -21.326 -0.051 -21.327 -0.054 -21.303 -0.077 9.965 0.083 4.461 0.061 44.146 41.988
25.000 -21.190 -0.050 -21.199 -0.048 -21.245 -0.049 -21.292 -0.051 -21.304 -0.051 -21.310 -0.051 -21.312 -0.054 -21.291 -0.077 9.877 0.086 4.486 0.065 44.135 41.982
25.400 -21.164 -0.049 -21.174 -0.048 -21.222 -0.049 -21.273 -0.051 -21.287 -0.051 -21.293 -0.051 -21.297 -0.054 -21.279 -0.077 9.788 0.089 4.513 0.069 44.124 41.976
25.800 -21.139 -0.048 -21.149 -0.047 -21.199 -0.048 -21.253 -0.051 -21.269 -0.050 -21.277 -0.051 -21.281 -0.054 -21.267 -0.077 9.697 0.091 4.540 0.073 44.114 41.968
26.200 -21.112 -0.047 -21.123 -0.046 -21.175 -0.047 -21.233 -0.050 -21.250 -0.050 -21.260 -0.051 -21.266 -0.054 -21.255 -0.077 9.606 0.094 4.569 0.077 44.103 41.959
26.600 -21.085 -0.047 -21.096 -0.045 -21.150 -0.047 -21.213 -0.050 -21.232 -0.050 -21.242 -0.051 -21.250 -0.054 -21.242 -0.077 9.514 0.096 4.599 0.081 44.092 41.949
27.000 -21.058 -0.046 -21.069 -0.045 -21.125 -0.046 -21.192 -0.050 -21.213 -0.050 -21.225 -0.051 -21.234 -0.054 -21.230 -0.078 9.421 0.099 4.631 0.085 44.081 41.938
27.400 -21.030 -0.046 -21.041 -0.045 -21.100 -0.046 -21.171 -0.049 -21.193 -0.050 -21.207 -0.051 -21.217 -0.054 -21.217 -0.078 9.328 0.101 4.664 0.089 44.069 41.926
27.800 -21.001 -0.046 -21.013 -0.044 -21.074 -0.045 -21.150 -0.049 -21.174 -0.050 -21.189 -0.051 -21.201 -0.055 -21.204 -0.078 9.235 0.103 4.698 0.094 44.058 41.913
28.200 -20.973 -0.045 -20.985 -0.044 -21.048 -0.045 -21.128 -0.049 -21.154 -0.050 -21.170 -0.051 -21.184 -0.055 -21.191 -0.078 9.142 0.105 4.732 0.098 44.047 41.901
28.600 -20.943 -0.045 -20.956 -0.044 -21.022 -0.044 -21.106 -0.048 -21.134 -0.050 -21.152 -0.051 -21.167 -0.055 -21.177 -0.078 9.050 0.107 4.767 0.103 44.036 41.887
29.000 -20.914 -0.045 -20.927 -0.044 -20.995 -0.044 -21.084 -0.048 -21.114 -0.049 -21.133 -0.052 -21.149 -0.055 -21.164 -0.079 8.959 0.109 4.803 0.107 44.025 41.874
29.400 -20.884 -0.045 -20.897 -0.044 -20.968 -0.044 -21.062 -0.048 -21.094 -0.049 -21.114 -0.052 -21.132 -0.056 -21.150 -0.079 8.869 0.111 4.839 0.112 44.014 41.861
29.800 -20.855 -0.045 -20.868 -0.044 -20.942 -0.043 -21.040 -0.047 -21.074 -0.049 -21.095 -0.052 -21.115 -0.056 -21.136 -0.079 8.781 0.112 4.875 0.117 44.003 41.848
30.200 -20.825 -0.045 -20.838 -0.044 -20.915 -0.043 -21.018 -0.047 -21.054 -0.049 -21.076 -0.052 -21.097 -0.056 -21.123 -0.079 8.695 0.114 4.910 0.121 43.992 41.836
30.600 -20.795 -0.045 -20.809 -0.044 -20.888 -0.043 -20.996 -0.046 -21.033 -0.049 -21.058 -0.052 -21.080 -0.057 -21.109 -0.079 8.611 0.115 4.946 0.125 43.982 41.824
31.000 -20.765 -0.045 -20.779 -0.044 -20.861 -0.043 -20.973 -0.046 -21.013 -0.049 -21.039 -0.052 -21.062 -0.057 -21.095 -0.079 8.529 0.116 4.982 0.129 43.971 41.814
31.400 -20.735 -0.046 -20.750 -0.044 -20.835 -0.043 -20.951 -0.046 -20.993 -0.049 -21.020 -0.052 -21.045 -0.057 -21.080 -0.078 8.449 0.116 5.017 0.133 43.961 41.804
31.800 -20.706 -0.046 -20.721 -0.044 -20.808 -0.043 -20.929 -0.046 -20.973 -0.049 -21.001 -0.052 -21.027 -0.057 -21.066 -0.078 8.370 0.117 5.053 0.137 43.951 41.796
32.200 -20.677 -0.046 -20.692 -0.045 -20.782 -0.044 -20.908 -0.046 -20.953 -0.049 -20.982 -0.053 -21.010 -0.057 -21.052 -0.078 8.294 0.117 5.088 0.141 43.941 41.789
32.600 -20.648 -0.047 -20.663 -0.045 -20.756 -0.044 -20.886 -0.046 -20.933 -0.049 -20.963 -0.053 -20.992 -0.058 -21.038 -0.077 8.220 0.117 5.123 0.144 43.931 41.784
33.000 -20.619 -0.048 -20.635 -0.046 -20.730 -0.045 -20.864 -0.046 -20.913 -0.049 -20.945 -0.053 -20.975 -0.058 -21.023 -0.077 8.147 0.117 5.159 0.147 43.922 41.779
33.400 -20.590 -0.049 -20.607 -0.047 -20.704 -0.045 -20.843 -0.046 -20.893 -0.050 -20.926 -0.053 -20.958 -0.058 -21.009 -0.076 8.076 0.116 5.194 0.149 43.913 41.775
33.800 -20.562 -0.050 -20.579 -0.048 -20.679 -0.046 -20.822 -0.047 -20.874 -0.050 -20.908 -0.054 -20.941 -0.058 -20.994 -0.075 8.008 0.116 5.229 0.152 43.904 41.771
34.200 -20.535 -0.051 -20.552 -0.049 -20.654 -0.047 -20.802 -0.048 -20.855 -0.051 -20.890 -0.054 -20.924 -0.058 -20.980 -0.074 7.941 0.115 5.264 0.154 43.895 41.768
34.600 -20.507 -0.052 -20.525 -0.051 -20.630 -0.048 -20.781 -0.049 -20.836 -0.051 -20.872 -0.055 -20.907 -0.058 -20.965 -0.074 7.876 0.114 5.299 0.155 43.886 41.764
35.000 -20.480 -0.054 -20.498 -0.052 -20.605 -0.049 -20.761 -0.050 -20.818 -0.052 -20.855 -0.055 -20.890 -0.058 -20.951 -0.073 7.813 0.112 5.333 0.156 43.878 41.760
35.400 -20.453 -0.055 -20.472 -0.053 -20.581 -0.050 -20.741 -0.051 -20.799 -0.053 -20.838 -0.055 -20.874 -0.058 -20.936 -0.071 7.753 0.111 5.367 0.157 43.870 41.756
35.800 -20.427 -0.056 -20.446 -0.055 -20.558 -0.052 -20.722 -0.052 -20.781 -0.054 -20.820 -0.056 -20.858 -0.058 -20.922 -0.070 7.694 0.109 5.400 0.157 43.862 41.752
36.200 -20.401 -0.058 -20.420 -0.056 -20.535 -0.053 -20.703 -0.053 -20.764 -0.054 -20.804 -0.056 -20.842 -0.058 -20.908 -0.069 7.638 0.107 5.432 0.157 43.855 41.746
36.600 -20.376 -0.059 -20.395 -0.057 -20.512 -0.054 -20.684 -0.054 -20.746 -0.055 -20.787 -0.057 -20.826 -0.058 -20.894 -0.068 7.584 0.105 5.463 0.157 43.847 41.741
37.000 -20.351 -0.060 -20.370 -0.059 -20.490 -0.055 -20.666 -0.055 -20.729 -0.056 -20.771 -0.057 -20.810 -0.058 -20.880 -0.067 7.531 0.102 5.493 0.156 43.840 41.735
37.400 -20.326 -0.061 -20.346 -0.060 -20.468 -0.056 -20.647 -0.056 -20.712 -0.057 -20.755 -0.058 -20.795 -0.058 -20.866 -0.065 7.481 0.100 5.521 0.155 43.833 41.728
37.800 -20.302 -0.062 -20.322 -0.061 -20.446 -0.057 -20.630 -0.057 -20.696 -0.057 -20.739 -0.058 -20.780 -0.059 -20.852 -0.064 7.433 0.098 5.549 0.154 43.826 41.721
38.200 -20.278 -0.064 -20.299 -0.062 -20.425 -0.059 -20.612 -0.058 -20.680 -0.058 -20.723 -0.058 -20.765 -0.059 -20.839 -0.063 7.387 0.096 5.574 0.152 43.819 41.713
38.600 -20.254 -0.064 -20.276 -0.063 -20.404 -0.060 -20.595 -0.059 -20.664 -0.059 -20.708 -0.059 -20.750 -0.059 -20.825 -0.062 7.343 0.093 5.599 0.151 43.813 41.706
39.000 -20.231 -0.065 -20.253 -0.064 -20.384 -0.061 -20.578 -0.060 -20.648 -0.059 -20.693 -0.059 -20.736 -0.059 -20.812 -0.061 7.302 0.091 5.621 0.149 43.806 41.698
39.400 -20.209 -0.066 -20.231 -0.065 -20.364 -0.061 -20.561 -0.060 -20.632 -0.060 -20.678 -0.059 -20.721 -0.059 -20.799 -0.060 7.262 0.089 5.642 0.148 43.800 41.691
39.800 -20.187 -0.067 -20.209 -0.066 -20.344 -0.062 -20.545 -0.061 -20.617 -0.060 -20.663 -0.060 -20.707 -0.059 -20.786 -0.059 7.224 0.087 5.661 0.146 43.794 41.684
40.200 -20.165 -0.068 -20.188 -0.066 -20.325 -0.063 -20.529 -0.062 -20.602 -0.061 -20.649 -0.060 -20.693 -0.059 -20.773 -0.059 7.188 0.086 5.678 0.145 43.788 41.678
40.600 -20.144 -0.069 -20.167 -0.067 -20.306 -0.064 -20.513 -0.062 -20.587 -0.061 -20.635 -0.060 -20.680 -0.059 -20.761 -0.059 7.154 0.085 5.693 0.145 43.782 41.673
41.000 -20.123 -0.069 -20.146 -0.068 -20.288 -0.064 -20.497 -0.063 -20.572 -0.062 -20.621 -0.061 -20.666 -0.059 -20.749 -0.059 7.121 0.083 5.707 0.144 43.776 41.669
41.400 -20.103 -0.070 -20.127 -0.068 -20.270 -0.065 -20.482 -0.064 -20.558 -0.062 -20.607 -0.061 -20.653 -0.059 -20.737 -0.059 7.091 0.083 5.718 0.144 43.770 41.666
41.800 -20.083 -0.071 -20.107 -0.069 -20.252 -0.065 -20.466 -0.064 -20.544 -0.062 -20.593 -0.061 -20.640 -0.059 -20.725 -0.060 7.062 0.082 5.729 0.144 43.765 41.663
42.200 -20.064 -0.071 -20.088 -0.070 -20.234 -0.066 -20.452 -0.064 -20.529 -0.063 -20.580 -0.061 -20.627 -0.060 -20.714 -0.060 7.034 0.081 5.737 0.144 43.759 41.661
42.600 -20.045 -0.072 -20.069 -0.070 -20.217 -0.066 -20.437 -0.064 -20.516 -0.063 -20.566 -0.062 -20.614 -0.060 -20.702 -0.061 7.008 0.081 5.744 0.145 43.754 41.660
43.000 -20.027 -0.072 -20.051 -0.070 -20.201 -0.066 -20.422 -0.064 -20.502 -0.063 -20.553 -0.062 -20.602 -0.060 -20.691 -0.062 6.983 0.080 5.750 0.145 43.748 41.659
43.400 -20.008 -0.072 -20.033 -0.071 -20.184 -0.066 -20.408 -0.064 -20.488 -0.063 -20.540 -0.061 -20.589 -0.060 -20.680 -0.063 6.960 0.080 5.754 0.145 43.743 41.658
43.800 -19.991 -0.072 -20.016 -0.071 -20.168 -0.066 -20.394 -0.064 -20.475 -0.063 -20.527 -0.061 -20.577 -0.060 -20.668 -0.064 6.937 0.080 5.756 0.146 43.738 41.657
44.200 -19.973 -0.073 -19.998 -0.071 -20.152 -0.066 -20.380 -0.064 -20.462 -0.062 -20.515 -0.061 -20.564 -0.059 -20.657 -0.065 6.916 0.079 5.757 0.147 43.733 41.657
44.600 -19.956 -0.073 -19.981 -0.071 -20.137 -0.066 -20.367 -0.064 -20.449 -0.062 -20.502 -0.061 -20.552 -0.059 -20.646 -0.066 6.897 0.079 5.756 0.147 43.728 41.657
45.000 -19.939 -0.072 -19.965 -0.071 -20.122 -0.066 -20.353 -0.063 -20.436 -0.061 -20.490 -0.060 -20.540 -0.059 -20.635 -0.068 6.878 0.079 5.754 0.148 43.723 41.657
45.400 -19.923 -0.072 -19.949 -0.070 -20.107 -0.065 -20.340 -0.062 -20.423 -0.061 -20.477 -0.059 -20.528 -0.059 -20.624 -0.069 6.861 0.079 5.750 0.149 43.718 41.656
45.800 -19.907 -0.072 -19.933 -0.070 -20.092 -0.064 -20.327 -0.061 -20.411 -0.060 -20.465 -0.059 -20.516 -0.058 -20.613 -0.071 6.845 0.079 5.744 0.150 43.713 41.656
46.200 -19.891 -0.072 -19.917 -0.070 -20.077 -0.064 -20.314 -0.060 -20.398 -0.059 -20.453 -0.058 -20.504 -0.058 -20.602 -0.072 6.830 0.080 5.737 0.150 43.708 41.656
46.600 -19.875 -0.071 -19.902 -0.069 -20.063 -0.063 -20.301 -0.059 -20.386 -0.058 -20.441 -0.057 -20.492 -0.057 -20.591 -0.074 6.815 0.080 5.728 0.151 43.703 41.655
47.000 -19.860 -0.071 -19.887 -0.069 -20.049 -0.062 -20.288 -0.058 -20.373 -0.056 -20.428 -0.056 -20.480 -0.056 -20.580 -0.076 6.802 0.080 5.718 0.152 43.698 41.654
47.400 -19.845 -0.071 -19.872 -0.068 -20.035 -0.061 -20.275 -0.057 -20.361 -0.055 -20.416 -0.055 -20.468 -0.056 -20.568 -0.078 6.790 0.080 5.706 0.153 43.693 41.653
47.800 -19.831 -0.070 -19.858 -0.068 -20.021 -0.060 -20.263 -0.055 -20.349 -0.054 -20.404 -0.054 -20.457 -0.055 -20.557 -0.080 6.779 0.081 5.693 0.154 43.688 41.652
48.200 -19.816 -0.070 -19.843 -0.067 -20.008 -0.059 -20.250 -0.054 -20.337 -0.052 -20.392 -0.052 -20.445 -0.055 -20.546 -0.082 6.769 0.081 5.678 0.155 43.683 41.650
48.600 -19.802 -0.070 -19.829 -0.067 -19.994 -0.058 -20.238 -0.052 -20.324 -0.051 -20.380 -0.051 -20.433 -0.054 -20.535 -0.084 6.760 0.082 5.662 0.155 43.679 41.647
49.000 -19.788 -0.070 -19.816 -0.067 -19.981 -0.057 -20.225 -0.051 -20.312 -0.050 -20.368 -0.050 -20.421 -0.054 -20.524 -0.087 6.752 0.082 5.644 0.156 43.674 41.645
49.400 -19.775 -0.070 -19.802 -0.067 -19.968 -0.057 -20.213 -0.050 -20.300 -0.049 -20.356 -0.050 -20.408 -0.054 -20.512 -0.090 6.745 0.083 5.623 0.157 43.669 41.642
49.800 -19.761 -0.071 -19.789 -0.068 -19.955 -0.056 -20.200 -0.049 -20.288 -0.048 -20.343 -0.049 -20.396 -0.055 -20.501 -0.092 6.739 0.083 5.601 0.158 43.664 41.639
50.200 -19.748 -0.072 -19.776 -0.068 -19.942 -0.057 -20.188 -0.049 -20.275 -0.047 -20.331 -0.049 -20.384 -0.055 -20.490 -0.095 6.735 0.084 5.576 0.158 43.659 41.637
50.600 -19.735 -0.073 -19.763 -0.069 -19.929 -0.057 -20.175 -0.049 -20.263 -0.047 -20.319 -0.050 -20.372 -0.057 -20.478 -0.098 6.733 0.085 5.548 0.159 43.654 41.635
51.000 -19.723 -0.075 -19.750 -0.071 -19.917 -0.058 -20.162 -0.049 -20.250 -0.048 -20.306 -0.051 -20.359 -0.058 -20.467 -0.102 6.732 0.085 5.517 0.160 43.649 41.634
51.400 -19.710 -0.077 -19.738 -0.073 -19.904 -0.059 -20.149 -0.050 -20.237 -0.049 -20.293 -0.053 -20.346 -0.060 -20.455 -0.105 6.733 0.086 5.482 0.160 43.644 41.634
51.800 -19.698 -0.079 -19.726 -0.076 -19.892 -0.061 -20.136 -0.052 -20.224 -0.052 -20.280 -0.055 -20.334 -0.063 -20.444 -0.109 6.736 0.087 5.445 0.161 43.638 41.635
52.200 -19.686 -0.082 -19.714 -0.079 -19.879 -0.064 -20.123 -0.054 -20.211 -0.054 -20.267 -0.058 -20.321 -0.067 -20.432 -0.113 6.740 0.088 5.405 0.162 43.633 41.637
52.600 -19.675 -0.086 -19.702 -0.082 -19.867 -0.067 -20.110 -0.058 -20.197 -0.058 -20.254 -0.062 -20.308 -0.070 -20.421 -0.118 6.746 0.090 5.363 0.163 43.628 41.639
