 texplosion  fnickel     Pspin  log(Bfield)      Mns  thetaPB  mejecta    kappa  kappagamma      vejecta  temperature    alpha  cutoff_wavelength  log(nhhost)      A_V         MJD0  kenergy  mnickel              TSD   log(L0)  Peak_mag     Peak_MJD  log(E_rad)  log(Peak_lum)  Rise_Time    E_fold  tau_1  delta_m15     r_peak     frac 
   -4.66418  0.00261   8.17018     14.07363  1.92596  0.97897  1.08095  0.09699     0.01716   4888.46959   7686.49556  0.56765         4733.13008     18.99608  0.00551  58688.75379  0.15409  0.00283    8504995.36472  43.79936  19.45202  58730.52237    50.40034       43.70778   24.08618  40.38278   46.0    0.21013  -19.85858  0.99907 
   -6.99319  0.01173   7.30126     13.92772  1.50159  1.27088  2.44975  0.18533     0.01694   6467.07205   7907.18166  1.49277         3300.27162      18.1699  0.00082  58686.42478  0.61117  0.02873   10368840.14934  43.70287  19.41289  58730.52237    50.37247       43.64598   27.91609  42.97995   39.0    0.25996  -19.96799  0.98927 
    -7.6263  0.00138    7.6854     13.89731  1.68604  1.24299  2.34325  0.09523     0.01326   5218.63494   7155.14311  3.60917         3151.67647     16.06974    1e-05  58685.79167  0.38068  0.00323   14838934.82207  43.55298  19.39572  58730.04637     50.3789       43.67321   27.91609  40.60523   51.0    0.20792  -19.88815  0.99882 
   -4.72678  0.00342   7.28103       14.026  1.37136  1.03171  1.73382  0.14241     0.01459   4836.21778   7854.61487  2.32766         3403.21974     19.70592  0.02823  58688.69118   0.2419  0.00592    5988975.40621  43.90426  19.53613  58733.00446    50.36663       43.63053   27.91609  45.49006   42.0    0.25075  -19.90948  0.99752 
   -4.83898  0.00422   7.89746     14.02473  1.85121   0.8518   1.0629  0.25259     0.03742   6830.21272   7510.05185  3.80598         2724.80032     18.41981  0.00146  58688.57899  0.29579  0.00448    9567191.40508  43.76054  19.44595  58728.30078    50.38053       43.66719   25.89653  43.48499   43.5    0.26178  -19.96083  0.99848 
   -8.30266  0.01924   7.02198      13.8621  1.64829  1.12231  3.18191  0.13272     0.01339   6849.44752   6577.08634  4.40628         2589.13897     18.12787  0.00075  58685.11531  0.89048  0.06122   14241949.10539  43.63939   19.4245  58733.00446    50.41512       43.68608   25.60071  42.92061   45.5    0.25173  -19.99635  0.98089 
   -4.85355  0.25527   9.64011     14.46486  1.54176   0.9892  4.75098  0.12483     0.01402   7058.32571   8202.29817  2.29995         2010.63733     19.27046  0.01036  58688.56441  1.41193  1.21278    1564125.81139  44.29443  19.39304  58737.32031    50.41642       43.66786   32.42932  43.54056   36.0    0.25448  -19.92736  0.58191 
   -2.71676  0.00944     7.127     13.83561  1.84544  1.29723  0.91333  0.04933     0.02464   5490.69574   6421.56139  4.21484         2198.69158     17.31909  0.00012  58690.70121  0.16425  0.00862   18557086.71455  43.56062  19.34859  58735.96255    50.37893       43.63371    38.0674  40.60523   52.5    0.13139  -19.80398  0.99756 
   -4.68844  0.00469   7.67842     14.01113  1.57176  1.51829  1.91636  0.09311     0.03696   6820.76972   7178.20905  0.95172         2212.29175     19.46056  0.01604  58688.72953  0.53183  0.00899    8174822.64323  43.78221  19.38201  58730.52237    50.36314       43.63986   30.74786  40.14818   48.0    0.21857  -19.96772  0.99658 
    -6.2612  0.00418   6.77007      13.8569  1.40453  0.88973   2.0515  0.15531     0.01278   5293.06602    7501.0867  4.47471         3690.44287      18.1694  0.00082  58687.15676  0.34286  0.00858   11554209.64126  43.69245  19.40144  58733.00446    50.39665       43.59867   30.74786  48.70735   45.0    0.25229  -19.96876  0.99678 
   -6.55851  0.00139   7.19536     13.90506  1.62556  1.45353  1.38781  0.25734     0.04077    8170.7222   7504.60088  0.93328         2489.08102     19.55509  0.01994  58686.85945  0.55269  0.00193   12100460.54838  43.68294  19.32905  58730.04637    50.39738       43.62572   27.41106  46.18592   37.5    0.30714  -20.12066  0.99937 
   -7.54828  0.11424   8.17557     14.19372  1.72028  0.82846   2.1068  0.28793     0.02111   7061.42682   8380.11591  2.93581         2891.94815     18.91406  0.00456  58685.86969  0.62666  0.24069    4375397.83692  44.03839  19.39019  58735.96255    50.39176       43.60061   34.03199  47.17847   35.0    0.26447  -20.06255   0.9165 
     -7.111  0.00378   6.35362     13.76886  1.50117  1.02386  2.73563  0.08703     0.01725   7154.93913   6029.81978  0.89866         3390.01595      16.7955    3e-05  58686.30697   0.8354  0.01035   16314194.16295  43.62667  19.58487      58734.3    50.36792       43.53242   34.96715  55.53814   48.5    0.22976  -19.99626  0.99683 
   -6.84434  0.00442   8.95291     14.44582  2.10864  0.46688  2.42232  0.10743     0.01067   5385.57122   7066.53819  2.49132         2692.49419     17.57099  0.00021  58686.57363   0.4191  0.01071    2014205.99794  44.38481  19.32998      58734.3    50.34708       43.60971   34.03199   41.9379   45.0    0.24403  -19.91091  0.99635 
   -6.10936  0.46852  10.98286     14.39826  1.63492  1.05898  2.52814  0.16672     0.03236   6279.85013   6389.83858  3.16018         2448.64072     19.03584  0.00603  58687.30861  0.59474  1.18449    2925603.98557  43.93469  19.39303  58733.00446    50.39211       43.66425   30.45392  42.97995   52.5    0.21186   -19.8853  0.54202 
   -7.27414  0.00184   7.77474     13.95278  1.85479  1.29856  2.61828  0.12127     0.01063   6048.25717   9107.75983  1.55609         3121.69382     16.66309    3e-05  58686.14382  0.57135  0.00483   12939716.86886  43.64384  19.46408  58733.00446    50.35151       43.61189   32.42932  41.16766   36.5    0.25937  -19.95493  0.99846 
   -8.50941  0.24152    3.3874     13.15448  1.69279  1.23089  1.87592  0.27471     0.01264   7642.01104   6744.80151  0.07294         5022.54746     18.87853   0.0042  58684.90855  0.65352  0.45308   88551375.85209  43.49052  19.44028  58733.00446    50.34725       43.56089   34.03199  47.17847   48.0    0.25875  -20.00725  0.95167 
     -5.505  0.01049   7.24562     13.82948  1.86114  1.24157  0.90959   0.1903     0.01859   5585.93716   7203.84649  4.30976         2705.97351     18.84113  0.00385  58687.91297   0.1693  0.00954   19897071.77011  43.51969  19.39563      58734.3    50.38197       43.52603   35.52957  53.43588   45.5    0.27058  -19.81765   0.9972 
   -6.19821  0.02934   6.05915     13.71547  1.32289  1.31468  3.11048  0.05271     0.01189   6167.08888   8503.80442  3.52576         2133.52704     18.56859  0.00206  58687.21976  0.70569  0.09125   16719537.66205  43.60232  19.61625      58734.3    50.32038       43.44358   43.14306  55.83219   44.0     0.1941  -19.91579  0.97111 
   -8.39001   0.0011   4.01965     13.32846  1.49617  1.33238  1.13928  0.27875     0.01644   6420.45804    6054.4378   3.3408         2190.86571      16.6867    3e-05  58685.02796  0.28015  0.00126   49459523.69724   43.5412  19.42091  58733.31641    50.37746       43.62832   30.74786  42.84911   50.0    0.24983  -19.96298  0.99982 
   -7.38726  0.00157   7.42519     14.11816  1.75815  0.50676  1.85919  0.11259     0.01705   5722.90716   6424.27274   2.3456          3336.5077     17.30667  0.00011  58686.03071  0.36323  0.00293    5223458.28615  44.05453  19.44263  58730.52237    50.41166       43.73489   25.37827   38.0674   52.0    0.22167  -19.86934  0.99902 
   -7.00697  0.00354    6.5682     13.78127  1.85396  1.37223  2.36177  0.11662     0.01044   6398.60675   8788.39208  4.91792         2088.96109     17.29707  0.00011    58686.411  0.57681  0.00836   20336415.30517  43.59378  19.48545      58734.3     50.4099        43.6837   27.91609  43.14306   38.5    0.25185  -19.97675  0.99799 
   -5.05458  0.00234   5.14495     13.62302  1.75216  0.95731  1.09114  0.09184     0.01439   5895.98731   6317.31728  1.37001         2214.14061     16.00959    1e-05  58688.36339  0.22627  0.00255   24440308.48739  43.70155  19.40205  58733.31641    50.26251       43.50287   35.52957  43.14306   50.5    0.20612  -19.87188  0.99955 
   -6.03921  0.00487   6.55322      13.8287  1.83036  0.85236  2.88699  0.05247     0.01889   7847.15826   6716.66908  1.24258         2205.26387      19.8201  0.03671  58687.37876  1.06047  0.01407   16064095.39045  43.69262  19.33543      58734.3    50.36295       43.57996   35.52957  45.68088   50.5    0.19316  -20.00639   0.9964 
   -4.07449   0.4192  10.27211     14.55544  1.40749  1.08309  4.69672    0.088     0.01118    6876.3686   7304.70198  0.26037         4353.66121     19.35883  0.01269  58689.34348  1.32477  1.96888     1068303.6252  44.36528  19.52388  58730.04637    50.27809       43.48225   30.74786  53.00042   42.0    0.27616  -19.97505  0.39887 
   -6.28078  0.34729   6.50508     13.76735  1.69562  0.97912  2.48774  0.14478     0.01062   7115.71587   7794.84864  0.51074         3237.55073     17.71541  0.00029  58687.13719   0.7514  0.86396   19451141.47878  43.58272  19.50122      58734.3    50.35091       43.59917   30.74786  45.38694   40.0    0.28563  -19.99297  0.80424 
   -9.93008  0.02474   5.53708     13.76535   1.2645   1.1339  1.24209  0.15539     0.01171    4156.3942   9888.46491  0.25103          4530.7436     17.91387  0.00046  58683.48789    0.128  0.03073   10606901.69286  43.85861  19.35912  58733.00446    50.39349       43.63047   30.45392  45.68088   38.5     0.2059  -19.78854  0.99142 
   -6.15983  0.41754   8.17356     13.92176  1.69933  0.90438  2.25555  0.12764      0.0149   6600.41872   7595.81596  3.26817         2424.82082     18.51741  0.00183  58687.25813  0.58617  0.94178   15114291.81853  43.49491  19.41016  58733.00446    50.24557       43.48815   35.93795  43.51726   45.0    0.23289  -19.86477  0.71055 
   -5.27168  0.06779   8.79709     14.21224  1.92715  0.69326  2.92117  0.06519     0.01562   6752.26161   7647.25248  1.33598         2006.85696     16.05077    1e-05  58688.14629  0.79448  0.19801    5211018.44028  43.94816  19.41473  58733.31641     50.3848       43.57736   32.99175  48.21871   44.0    0.22384   -19.8957   0.9292 
   -9.50759  0.00583   6.58384     13.88922  1.29749  1.33248  3.64641  0.15212     0.01107   6087.04633   8741.55027  4.70256         2652.62868     17.59477  0.00022  58683.91038  0.80594  0.02127    8698158.45563  43.80556  19.41235  58733.00446    50.35285       43.55726    38.0674  48.21871   36.5     0.2279  -19.95018   0.9921 
    -5.6668  0.04901   1.59954     12.55383  1.64522   0.9139  2.36316  0.09177     0.01038   7807.80742   5852.21748   0.1848         4502.21623     16.15046    1e-05  58687.75116  0.85937  0.11583  305050443.70289  43.59271   19.3576  58733.31641    50.34267       43.59479   32.99175  42.97813   53.5    0.25522  -20.03718  0.99195 
    -6.1431  0.39642   0.98239      12.1173  1.20348  0.93604  2.17252  0.22898      0.0108   7939.24782   7054.53678   1.3871         3450.33987     20.29268  0.10899  58687.27487  0.81686  0.86124   628386518.0957  43.56649  19.35542  58733.31641     50.3082       43.55371   35.52957  43.14306   49.5    0.26557  -20.12903  0.94637 
   -7.34472  0.00933   7.23556     14.40943  1.42873  0.38573  2.79091  0.17742     0.01209    5518.3388   7238.78127  3.88272         2585.69652     18.18458  0.00085  58686.07324  0.50698  0.02604    1054036.69784    44.682  19.32149  58730.52237     50.4755       43.64391   27.91609  55.83219   40.5    0.23747  -19.87583     0.99 
   -6.42105  0.00125   6.32649     13.74597  1.97424  1.07413   1.2399  0.23246     0.01539   6025.25982   7893.90423  4.05118         2796.71906     17.71807  0.00029  58686.99692  0.26851  0.00155   23637017.79465  43.58833  19.39305  58733.31641    50.36297       43.65016   30.74786  40.14818   44.0    0.26704  -19.92282  0.99966 
   -7.35142  0.00396   4.74059     13.67878  1.66641  0.69638  1.36364  0.24915     0.01143   6413.57486   6923.05612  0.76339          4019.7893     19.18284  0.00846  58686.06655   0.3346   0.0054   15265130.57281  43.95526  19.39686  58735.96255    50.38068       43.63766   32.42932  41.16766   43.5    0.28418  -20.02477  0.99913 
   -5.57194  0.00179   7.48229     13.85608  1.91265  1.47277  1.28118  0.13688     0.01933   5978.14498   7717.58218   0.7412         4301.35679     16.89555    4e-05  58687.84603  0.27313  0.00229    19291289.5532  43.51705  19.39423      58734.3    50.44301       43.71872   24.08618  42.92061   44.5    0.24963  -19.94855  0.99932 
   -5.47807  0.33326  11.50271      14.2537  1.57443  0.98783  3.80553  0.09423      0.0145   5464.51671   7920.99242  4.58133           2848.326     17.66996  0.00026   58687.9399  0.67787  1.26824    6013596.45077  43.56524  19.43254  58733.00446    50.45192       43.75723   23.02411  40.42156   53.0    0.18046  -19.82317  0.47917 
   -6.45473   0.0063   7.30894     13.96015  1.44007  1.22828  2.77755  0.11882     0.02185   6656.20267   7428.62648  1.84719         2660.96643     18.22752  0.00094  58686.96324  0.73408  0.01749    8582393.41513  43.76591   19.4646  58735.96255    50.36046       43.60554   32.99175  43.14306   43.5    0.24333  -19.97151   0.9931 
   -6.02163  0.01437   7.20008     14.27152  1.99347  0.37186  1.19499  0.24186     0.01874   6266.16806   6864.03252  2.92863         3078.21665      18.0948  0.00069  58687.39633  0.27989  0.01717    2748283.47611  44.41472  19.41728  58733.00446    50.31569       43.55205   32.99175  45.68088   43.5    0.28816  -20.00805  0.99554 
   -7.06758  0.00904   8.38623     14.12321  2.01863  0.89725  1.71346  0.13808     0.01225   4751.04811    8472.8345  1.29555         3915.71136     20.19391  0.08682  58686.35039  0.23072  0.01548    7474649.93483  43.85318  19.35597  58733.00446    50.37886       43.60909   30.74786  47.92477   44.0    0.22518  -19.94999  0.99498 
   -9.25239  0.00247   5.91647     13.91976  1.65812  0.62384  1.59896  0.26171     0.01624   6664.36338   8313.39635  1.00139         2943.20537     16.92812    5e-05  58684.16558  0.42362  0.00396    7799013.92609   44.0523  19.47144  58733.31641     50.3652        43.6317   30.45392  42.95223   38.5    0.26473  -20.00101  0.99908 
   -6.49158   0.0018   8.30046     14.39038  1.88017  0.41701  3.09988  0.08706     0.01014   5788.34547   8692.19549  4.38133         2518.07254     16.93829    5e-05  58686.92639  0.61956  0.00559    1992780.03025  44.40538  19.39308  58733.00446    50.40171       43.67204   27.91609  45.49006   40.0    0.24068  -19.91103  0.99803 
   -5.32515  0.00157   7.73831     14.87937  1.66571  0.12572   2.8472  0.15658     0.02282   8741.67026   8277.14012  2.76123         2380.99041     17.18377    8e-05  58688.09281  1.29788  0.00447     161420.33752  45.50519  19.38295  58735.96255    50.32573       43.58188   35.52957  40.60523   33.5    0.29265  -20.12867  0.99839 
   -7.65992  0.01693    6.5257     14.03215  1.53385   0.4853  3.36077   0.0905     0.01052    6482.9351   6280.15442  3.22156         3096.75893     18.18912  0.00086  58685.75805  0.84258  0.05688    5230669.50547  44.10682  19.37438  58726.43271    50.34476       43.58074   32.42932  43.70548   47.5    0.25186   -19.9434  0.98223 
   -5.38195   0.0059   5.63155     13.71143  1.83882  1.30143  0.77491   0.2702     0.01336   5633.03298   8084.97619  0.32932         4656.89548     18.37891  0.00133  58688.03602  0.14668  0.00457   20452949.51519  43.72137  19.34108  58730.52237    50.46882       43.64905   30.45392  45.68088   39.5    0.28884  -19.96172  0.99918 
   -4.64334  0.32912  10.59423     14.78289  1.72581  0.36351  4.08688  0.11663     0.01068    6674.0657   7934.35106  3.30544         2451.05167     19.64397  0.02447  58688.77463  1.08592  1.34509      488843.8777  44.76653  19.41205  58735.96255    50.40596       43.64489   34.96715  43.56067   37.0    0.27115  -20.00794  0.54825 
   -6.01434  0.00136    7.1928     14.08292  1.92107   0.4887   1.0184  0.22329     0.02695   6093.20247   6653.67986  4.37309         3100.17576     16.71793    3e-05  58687.40363  0.22555  0.00139     6299658.0003  44.03928  19.43626  58730.52237     50.3247       43.57343   30.91479  43.70548   49.5    0.24776  -19.88904   0.9996 
   -8.24157  0.20761   4.32266     13.55018  1.42016  0.62352  2.28593  0.22496     0.01113   6861.08587   6156.00112  4.37081         3229.34575     19.34815  0.01238   58685.1764  0.64191  0.47458   19556932.69276  43.85838  19.29776  58737.32031    50.34464       43.61639   35.93795  40.19685   48.5    0.25131  -20.03683  0.91813 
   -4.50245  0.01157   6.57072     13.75776  1.80428  1.50089  1.67867  0.07753     0.01854   7037.61474   8584.00173  0.10171          5027.3667      16.3702    1e-05  58688.91552  0.49596  0.01942   22071334.32009   43.5461  19.44896  58737.32031    50.31144       43.54771   35.93795  43.51726   39.0    0.23206  -19.99716  0.99511 
   -5.00978  0.49914   9.65985     14.31675  1.44133  0.91611  2.26526    0.256     0.02378   6956.88701    8250.2604  1.47118         3473.72402     17.54839   0.0002  58688.40819    0.654  1.13069    2904098.24462  43.99466  19.43854  58735.96255    50.37843       43.59829   34.03199  47.17847   37.0    0.26227  -19.99016  0.56929 
   -6.22164   0.0464   8.53184     15.08494  1.95929  0.08821  2.12372  0.15584     0.02151   7327.67208   8722.97234  0.76635         2998.34037     17.27274   0.0001  58687.19633  0.68023  0.09855       89561.6601  45.74674  19.33082  58730.52237    50.29993       43.49417   35.52957  49.87416   35.5    0.26854  -20.03752  0.96666 
   -5.24214  0.14124   8.91679     14.18297  1.66073  1.14886  4.03788   0.1205     0.01355   6863.67797   7159.23928  3.05007         2603.35702     19.19933  0.00879  58688.17583  1.13473  0.57029    5279518.43646  43.86613  19.47495  58730.52237    50.28067       43.47809   35.93795  49.46578   40.0    0.25371  -20.02288  0.78927 
   -7.65506  0.00136   7.36187     13.88573  1.53597  1.49252  1.12808  0.24353     0.02098   4700.55026   6817.99909   2.4716         3670.63567     20.21639  0.09144   58685.7629  0.14868  0.00154   13083288.55039  43.60453  19.39868  58735.96255    50.40211        43.6398   30.74786  47.92477   47.5    0.22973  -19.93145  0.99942 
   -7.38429  0.04262   5.61649     13.59765   1.4924  1.04139  2.66942  0.11996     0.02103    7942.4015   6141.02035  1.54968         3352.62445     16.93587    5e-05  58686.03368  1.00449  0.11378   27882991.71485  43.49846  19.40822  58735.96255    50.30377       43.48525   38.33503  50.63043   51.0    0.24515  -20.01877  0.97066 
   -8.24055   0.0931    3.9136     13.37753  1.82709  0.73248  3.06253   0.3039      0.0294  13217.88913   9482.03658  2.77474         3701.80151     16.86817    4e-05  58685.17742  3.19177  0.28514    45673371.9592  43.68579  19.39802  58730.52237    50.27838       43.51479   34.03199  44.64064   49.0    0.18769  -19.98029  0.96234 
   -4.69616  0.00541   7.20698     14.33879  2.01563  0.28071  3.04503  0.04354     0.01209   6504.61279   6716.28797  2.36049         2461.57783     16.33193    1e-05  58688.72181  0.76853  0.01647    2042475.49977  44.54759  19.42888  58733.31641     50.3793       43.63813   30.74786  45.22202   53.0    0.17499  -19.89371   0.9956 
   -6.75823  0.00147   1.75552     12.86159  1.70177  0.53536  1.66409  0.24129     0.01263   8089.25566   6306.15381  2.26053         2982.15938     18.74609   0.0031  58686.65974  0.64956  0.00245   92120820.66229  44.04658  19.56372  58730.04637    50.29695       43.41186   36.56981  58.20835   49.5    0.29208  -20.07208  0.99984 
   -4.71216  0.07991   4.70613     13.35676  1.59978  1.40452  2.21866  0.12699     0.02617   9460.42408   8457.88899  2.30241         3109.90882     18.85702    0.004  58688.70581  1.18451  0.17728   63632385.53106   43.3239  19.44856  58730.52237    50.35554       43.59948   32.42932  43.70548   44.0    0.20978  -20.06574  0.96611 
   -5.76994  0.01563   8.15168     14.22382  1.90172  0.66389  2.44532  0.11478     0.01472   6869.20705   7373.79921  0.18947         4401.94318     16.07365    1e-05  58687.64803   0.6883  0.03822    4186173.10638  44.10368  19.36133  58730.52237    50.38883       43.63069   30.74786  45.22202   39.0    0.29051  -20.01864  0.98746 
   -6.02915  0.36217    6.7698     13.95168  1.85199  0.45911  3.02285  0.16311     0.02705   9627.04494   5498.48802  1.08831         2616.91749     16.67536    3e-05  58687.38882   1.6712  1.09478    9845763.34021  43.88208  19.45092  58733.31641    50.43476       43.57236   30.74786  55.53825   50.0    0.25236   -20.0672  0.74704 
   -5.07717  0.01842   9.46684     14.41198  1.65192  0.70166  2.85873  0.11533     0.01494   4881.70786   9283.04515  2.54986         3886.08364     17.82375  0.00037   58688.3408  0.40639  0.05266    2061815.23084  44.22017  19.45274  58733.00446    50.40299       43.67551   26.40156  42.97995   39.5    0.24062  -19.88248  0.97303 
   -6.58658  0.00365   5.98629     14.61187  1.70427  0.11288  2.79014  0.15901     0.01205    7707.3714   7327.59823  3.59879         2635.97253      17.3889  0.00014  58686.83138   0.9887  0.01018     338792.32397  45.41613  19.47339  58728.30078    50.41855       43.64465   28.93939  50.75654   41.0    0.30191  -20.04074  0.99762 
   -5.14075   0.0068   7.99301     14.29386  1.55866   0.7549  1.41833   0.2457     0.03415   5792.59967   9035.02116  1.20185         3662.53926     18.64216  0.00244  58688.27722  0.28389  0.00965    2389258.30509  44.27791  19.34948  58733.31641    50.28828       43.50088   35.93795  47.81033   35.5    0.26893   -19.9868  0.99607 
   -6.77288  0.22365   7.20499     13.78951  1.89947  1.49274  2.71857  0.14668     0.01071   6736.35209   7389.60968  2.09752         3046.49506     19.49533  0.01738  58686.64509   0.7359    0.608   24137456.63232  43.44952  19.46565      58734.3    50.41691        43.6387   32.99175  48.21871   44.0    0.26363  -20.02292  0.85156 
    -5.9399  0.23043   7.00152     13.76288  1.71278  1.23917  2.38298  0.19855     0.02605   9819.90805   8263.82797  0.11773         5990.36597     17.44163  0.00015  58687.47807  1.37076  0.54912   23235093.00021  43.44602   19.3805  58730.52237    50.43378       43.65882   26.40156  45.49006   37.0    0.25017  -20.10799  0.85171 
   -6.53582  0.00264   7.51315     14.49181  2.07751  0.22416  3.20937  0.05571     0.01324    7731.2418   6952.64576  0.77933         2383.71723     16.74843    3e-05  58686.88214  1.14431  0.00848    1130788.14229  44.78136  19.49235  58733.31641    50.38977       43.58938   33.28569  48.70735   45.5    0.23854   -19.9793   0.9977 
   -5.47133  0.00558   6.82659     14.08459  1.14749  0.71194   4.1936  0.04662     0.02043   5619.51725   7804.53474  1.56799         3176.10019     20.36975  0.13016  58687.94664  0.78997   0.0234    3363446.90942   44.1334  19.44849  58733.00446    50.40057       43.66311   27.91609  45.49006   53.5    0.24167  -19.82614  0.98893 
   -6.76778  0.00647   8.16643     14.32105  1.85891  0.83423  3.75778  0.08418      0.0156   5866.52494     9484.187  0.16823         2146.72838     19.83885  0.03833  58686.65019  0.77147  0.02432    2624459.12554    44.295  19.35395      58734.3    50.31412       43.55816    38.0674  43.14306   35.0     0.2401  -19.99018  0.99208 
   -4.95633  0.04214   5.64543     13.78319  1.54401  0.60724  3.24668  0.04216     0.01357   7454.55824    5913.7449  1.37654         2616.64791     16.09027    1e-05  58688.46164  1.07624   0.1368   12401641.74091  43.86062  19.41186  58730.52237    50.38183       43.64402   27.91609  45.68088   52.5    0.19603  -19.93147  0.96602 
   -6.01757  0.00274   3.05805     13.10928  1.27668  1.02776  1.98131  0.15809     0.01505   8277.58819   6781.04609  0.05762         3131.64955     18.97305  0.00522   58687.4004  0.80982  0.00542   67024045.34424  43.57781  19.40721  58733.00446    50.25115       43.49253   35.52957  43.14306   46.5    0.29302  -20.03543  0.99931 
   -8.49903  0.01179   7.13395     14.10654  1.69437  0.75443  2.42777  0.30168      0.0144    7279.3624   7672.12538  1.59119         3022.18696     16.08423    1e-05  58684.91894   0.7674  0.02863    4902454.53162  44.10078  19.41211  58730.52237    50.39953       43.67982   26.40156  42.97995   36.5    0.28123  -20.04945  0.99149 
   -6.92317  0.00651   8.95981     14.25431  1.91656  0.70143   1.9092  0.13407     0.02457   6160.62271   7572.43822  1.59803         2730.68874     18.62158  0.00232   58686.4948  0.43224  0.01243    4429035.17258  44.00046  19.43601  58735.96255    50.37019        43.6282   30.74786  45.22202   45.0    0.21762  -19.88233   0.9951 
    -6.7905  0.03932   8.13369     13.81515  1.94183  1.54442  3.10424  0.05285      0.0129   6010.71668    6043.2535  4.33752         3090.75689     18.97406  0.00523  58686.62746  0.66901  0.12207   27944245.98255  43.29019  19.43148  58733.31641    50.39942       43.63828   26.40156  48.21871   58.0     0.1844   -19.7835  0.95753 
   -4.70656  0.00158   7.05404     14.18215  1.40886  0.39285   1.4441  0.09752     0.06715   6507.52274   5933.13133    3.884         2555.11919     18.91496  0.00457  58688.71141   0.3648  0.00229    2813540.85939  44.27158  19.37243  58733.31641    50.28882       43.48888   40.60523  47.33633   69.0    0.15313  -19.79547  0.99907 
   -7.72976  0.00116   7.76538      14.0597  1.84152   1.0388  3.40487  0.08057     0.01018   6856.47491   8628.47813  1.66954         2107.82783     17.64216  0.00024  58685.68821  0.95484  0.00395    7832673.49003  43.85979  19.31993  58730.52237    50.39427       43.70359   27.91609   38.0674   34.5    0.28602  -20.03422  0.99876 
    -8.0212  0.01042   7.54962     13.93194  2.07761  0.87267  1.90358  0.20542      0.0129   5837.23839   7148.73397  3.83564          3778.6334     17.76833  0.00033  58685.39677  0.38691  0.01984   15043839.56422   43.6532  19.58313  58730.52237    50.40658       43.55085   25.89653  66.48853   46.5    0.26502  -19.99371  0.99448 
   -6.32306  0.00462   6.79632     13.73878  1.71857  1.32064  1.25043  0.17263     0.01072   4543.57419   7129.75546  3.01748         3924.47167     17.21678    9e-05   58687.0949  0.15399  0.00578   24545516.63413  43.44949  19.48606  58733.00446    50.33254       43.53633   32.42932  48.78114   47.0    0.27018  -19.91605  0.99828 
   -7.49608  0.01281   5.37487      13.5731  1.61299  1.41789  1.62676  0.17221     0.01419   6529.04955   6995.88104   3.7604         2090.55915     17.45351  0.00016  58685.92189  0.41367  0.02083   30902048.47546  43.52575  19.37911  58733.31641    50.38891       43.65442   30.74786  42.65829   46.0    0.26089  -19.94281  0.99563 
   -5.01169  0.00477   7.52339     14.37676  1.54733  0.42108  1.74289  0.07432     0.01606   5123.30619   6830.48321  0.57079         4111.94993     16.95788    5e-05  58688.40628   0.2729  0.00832    1434500.86304   44.5489  19.46038  58730.52237    50.43831       43.72554   25.37827  40.60523   48.0    0.21861  -19.86095  0.99688 
   -7.30843  0.00104   7.05577     14.17696  1.51799  0.57749    2.147  0.09887     0.01361   5192.89394   6954.89995  2.49334         2145.73152     17.72262  0.00029  58686.10954  0.34537  0.00223    3106340.86679  44.26078   19.4265  58733.31641    50.42837       43.62798   27.41106   53.7994   48.0    0.20838  -19.84203  0.99923 
   -7.19157  0.03849   9.13747     14.48869  1.66073  0.57934  3.57728  0.16639     0.01638   5971.50462   7008.06096  3.16928         3678.32591      16.5121    2e-05   58686.2264  0.76094  0.13768    1356392.73629  44.43511  19.38907  58733.00446    50.38875       43.68496   25.89653  38.57243   41.0    0.23234  -19.96134  0.93741 
    -7.6016  0.29218   5.74942     13.76886  1.89652  0.75343  2.36591  0.24857     0.01044    7164.3612   6625.60718  2.64269         3027.90705     19.16907   0.0082  58685.81637   0.7244  0.69127   16877276.64597  43.80025  19.37788  58733.31641    50.36311       43.62888   30.74786  42.65829   45.0    0.26223  -20.05569  0.87959 
   -5.69933  0.00275   8.19039     13.88049  1.60141  1.47768  2.22455  0.06577     0.01094    4422.8505   7935.97073  2.85296         3936.16011     19.34518   0.0123  58687.71864  0.25958  0.00611   17296183.56111  43.40879  19.51277  58735.96255    50.45119       43.73577   30.45392  40.60523   53.0    0.20271   -19.7989  0.99725 
   -6.28896  0.16071  10.38102     14.23137  1.90684  1.22419  3.74447  0.08766     0.01261   6001.42733   9099.13226  4.96349          2186.2454     17.96939  0.00052  58687.12901   0.8045  0.60177    6574631.76791  43.69881  19.50593  58733.00446    50.33573       43.57099   30.74786  45.38694   38.5    0.21558  -19.85743  0.76095 
   -5.68001  0.23002   5.48413     13.55104  1.32063  1.17452  2.89303   0.0883     0.01324   7433.29518   5836.78721  0.54284         3405.29794     18.31424  0.00115  58687.73796  0.95355  0.66544   29156409.33536  43.44668  19.47221      58734.3    50.38121       43.64421   27.41106  45.99509   48.0    0.24803  -20.01774  0.83585 
   -5.12012  0.01133   9.83722     14.36536  1.91142  0.59789  1.90629  0.12898     0.01024   4164.42403   8602.87186  4.78478         3724.60274     16.98993    5e-05  58688.29784  0.19721  0.02159     3192997.6512  44.06026  19.41701  58735.96255    50.32032       43.56553    38.0674  43.14306   43.0    0.24475   -19.8948   0.9898 
   -5.00385  0.40709   3.98087     13.55627  1.44942   0.4221  2.11977  0.14363     0.01301   6890.20366   6575.22862  3.76346         2729.12592     18.99576   0.0055  58688.41412  0.60032  0.86294   16459776.74721  44.01366  19.34397  58733.00446     50.4588       43.63772   30.45392  48.21871   51.5    0.24606  -19.96012  0.86062 
   -9.85704  0.00551    7.1752      14.0093  1.75759  0.70512  2.95522    0.159     0.01855   7625.91467   9053.53201  0.50533         3452.01927     18.74625   0.0031  58683.56093  1.02518  0.01627    8050231.41046  43.89629  19.36701  58733.00446    50.44974       43.61136   32.99175  50.75654   43.0    0.21529  -19.98291  0.99504 
   -6.41451  0.00165   7.62925     13.93246  2.01839  1.05999  1.09724  0.31763     0.04023   8034.66514   7712.74346    0.158         5026.72644     16.04835    1e-05  58687.00346  0.42254  0.00181   14888882.27834  43.63603  19.48089   58737.4375    50.31321       43.57111   35.93795  40.19685   39.5    0.29862  -20.03817  0.99948 
   -6.70384  0.00113   7.92047       14.394   1.6549  0.37291  3.07163  0.13968     0.01572   6944.49662   9598.99404  4.90534         2986.97544       16.134    1e-05  58686.71413  0.88365  0.00346    1570652.76951  44.49404  19.42947  58733.00446    50.33393       43.57793   32.99175  43.14306   37.5    0.21863  -20.01771  0.99866 
   -5.84683  0.32908   3.62004     13.31674  1.73633  0.62592  3.05369  0.09366     0.01764   9061.91531   6327.54258  3.59484         2074.80505     19.99971  0.05552  58687.57114  1.49587  1.00492   49134464.21423  43.69966  19.33795  58730.52237    50.36563       43.63337   30.74786  40.31129   53.5    0.23925  -20.13622   0.8705 
   -5.79835  0.00586   6.77816     13.92225  1.63229  0.90523  2.67551   0.1023     0.01093   6665.53226    7570.0156  2.67787         2166.35397     17.12743    7e-05  58687.61961  0.70909  0.01568       9961796.22  43.82108  19.40004  58733.31641    50.40295       43.63217   34.96715  43.70548   40.0    0.28078  -19.96564  0.99535 
  -13.40916  0.00941   4.76872     13.78424  1.64716  0.39633  2.28448  0.26139     0.01678    7194.6217   8242.34574  4.64107         2428.05604      17.7135  0.00029   58680.0088  0.70539  0.02149    9394453.39115  44.15591  19.39336  58730.52237    50.35836       43.62354   30.45392  42.95223   52.0    0.14549  -19.79742  0.99587 
   -6.90688  0.48764   3.46624     13.01064  1.72662   1.5547  2.23774  0.20326     0.01301   6874.74933   6495.76073  1.94021         3671.09824     18.74446  0.00308  58686.51109  0.63089  1.09122  183420920.51952  43.16288   19.4377  58733.00446    50.41813       43.66936   27.41106  46.18592   53.0    0.24676  -19.99178  0.85354 
   -6.52852   0.2319   9.55184     14.20696  1.58779  1.38122  3.24138  0.17392     0.02694   6917.50016   6511.80752  3.41516         3671.22163     20.55117  0.19765  58686.88945  0.92524  0.75168    5186476.70017  43.79459  19.39583      58734.3    50.39756       43.58645   35.52957  48.21871   46.0    0.22418  -20.13104  0.70006 
   -7.85279  0.18149   8.88152     14.10732  2.12283  1.30376  2.72177  0.20371     0.01382   6902.96544   8766.69449  3.42038         2411.81777     19.96787  0.05159  58685.56518  0.77366  0.49398    9485700.10404  43.72172  19.40794  58735.96255    50.31693       43.56443   35.93795  42.73468   35.0    0.25398  -20.07903  0.85842 
   -6.15228  0.00246   7.35424     13.84458  2.07995  1.53299  1.19262  0.14543     0.01692   5833.06709   7290.49985   0.8663         3780.00239     19.46231  0.01611  58687.26569  0.24206  0.00293   21369113.11526  43.52404  19.44953  58733.00446     50.3445       43.55463   32.42932  48.78114   45.5    0.25386  -19.93743  0.99925 
   -6.41025  0.00281   6.64627     14.32681  1.72984   0.2916  1.26629  0.11607     0.01021   4702.58456    8998.4449   1.2211         3825.72364     18.37964  0.00133  58687.00772  0.16705  0.00356    1575260.05923  44.66434  19.42604  58733.00446    50.32291       43.61633   30.91479  38.62983   42.5    0.24387  -19.90028  0.99904 
   -6.68744  0.00158   7.82402     14.85897  1.60438  0.12781  1.54861  0.10221     0.01409   4309.99014   7327.86596  1.06144         3819.19863     16.66724    3e-05  58686.73053   0.1716  0.00245     174601.88328  45.44524  19.40861  58733.31641     50.3346       43.57891   32.99175  45.68088   51.0     0.2035  -19.76529  0.99904 
   -3.72442  0.05684  10.10824     14.28126  1.98828  1.25761  1.36951  0.14528     0.04992   5820.09005   8832.73718   2.1554         2820.98375     19.14494  0.00776  58689.69355  0.27673  0.07785    5165681.57875  43.84484   19.3881  58735.96255    50.35061       43.57098    38.0674  45.68088   45.5    0.23866  -19.87619  0.96551 
   -5.64042    0.008   5.70746      13.6987  1.77708  0.95334  2.02305  0.06265     0.01232   6870.69622   7360.87261  0.45447         2385.14921     17.45749  0.00016  58687.77755  0.56969  0.01619   21528530.83617  43.67265  19.45918  58735.96255    50.34188       43.60802   30.74786  42.65829   45.0    0.23323  -19.93803  0.99664 
   -5.88156  0.26832   6.95499     13.84665  1.71947  1.01545   2.8013  0.10742     0.01112   6696.71313   6955.04891  0.03477         2013.24025     19.39317  0.01374  58687.53641  0.74939  0.75165   15649549.88261  43.62514  19.52944  58733.31641    50.44137       43.71735   17.76479  48.21871   45.0     0.2403  -19.99059  0.81488 
   -6.26649  0.00134   5.36068     13.59265  1.82126   1.3335  0.96164  0.26188     0.01394   5755.82129   7020.85953  1.61364         3209.03842     16.78113    3e-05  58687.15148  0.19004  0.00129   31718774.99999  43.56946  19.39744  58730.52237    50.43731       43.73185   23.86374  43.14306   45.5     0.2739  -19.94784  0.99977 
   -6.53254  0.00188   6.32029     13.74114  1.49083  1.29222  0.97375  0.21933     0.02088   5296.64133   7805.59985  3.74119         2658.91345     16.94827    5e-05  58686.88543  0.16296  0.00183   18215328.97689  43.58036   19.3808  58733.31641    50.27602       43.49279    38.0674  45.68088   45.5     0.2332  -19.86384  0.99945 
   -7.57427  0.00164   5.12894     13.49327  1.85471  1.31851  1.91231   0.1081     0.01064   5837.78886   6201.96244  0.72004         4374.68656     17.35297  0.00013   58685.8437  0.38876  0.00313   46730817.34507  43.44746  19.28387  58733.00446    50.38023       43.65985   30.74786  40.31129   53.0    0.22678  -19.95269  0.99945 
   -5.14068  0.03475   3.60506      13.1578  1.30614  1.54877  1.31832   0.1377     0.03545   9724.08842   8139.79831  0.01684         4495.88614     17.70651  0.00028  58688.27729  0.74361  0.04581   76213871.60085  43.38898  19.32106      58734.3    50.32682       43.59273   35.52957  40.44031   40.5    0.25857  -20.07736  0.99272 
    -5.8709  0.26304   5.97948     13.87956  1.74556  0.52823  2.46262  0.12266     0.01144   6486.83751   6030.99539  0.47069         4368.08744     18.35264  0.00125  58687.54707  0.61814  0.64776   10091718.20125  43.95349  19.38239  58733.00446     50.3776       43.59797   30.45392  49.00129   50.0    0.24267  -19.98149  0.86265 
   -9.25691  0.00323   6.96948     14.22793  1.65649  0.33715  0.94522  0.22882     0.03567     5269.645   5941.21265  2.28336         3161.52621     19.95085  0.04961  58684.16106  0.15657  0.00305    2615392.99013   44.3841  19.41776  58733.00446    50.37012       43.64659   32.42932  38.62983   58.0    0.17554   -19.8239  0.99901 
   -6.80953  0.22153    7.5374     14.18411  1.66753  0.51546  2.99852  0.16093     0.01215   7370.54787   8957.21569  4.03359         2462.17593     18.03503   0.0006  58686.60844   0.9717  0.66426     3768028.8729  44.16036  19.48032  58733.31641    50.37661       43.59959   30.45392  49.00129   34.0     0.2588  -20.04994    0.809 
   -8.50874  0.07066   7.30639     13.94323  1.82624  1.04658  1.15553  0.23239      0.0285    6735.1594   7095.96065  0.38334         2555.19736     19.42624  0.01482  58684.90923  0.31268  0.08165    11757451.9517  43.73268  19.39935  58733.31641    50.34233       43.60816   32.99175  40.60523   42.5    0.26454  -19.98676  0.97661 
   -7.25491  0.13981    6.8532     13.79284  1.87639  1.36295  2.22356  0.15142     0.01331   6983.18366   6808.81379  0.00044         5246.98166     17.84031  0.00038  58686.16305  0.64682  0.31087   21244589.42293  43.54313  19.50937  58728.30078    50.29971       43.58675   30.45392   38.0674   43.5    0.27704  -19.98106   0.9252 
   -4.69015  0.00214   5.41019     13.60289  1.51595  1.32062  1.37111  0.08511     0.02021   6819.17654    8739.9801    0.068         2555.15281     18.28733  0.00108  58688.72782  0.38033  0.00293   25653270.71376  43.57396  19.47101  58735.96255    50.31892       43.47835   38.47578   53.0275   39.0    0.21508  -19.96945  0.99933 
   -5.10149  0.00104   5.60007     13.64845  1.64983  1.35771  0.82353  0.11617     0.02304   6136.95152    8559.9369  0.07015          3785.8708      18.8675  0.00409  58688.31647  0.18502  0.00086   24251422.97203  43.60516  19.53154  58735.96255    50.34986       43.52892   34.03199  54.93347   40.5    0.21807  -19.91307  0.99982 
   -7.40973  0.00232   8.33597      14.1663  1.69385  1.43119  1.78632  0.23815     0.02849   5291.02705   8275.54443   4.4399          2482.7711     18.05321  0.00063  58686.00824  0.29831  0.00415    5081610.16753  43.94981    19.341  58730.52237    50.33823       43.60621   32.99175  40.60523   41.0    0.20676  -19.87779  0.99837 
    -6.4489  0.00166   6.00232     13.83257  1.71242  0.70996  1.29968  0.14766      0.0105   4765.18016   6809.50457  3.48115         3019.23851     18.89004  0.00431  58686.96907  0.17604  0.00216   12385899.76114  43.85289  19.34212  58733.31641    50.37323       43.67146   30.45392   38.0674   51.5    0.23302  -19.86728  0.99949 
   -6.71061  0.00103   5.11452     13.74699  1.60739  0.61346  2.67842  0.09132     0.01018    7031.6547   7648.93632  2.60143         2532.55945     18.68856  0.00271  58686.70736  0.78999  0.00277   12518888.22182  43.95979  19.36682      58734.3    50.39036       43.55363   34.03199  54.79195   44.5    0.25823  -20.00836  0.99945 
    -6.7236  0.00288   2.40756     12.87088  1.87441  0.92764  1.85153  0.11686     0.01819   7947.75916    6059.5262  1.31548         2068.87009     18.24343  0.00097  58686.69437  0.69767  0.00534  182839221.96688  43.51649  19.43561  58730.52237    50.25718       43.52241   32.42932  43.54056   56.5    0.23153  -19.95266  0.99951 
   -4.71912  0.00337   5.63315     13.74976  1.48483  0.81869  1.10773  0.12292     0.02154   6210.23693   6546.26649  3.94778         2055.05354     18.77377   0.0033  58688.69885  0.25485  0.00373   13850937.59955  43.79754   19.3496      58734.3    50.33789       43.58021   34.03199  44.64064   49.0    0.22192  -19.89531  0.99906 
   -4.06853  0.00214   7.52345     13.92808  1.57925  1.38385  2.05947  0.06275     0.01197   3952.06108   8299.78559  3.49063          3864.4617      20.7326  0.30014  58689.34944  0.19188  0.00441   11559283.09272  43.65153  19.34768  58733.00446    50.34934       43.64411   30.74786  40.14818   56.5    0.20375  -20.10681  0.99836 
   -7.02123  0.01273   6.99128     14.13073  2.10738  0.44262  1.20123  0.30421     0.01297   5180.95819    6503.4684  4.88966         3675.74566     17.39715  0.00014  58686.39674  0.19234  0.01529    5238514.23251  44.18427  19.36457      58734.3    50.36209       43.59684   34.03199  44.64064   46.5    0.27106  -19.99421  0.99634 
    -8.3333  0.00363   5.74346     14.26147  1.53107  0.23357  1.31609  0.14384     0.01737   5340.98555   6555.13741  1.20496         2897.28622     16.12541    1e-05  58685.08467  0.22395  0.00478    1406724.61599  44.78728  19.32378  58733.00446    50.33384        43.5775   32.99175  43.14306   53.0    0.19653  -19.87652   0.9988 
   -4.49262  0.12343    2.4608     13.28353  1.43731  0.35733  1.81923  0.09471     0.01234   7569.49131   8138.84567  1.34853         2349.65349     17.47716  0.00017  58688.92535   0.6218  0.22455   21900682.03977  44.30378   19.4037  58730.52237    50.38309       43.62964   27.41106  46.18592   45.0    0.26147  -19.98759  0.97857 
   -9.91032  0.02376   5.60538     13.58605  1.74862  1.22807  1.97955  0.12018     0.01279   6031.43474   7154.59523  3.23309         2285.08335     16.40201    1e-05  58683.50765  0.42957  0.04703     34326437.122   43.4787  19.62956  58727.08828    50.37122       43.63143   25.60071  45.45844   51.5     0.2129  -19.87372  0.99003 
   -5.19939  0.22414  11.24084     14.42424  1.94954  0.94186   4.0532   0.0662     0.01273   5567.17523   6905.50794  1.28951         3073.37149     19.20265  0.00886  58688.21858  0.74937  0.90846    3242373.92719  43.94632  19.39045  58735.96255      50.469       43.75723   27.91609  40.60523   51.5    0.20921  -19.88741  0.65464 
   -7.87428  0.00175   6.87293     13.85118  1.44922  1.33046  2.00084  0.26596     0.02602   7552.69309   8706.72663   4.8078         2797.42601     18.93843  0.00482  58685.54369  0.68084   0.0035   12614541.92659  43.65482  19.45583  58733.31641    50.39869       43.59893   27.41106   53.7994   36.0    0.22324  -20.04456  0.99875 
   -5.35746  0.12391   8.31968     14.24301  1.55104  0.64997  2.47946  0.09507      0.0231   6301.42056   8284.28884  0.66779         3731.65959     16.15434    1e-05  58688.06051   0.5873  0.30723    3255663.48716  44.10661  19.36564  58733.31641    50.39748        43.6149   32.42932  46.24331   44.0    0.23443  -19.93797  0.87637 
   -6.90109  0.05746  10.41017      14.5725  1.90998  0.43599  3.53077  0.13036     0.01502   6519.46748   9047.93034   4.2472         3513.12607     17.60176  0.00022  58686.51688   0.8952  0.20287    1376426.82569   44.3762   19.3388  58735.96255    50.31652       43.58414    38.0674  40.44031   38.0    0.21134  -19.96626  0.90376 
   -4.70097  0.00577   6.89513      13.9494  1.77988  0.80255  1.08711   0.1388     0.02444   6295.66109   6425.33383  4.49149         2136.64898     16.53749    2e-05    58688.717  0.25703  0.00627    9919305.48182  43.84567   19.4808  58733.31641    50.35648       43.59999   30.45392  45.68088   48.0    0.22789   -19.9281  0.99826 
   -5.58646   0.0031   7.59144     14.10333  1.44745  1.01751  1.40129  0.25377     0.05418   6428.42629   7576.05918  1.77016         2414.41325     17.20879    9e-05   58687.8315  0.34543  0.00435    4813013.08624  43.98639  19.58622  58730.04637    50.31755       43.48028   30.45392  57.51354   43.5    0.23208    -19.926  0.99819 
  -10.68589  0.07874   4.73989     13.29814  1.93916  1.30719  3.54789  0.12069     0.01206   7640.21203   6945.77328  4.66229         3473.29769     18.31413  0.00115  58682.73208   1.2354  0.27935  102489717.00851  43.19424  19.34932  58730.52237    50.36773       43.55181   30.91479  51.31896   54.0    0.25618  -19.85514  0.94876 
   -3.96857  0.29468   7.39684     14.32495  1.67514   0.2696  3.16603  0.06576     0.01125   6748.17309   6044.97997  3.66118         2255.13982     18.98637  0.00538   58689.4494  0.86003  0.93298    1905706.87188  44.47475  19.39626      58734.3      50.368       43.61754   32.42932  43.70548   51.0    0.21594  -19.93449  0.74479 
   -5.15576   0.1752   9.28172     14.11881  1.78609  1.48618  2.80184  0.09716     0.01511   5815.17257   6876.00173  0.97845         3829.98205      20.0362  0.06038  58688.26221  0.56519  0.49089    8267142.80539  43.66814  19.31732  58730.52237    50.41258       43.59291   32.42932  47.02589   47.0    0.22771   -19.9745  0.81493 
   -7.44323  0.00458    8.6244     14.31304  1.86373   0.4661  3.19804  0.10689     0.01019    5032.8326   6519.91169  3.89679         3747.87908     18.55199  0.00198  58685.97474  0.48321  0.01465    3044969.46242  44.18419   19.3956  58730.52237     50.3469       43.49894   38.47578  52.88598   50.0    0.21859  -19.94674  0.99425 
   -7.40111  0.00362   8.99191     14.16363  1.71721   1.5379  3.69211  0.10779     0.01505   5497.64839   7317.88857  4.30186         3120.67986     17.60807  0.00023  58686.01686  0.66566  0.01335      6068641.659  43.81287  19.45839      58734.3     50.3797       43.63161   32.99175  42.97813   45.0    0.22794   -19.9262  0.99399 
   -6.51679  0.00105   5.42009      13.7562  1.53243   0.6717  2.19311  0.10576     0.01327   6678.97336   6923.62083  2.63936         2916.97547     17.03935    6e-05  58686.90118  0.58359   0.0023   12847035.08252  43.87741  19.37119      58734.3    50.36531       43.61356   35.52957  42.97813   48.0    0.24475  -20.00556  0.99946 
   -6.50205  0.07613   9.12899     14.81482  1.79682  0.21675   2.3706  0.11808     0.02054   5836.93709   7743.31251  0.68211         3339.23369     18.63761  0.00241  58686.91592  0.48179  0.18048     326236.75023  45.08897  19.43439  58733.31641    50.35252       43.61063   32.42932  43.54056   43.5     0.2256  -19.87901  0.92654 
   -5.79353  0.00248   8.71019     14.17434  1.79356  1.25721  3.19154  0.08952     0.02222   6316.56904   6807.98949  2.41256         2373.01465      18.8569    0.004  58687.62444  0.75961  0.00793    5661287.05566  43.88959  19.26545  58733.00446    50.34122       43.62917   32.99175   38.0674   47.5     0.2305  -19.95736  0.99686 
   -7.10798  0.03838   6.83734     13.99031  1.47531  0.76824  2.66546  0.16865     0.01383   6751.05389   7410.81388  0.47818         4303.36921     16.48862    2e-05  58686.30998  0.72467  0.10231    6696676.44757   43.9421  19.42909  58733.00446    50.32422       43.53963   34.03199  47.17847   39.5    0.28027  -19.99598  0.96587 
   -5.36088  0.05624   5.87792     13.72637  1.84084  0.80876  4.20993  0.08786     0.01146   9454.92094   9269.98773  0.30934         3648.58536     18.61726   0.0023  58688.05709  2.24501  0.23675   20823206.39811  43.67687   19.3511  58730.52237    50.40147       43.74678   27.91609  33.68848   41.0    0.24313  -20.01198  0.95031 
   -6.42441  0.00429   1.30623      12.4347  2.00231   0.8228  1.96229  0.12285     0.01095   7766.27019   5829.81753  1.73886         2185.31338     16.87448    4e-05  58686.99355  0.70602  0.00841  428533418.14015  43.70635  19.37179      58734.3    50.36127       43.64826   30.91479  38.62983   54.0    0.26147  -20.03648  0.99952 
   -9.33645  0.00144   5.49779     13.79106  1.68565  0.73592  1.57635  0.20861     0.01273   5874.10361   6943.89404  3.67035          2086.0155      18.2327  0.00095  58684.08151  0.32446  0.00227    12383528.5077  43.92239   19.4706  58733.00446    50.30714       43.52083   32.99175  48.21871   47.5    0.22912  -19.94495  0.99954 
   -4.62998  0.00117   6.74352     13.76368  1.81908  1.18557  1.18475  0.17357     0.01802   5848.22357   7771.36663  3.50793         3012.98308     16.19853    1e-05  58688.78798  0.24171  0.00139   22807822.99255  43.51284  19.35665  58733.31641    50.34965       43.53733   38.47578  49.46578   45.5    0.25528  -19.90427  0.99962 
   -7.65727  0.03983   5.56835     13.79184  1.27953  1.37006  2.65654  0.30576      0.0111    6861.0259   8831.42508  2.88621         2680.56524     17.55641   0.0002   58685.7607  0.74597   0.1058    9608288.39897   43.9018    19.366  58733.00446    50.42282       43.70175   24.08618  42.92061   33.5     0.2497  -20.07896  0.97173 
   -7.44515  0.39876   9.81151     14.34169  1.70228  1.54315  2.94752  0.28526     0.01545   6478.11247   8548.87213   4.8761         2566.87751     17.99862  0.00055  58685.97281  0.73787  1.17535    3154484.68541  44.01748   19.3853      58734.3    50.30772       43.56576   34.03199  42.10282   36.0     0.2113  -19.93133  0.61471 
   -6.20837  0.01003   6.07105     13.91087  1.66725  0.59341  2.37786   0.1156     0.01201   6238.17015   6146.93593  4.86584         2301.15587     16.07819    1e-05   58687.2096  0.55199  0.02385    8601923.54748  43.98972  19.33671  58733.31641     50.3622        43.6358   32.42932  40.97683   50.0    0.22323  -19.92728  0.99407 
   -5.13137  0.00258   7.30545      14.2768   2.0871   0.2996  2.41299  0.10647     0.01319   6531.79146   6516.98147  4.98111         3733.09333     18.62778  0.00236  58688.28659  0.61411  0.00623    2891047.78269  44.40004  19.35573  58735.96255    50.35193       43.61509   34.03199   41.9379   48.5    0.27115  -20.03811  0.99829 
   -7.33961   0.0811   7.58959     13.82821  1.54543  1.35554  2.42678  0.27924     0.05125  10927.04254   9442.70732  4.22166         3292.65461     17.78235  0.00034  58686.07836  1.72847  0.19681   18233975.89495  43.43658  19.48834  58733.31641    50.32834       43.56195   34.03199  44.64064   46.0    0.18279  -19.90411  0.92498 
   -5.16862  0.31974  10.81304     14.30292  1.98469  1.39563  2.37405  0.16131     0.03404    6733.0202   9445.72878  4.01492         2055.84555     17.72851   0.0003  58688.24935    0.642  0.75907    5340283.30221  43.77108  19.38603  58733.31641    50.36854       43.54188   34.03199  52.25412   37.5    0.22355  -19.96899  0.71477 
   -8.53639  0.26533   5.77428     13.80907  1.58287  0.50224  2.44225  0.21749     0.01842   7630.83001   6232.86241  0.86605          4394.6741     18.36007  0.00127  58684.88157  0.84832  0.64801   11806243.29792  43.87318  19.47738  58735.96255    50.40745       43.61106   26.40156  53.29436   49.5    0.24779  -19.94695  0.84656 
    -9.5369   0.0019   2.74767     13.24281  1.90298  0.45274   2.2751  0.16828     0.01497   7870.23084   6123.04754  0.65173         2994.77706      17.5089  0.00018  58683.88107  0.84063  0.00432   43607166.51292  44.03079  19.50454  58733.31641    50.39053        43.5105   36.56981  57.32978   55.5    0.24739  -19.91352  0.99956 
