 log(Bfield)      Mns     Pspin  cutoff_power  cutoff_wavelength  fnickel    kappa  kappagamma   mejecta  log(nhhost)  temperature  texplosion  thetaPB     vejecta      A_V        MJD_0   log(KE)     M_Ni  Peak_mag     Peak_MJD 
    14.43848  1.83303  10.58151       3.61408         4857.25248  0.00151  0.05521     0.42324   5.63317     16.16769   7837.46052   -16.48342  1.02705  2285.38991    1e-05  55913.04658  51.25996  0.08838    17.936  55959.19103 
    14.70932  1.55541    2.3915       3.18032         5174.61044  0.00897  0.01362     0.04271  46.62567     18.52674    8318.4546    -5.13196  1.51856  2082.51155  0.00187  55924.39804  51.36202  0.79764  17.90343  55962.05406 
    14.52523  1.35544   5.87088        3.3035         4707.56454  0.01266  0.01721      0.0447  38.74738     19.85193   6081.86069    -7.26295  1.13384  2846.79805  0.03951  55922.26705  51.62029  1.09274  17.95249  55962.05406 
    14.56323   1.5475    8.0039       3.82235         4834.69689  0.00383  0.01061     0.42479  53.78282     19.57355   5720.59324   -12.11267  0.79947   2281.5972  0.02081  55917.41733  51.45129  0.34822  17.95399  55953.46496 
    14.35469  1.59752   7.91554       3.12218         4919.95787  0.00159  0.03383     0.38405  13.61032     17.50071   6956.25146    -18.8075  1.51259  1871.08285  0.00018   55910.7225  51.17204  0.11306  18.05217  55964.91709 
    14.71566  1.83397   7.51573       4.69746         4484.04552  0.02909  0.03408      0.2279  18.39899     17.21869   6907.65749     -5.4247  1.50013  2908.42794    9e-05   55924.1053  51.58099  2.19654  18.08633  55964.91709 
    14.81612  1.76669   4.01938       3.41232         4774.55244  0.01188  0.01221     0.47342   46.6743     17.82442   7605.15337    -5.04778  1.33184  2421.28984  0.00037  55924.48222  51.49301  1.05731  18.03109  55962.05406 
    14.49193  1.45605   8.39277       4.86857          4665.8145   0.0025  0.06348       0.055   5.73202     19.77356   5538.05394   -11.57113  0.64794  2379.09732  0.03298  55917.95887  51.29673  0.14647  17.94337  55962.05406 
    14.82886  1.62086   8.60122       2.90693         4640.47393   0.0094   0.0449     0.28157  15.86331     18.09469   5617.54141    -17.9006  0.34647   2869.0124  0.00069   55911.6294  51.55663     0.69   18.1243  55964.91709 
    14.65355  1.81907   8.58283       3.49582          4915.6352  0.00257  0.01328       0.047  40.38098      17.0737   7314.51034   -10.64245  0.84445  2133.37341    7e-05  55918.88755  51.37271  0.22308  18.06707  55964.91709 
    14.47754  1.60021   8.97899       4.85078         4710.39819  0.00344  0.01076      0.0921   46.2082     17.83882   6103.62478   -12.55909  1.07066  1958.84791  0.00038  55916.97091  51.30821  0.30526  18.02489  55959.19103 
    14.80844  1.72384   1.65908       3.13408         4883.01318  0.00404  0.01025     0.27784  92.08112     16.70993   6674.71132    -5.31759  1.28542  2518.41393    3e-05  55924.21241  51.57267   0.3989  18.05113  55962.05406 
    14.31238  1.60976     10.23       4.75196         4560.38495  0.00421  0.04934     0.13392   7.16327     16.81098   6661.12302   -16.00162  1.13006  2524.34567    4e-05  55913.52838  51.37144  0.26045  18.19339  55964.91709 
    14.86797  1.76416   7.25163       4.18362         4872.57233  0.00262  0.01608     0.25316  34.66707     18.61749   7018.06974    -7.91541  0.53361  1899.94508   0.0023  55921.61459  51.26089  0.22191  18.13429  55967.78013 
    14.91289  1.65001   6.95852       1.75687         5340.11292  0.00296  0.02449      0.0371  18.75602      20.6972    7294.0776   -15.54188  0.26565  2340.88674  0.27665  55913.98812  51.39403  0.22408  18.06554  55962.05406 
    14.39414  1.70868  10.06849       2.24629         5300.20067   0.0044  0.01026     0.33927  36.85565     16.25233   6812.83329    -13.7706  1.48697  2274.56933    1e-05   55915.7594  51.42172  0.37642  17.98172  55962.05406 
     14.6097  1.65025  10.24784       4.66977          4691.4939  0.00282  0.08383     0.03236   5.07362     17.77356   4792.48996    -14.1679  0.47431  2710.24356  0.00033   55915.3621  51.39666  0.16046  18.05863  55964.91709 
    14.46349  1.80892    9.5927       3.18573         4816.27975  0.00259  0.01448     0.04663  23.09188     19.24466   7984.70174   -16.20367  1.08597  2011.83163  0.00976  55913.32633  51.27935  0.20395  18.01048  55964.91709 
    14.50181    1.851   9.05222       2.03535         5322.96521  0.00218  0.01054     0.06832  48.09492     16.31654   5192.16948   -13.07385  1.28313  2167.82019    1e-05  55916.45615  51.39908  0.19506  18.02389  55962.05406 
    14.62689  1.92957   7.24234       3.72396         4614.74194  0.00897  0.06272     0.11416  15.44007     16.22048   6931.25332    -11.1296  1.56801  2635.80619    1e-05   55918.4004  51.48067  0.65432  17.98115  55962.05406 
    14.36511  1.57881   9.46291       4.98145         4538.85892  0.00234  0.07946     0.44432    4.9331     16.64148   5629.23588    -11.0348   1.0805  2528.38825    2e-05   55918.4952  51.33322    0.132  18.05948  55962.05406 
    14.72411  1.36523   4.51577       3.33879         5087.85532  0.01933  0.01289     0.33872  29.16586     17.86548   7769.26602    -3.89839  0.95839  2026.04786  0.00041  55925.63161  51.30369  1.58865  18.01559  55962.05406 
    14.84661  1.92241  10.79548       4.83292         4780.06068  0.00178  0.02424     0.09074  14.37745     16.95103   6818.31852   -14.37865  0.41631  1916.28633    5e-05  55915.15135  51.19758  0.12773  18.12194  55962.05406 
    15.08817  1.67667   7.68927       4.98765         4812.56172   0.0016  0.02056     0.01501  30.18273      17.3161   6425.63705     -9.2668  0.24272  2053.02922  0.00012   55920.2632   51.3178   0.1319  18.03773  55962.05406 
    14.61448  1.73325   9.46202       3.81649         5077.45849  0.00223  0.01587     0.05276  21.08189     19.77385   6930.52634   -12.56578  0.68625  1747.31899  0.03301  55916.96422   51.1496  0.17265  18.06836  55964.91709 
    14.81083  1.57421   3.14395       4.46714         4887.70864  0.00175  0.02666     0.01296  29.33864     16.12628   7813.58761    -5.18264  0.69628  1900.34724    1e-05  55924.34736  51.24851  0.14369  17.91959  55959.19103 
    14.75517  1.45326   8.67598       4.46792         4660.52263  0.01948  0.01817     0.19887  22.36887     20.26222   5808.96775    -9.08521  0.46769  2418.44278  0.10161  55920.44479   51.4367  1.52632  17.88211  55959.19103 
    14.65724  1.51556   3.41108       3.10304         5134.27295  0.00755  0.01167     0.10331  39.26834     18.76864   7003.85065    -7.24626  1.07561  1693.56392  0.00326  55922.28374  51.17015  0.65323  18.02031  55962.05406 
    14.75632  1.39693   7.93091       3.12193         4979.54674  0.00102  0.01353     0.02111  30.45379     16.99948   6818.90775    -9.03479  0.35123  2271.05106    6e-05  55920.49521  51.40614  0.08423  17.96491  55962.05406 
    14.76601  2.01618  10.25241        4.2649          4763.8522  0.00592  0.01754       0.108  26.30828       18.982   6817.95135   -14.33145  0.69255  1962.45664  0.00533  55915.19855  51.26804    0.478   18.1096  55964.91709 
    14.35039  1.33802   7.72173       4.60892         4687.92722  0.00586  0.01769     0.31328  27.76633     17.10613   8100.72232   -10.87196  1.13691  2293.68238    7e-05  55918.65804  51.40769  0.47765  17.93859  55962.05406 
     14.8269   1.7924   8.05162       3.83409         4890.84518  0.00136  0.01592     0.13321  35.29454     16.14364   4698.98598   -12.58018  0.52139  1964.92775    1e-05  55916.94982  51.29143  0.11544  17.98166  55959.19103 
    14.41561  1.90366  11.05991       3.56398         4605.91354  0.00707  0.03846     0.11074  11.78062     18.66032   5140.46782    -8.69344  1.49892  3425.67472  0.00254  55920.83656  51.68441  0.48847  18.09279  55964.91709 
    14.48911  1.98618  10.65956       4.59826         4679.92382  0.00535  0.01477     0.02538  32.45262      16.3724   9001.26865   -18.59879  1.39266  2487.84924    1e-05  55910.93121  51.49013  0.44806  18.00588  55962.05406 
     15.0021   1.5685   9.32931       3.59129         4915.40964  0.00369  0.02221     0.04675  18.99058     18.24597   5936.35297    -13.0245  0.20667  2481.38582  0.00098   55916.5055  51.44569  0.28047  18.09346  55964.91709 
      14.769  1.57204    2.4622       4.66928         4609.86819  0.01015  0.02585     0.08662  30.10354      17.9389   8529.08456    -3.01511  1.09485  2153.75778  0.00048  55926.51489   51.3592  0.83908  18.10038  55967.78013 
    14.80592  2.07779   5.21511       3.58445         4848.53558  0.00458  0.02032     0.22106   30.5317     18.30069   7551.02989    -5.70855  1.24184   1888.4881  0.00111  55923.82145  51.24611  0.37935  18.11377  55964.91709 
    14.40752  1.72681   8.91342       3.63942         4706.05491  0.00165  0.01804     0.07441  34.40939     16.38379   5821.41869   -15.95953  1.53748  2536.80111    1e-05  55913.57047  51.51142  0.13949  17.96488  55962.05406 
    14.52109  2.02392  10.93141       3.06204         5050.55608  0.00154     0.01      0.0337  29.85986     16.71656   5825.62765   -10.57939  1.36039   2061.3342    3e-05  55918.95061  51.32049  0.12683   18.0172  55959.19103 
    14.42689  1.83314   9.13035       2.57067         5084.53339  0.00196  0.06758     0.01076   5.78545     17.11327    7920.6663   -16.15477  1.34988  2249.31622    7e-05  55913.37523    51.249   0.1152  17.98618  55962.05406 
     15.0843  1.77022   3.59326       4.17376         4856.90281  0.00752  0.01098     0.11802  51.50959      19.4587   6825.07693    -2.29892   0.5094  2095.31903  0.01597  55927.23108  51.37432  0.67976  18.06044  55962.05406 
    14.38569  1.86962  10.78882       4.97341         4562.05231  0.00111  0.05166     0.19581   9.05208     16.08237    6130.8463   -14.85123  1.44968  2535.51955    1e-05  55914.67877  51.39841  0.07223  18.00894  55962.05406 
     14.5605  1.68045   7.85299       4.26389         4739.39623  0.00197   0.0175     0.10646  30.73354     19.33726   5920.57895   -10.98241  0.94886  2193.78298  0.01208  55918.54759  51.37677   0.1631  18.06629  55962.05406 
    15.03492  1.71477   0.96287       3.15912         4959.29851  0.01251   0.0177     0.18854  38.45544     17.45912   7909.49217    -3.37022  0.77427  2247.55288  0.00016  55926.15978  51.41445  1.07837  18.04699  55964.91709 
    14.63184  1.79072  10.23931       3.37822         4591.54613  0.00153  0.01943     0.16682  21.97538     18.70967   6613.97935   -13.64631  0.56903  2794.07079  0.00285  55915.88369  51.56068  0.11968  18.11366  55964.91709 
    14.35633  1.50508     7.757       2.03475         5029.07837  0.00386  0.01377     0.01459  36.65226     18.76457   7784.39465   -13.77948   1.5328  2422.39847  0.00323  55915.75052  51.47601  0.32957  18.03916  55956.32799 
    14.28817  1.52206   8.31998       3.04841         4840.64882  0.00103   0.0349     0.01511  14.98899     19.95035   7105.55595   -14.19371  1.25828  2618.70215  0.04955  55915.33629  51.47246  0.07493  18.03637  55962.05406 
    14.36096  1.56968   8.77422       3.88016         4685.50606  0.00245  0.01359     0.01114  29.93019     19.10339   7323.69285    -14.5083   1.3613   2105.0256  0.00705   55915.0217  51.33888  0.20227  17.99844  55962.05406 
    14.97488  1.71424   7.74726       3.80967         4938.75632  0.00141  0.03328     0.01013  21.40708     17.51903   6578.71254    -9.61608  0.33071  2363.56407  0.00018  55919.91392  51.41323  0.10921  17.90637  55959.19103 
    14.79455  1.70993   4.99316        4.3122         4743.47054  0.01641  0.01713     0.04727  30.66054     16.35287   6018.29421    -4.06237  1.06643  2366.82195    1e-05  55925.46763  51.44253  1.36047  18.19068  55962.05406 
    14.73857  1.78917   6.60607       3.84155         4940.60473    0.001   0.0109     0.01226  44.65457     19.84448   9986.40685    -17.9939  0.64339  1600.29327  0.03883   55911.5361  51.13019  0.08875  17.99673  55962.05406 
     14.5025  1.69251   9.54051       3.54244          4931.7567  0.00113  0.08842     0.03158   4.53817     20.12626   5274.08935    -14.6244  0.73767  2099.82119   0.0743   55914.9056  51.16251   0.0626  18.18611  55964.91709 
    14.45612  1.65468    9.6556       4.03932         4740.59588  0.00898  0.01973     0.02179  22.42178     18.44579   7683.96071    -12.8029  1.12351  2285.56062  0.00155   55916.7271   51.3878  0.70403  18.03883  55962.05406 
    14.56049  1.63208   8.43927       3.89501         4964.03449  0.00154   0.0125     0.02096  35.17499     19.32292   7665.27796   -10.66638  0.85331  1877.69983  0.01169  55918.86362  51.25173  0.13107  18.10909  55964.91709 
    15.01015  1.98963   0.74821       4.81751         4596.46909  0.01189  0.01862     0.01363  38.33056     16.15988    9150.7327    -0.18215   1.3937  2234.44044    1e-05  55929.34785  51.40913  1.02426  17.99448  55964.91709 
    15.04621  1.55399   5.52043       3.63277         4923.79158   0.0089   0.0167     0.08168    40.271     19.40053   5730.80136    -5.20978  0.34914  2354.51834  0.01397  55924.32022  51.45818  0.77284  18.04658  55962.05406 
    14.69614  1.60881   8.99335       4.89892         4679.77088   0.0011   0.0439     0.03918   8.05645     17.58762   7891.27591     -15.067  0.46308   2013.4287  0.00021    55914.463  51.18678  0.07018  18.08554  55962.05406 
    14.53673  1.96977  10.20045       3.48451         4960.59088  0.00304  0.02162     0.03795   18.7754     16.84197   5332.88425   -15.24527  1.04606  2319.95717    4e-05  55914.28473  51.38632  0.23015  18.12915  55964.91709 
     14.5085  1.74936   8.40654       4.57061         4751.97165  0.00159  0.01959     0.02787  26.14297     20.58722   7005.69626   -11.56526   0.8706  2387.61676  0.21476  55917.96474  51.43788  0.12799  17.92039  55962.05406 
     14.3274   1.4742   7.78479       3.94531         4885.94145  0.00127  0.05721     0.02182   8.36168     16.36242   5595.67712   -12.10639  1.41647  2203.23341    1e-05  55917.42361  51.26869  0.08127  18.03721  55962.05406 
    14.65082   1.4035    7.0617       3.96614         4808.63845  0.00329   0.0101      0.2329  60.04256     17.77865   3892.06694   -11.49333  0.60736  2105.91822  0.00033  55918.03667  51.38923  0.30476   18.1559  55962.05406 
    14.49011  1.81957    9.9601       3.36848         4913.49997  0.00127  0.01023     0.01813  38.56942     18.09216   7290.26788    -14.3171  1.19854  1849.18653  0.00069   55915.2129  51.24521  0.10952  18.08657  55959.19103 
    14.69743  2.01704  10.45957       3.67182         4695.36002  0.00131  0.02678     0.12116  19.38992     20.40551     9111.839   -13.91757  0.59023  2455.13599  0.14133  55915.61243  51.43817  0.09977  18.16396  55962.05406 
    14.69419  1.83768   5.22448       3.73495         4807.34481  0.00775  0.02856     0.11749  30.04594      17.0888   6134.04704    -6.08548   1.4325  2484.46821    7e-05  55923.44452  51.48313  0.64007  18.01739  55962.05406 
    14.46695  1.79906   9.76984       3.98285         4639.65128  0.00192  0.01468     0.05889   34.0579     18.15883   6511.23395   -18.72179  0.95447  2546.22298   0.0008  55910.80821  51.51388  0.16177  17.97672  55959.19103 
    14.39307  1.78036   9.79935       3.80518         4937.75101  0.00218  0.01519     0.30411   26.6281     19.51406    5618.9176   -14.46554  1.56322   2319.9843  0.01815  55915.06446  51.41435  0.17607  18.02914  55964.91709 
    14.43203  1.63438     7.918       3.75687         5029.43531  0.00231  0.01259     0.10398  37.55026     18.69685   6806.17503   -12.75574  1.52959  1923.64927  0.00276  55916.77426  51.27754  0.19871  17.99764  55959.19103 
    14.97208  2.11784   4.55167       3.92976         4916.40253  0.01067  0.01321     0.19976  36.38638     19.63722   7438.56997    -2.26959  0.95547  2133.08588   0.0241  55927.26041    51.365    0.911   18.0648  55962.05406 
    14.42143  1.61243   8.11217       3.01963         5105.44418  0.00172  0.04992     0.07294    7.7634     16.82986   8379.72765   -15.34201  1.15185  1867.16755    4e-05  55914.18799   51.1176   0.1086  18.11488  55964.91709 
    14.59641  2.01712    9.1356       4.51662         4841.87369  0.00325  0.01473     0.05898  35.59431     17.39584   7134.41911   -11.72204   1.5698     2094.93  0.00014  55917.80796   51.3477  0.27633  18.21839  55962.05406 
    14.60502  1.55778   6.35245       2.11964         5469.29332  0.00138  0.01231     0.03419  36.55566      18.0183   6085.90414   -15.38026  0.71154   1699.7752  0.00058  55914.14974   51.1681  0.11826  18.17541  55964.91709 
    14.61326  1.99576   8.70399        4.0626         4753.03899  0.00334  0.02744     0.27183  24.02571     17.70951   5594.34643   -10.02428  1.43688  2272.94922  0.00028  55919.50572   51.3885   0.2651  17.87765  55962.05406 
    15.02122  1.66331   1.06228       3.35662          5114.8971  0.00619  0.01571      0.1603  49.13579     19.62632   7210.58249    -2.33817  0.65965   2123.2812   0.0235  55927.19183  51.38255   0.5554  18.08975  55962.05406 
    14.58535  1.97915  11.26879       4.97801         4578.64879  0.00107   0.0203     0.10115  17.30881       19.988   6407.98446   -15.01623  0.67704  2339.17782  0.05404  55914.51377  51.38669  0.08017  18.14087  55964.91709 
    14.74742  2.00542  10.45997        2.3432         5142.34304  0.00145  0.05574     0.43312   8.68534     17.12041   4730.82029   -11.39615  0.57411  2369.40412    7e-05  55918.13385  51.33555  0.09361  18.10445     55968.09 
    14.93627  2.06701   8.68258       3.81193         4787.14857  0.00795  0.02001     0.01924  33.99852     16.74053   5500.91988    -10.4485  0.60063  2368.63847    3e-05   55919.0815  51.45095   0.6713  18.02035  55962.05406 
      14.638  1.72526   8.73814       3.86466         4724.94795  0.00133  0.01182     0.11339   38.9706     16.73434   7248.36589   -10.61718  0.67596  2144.15452    3e-05  55918.91282  51.37451  0.11493  17.99168  55964.91709 
    15.09753  1.97857   6.97037       3.72445         4812.68559  0.00703  0.01218     0.12894   40.8354     20.02719   9008.85004    -7.38081   0.4111  2097.95197  0.05914  55922.14919  51.35897  0.61184   17.9802  55959.19103 
    14.50789  1.77954   8.43622       4.88591         4530.35349  0.00362  0.02049     0.12277   30.4316     19.79315   4071.37169   -13.50207  1.30749  2457.08672   0.0345  55916.02793  51.47447  0.29934  17.98821  55962.05406 
    14.58892  1.57556   8.48049       3.33535         4963.48215  0.00597  0.01805     0.47754  25.33244     17.23211   8028.70992   -11.42096  0.73467  2242.08812    9e-05  55918.10904   51.3808  0.47846  18.03846  55967.78013 
    14.82301   1.5125   3.32532       4.71471         4650.05229  0.00331   0.0235     0.03501  30.15512       17.522   9265.14055    -4.07091  0.64825  1878.39212  0.00018  55925.45909  51.24051  0.27395  17.96824  55962.05406 
    14.46219  1.78059   9.38037        2.1181         5210.71143   0.0018  0.01585     0.24497  24.17581     18.80148    8517.6147    -20.3619  0.87857  2065.01346  0.00352   55909.1681  51.30566  0.14338  18.05052  55959.19103 
    14.65662  1.99349  11.49606       4.05356         4777.92448  0.00512   0.0102     0.01611  33.23999     16.62399   6059.76155   -10.21422   0.8929  1976.99337    2e-05  55919.31578  51.29229  0.43017  18.03884  55962.05406 
      14.485    1.838   8.34802        4.4269          4867.9276  0.00141  0.01212     0.05315  35.19304       19.848   8520.16407   -16.10035  1.39167  1685.02611  0.03915  55913.42965  51.15773  0.11959  17.87581  55959.19103 
    14.68085  1.57225    4.1851        3.5324         4990.58015  0.02051  0.02394     0.01163  23.04312     17.93265   6413.29198    -4.86228  1.26987   2312.7787  0.00048  55924.66772  51.40027  1.61542  17.99811  55964.91709 
     14.7956  1.65338     3.796       3.53954         4853.66917  0.00655  0.01205     0.29428  50.74037     20.46049   5897.40314    -4.21277  0.80096  2223.69362  0.16041  55925.31723  51.42493  0.59093  18.08341  55962.05406 
     14.6825  2.02564   9.55924       4.14538         4870.03902  0.00178  0.01055     0.05426  33.26626     20.05609   8069.21312    -9.27095  0.90957  1744.49818  0.06321  55920.25905  51.18368  0.14957  18.04679  55964.91709 
    14.57592  2.00524  11.19997       4.43601         4747.33532  0.00371  0.01014     0.01934  48.58483     17.83991   4394.11058   -14.78176  1.09285  2226.01983  0.00038  55914.74824   51.4228  0.33221  18.08526  55962.05406 
    14.51891  1.97686  11.02029       3.86102         4615.79566  0.00112  0.02397     0.14478  17.36125     16.72575   8199.98487   -12.05055  0.95971   2975.7726    3e-05  55917.47945  51.59602  0.08396  17.96629  55964.91709 
     14.6031  1.78802   7.44635       4.45202         4727.05993  0.00466  0.01008     0.43367   54.7797     16.60975   6171.80922   -10.17691   1.3354  2161.96569    2e-05  55919.35309  51.40578  0.42535  17.93843  55959.19103 
    14.77796  1.69461    8.7433       4.12039         4773.51538  0.00288  0.01054     0.04601  46.64481     19.10825   7945.79114    -9.20372  0.54505  2132.88256  0.00713  55920.32628  51.38281  0.25581  17.99376  55964.91709 
    14.43285  1.51822   6.90625       3.53963         4807.00599  0.00142   0.0124     0.01625  42.61766     18.26695   8234.54351   -12.44255  1.25328  2090.92231  0.00103  55917.08745  51.35913  0.12431  18.23968  55964.91709 
    14.80421  2.03853  11.13266       4.10899         4737.66212  0.00146   0.0185     0.05511  19.33289      17.9402   5848.09033   -12.96484  0.52468  2030.96453  0.00048  55916.56516  51.27318   0.1112   18.1718  55962.05406 
    15.17176  1.67154   9.99557       3.76129         4972.68105  0.00186  0.02273      0.0179  15.29052     17.59246   6873.64353   -10.02469  0.15504  2116.19391  0.00022  55919.50531  51.28912  0.13568  18.11706  55967.78013 
    14.62101  2.03742   8.17518       4.83335         4816.41443  0.00136  0.06851     0.21851   8.33952     19.97399   8644.22698     -9.1492  1.49688  1868.70271  0.05233   55920.3808  51.12539  0.08685   18.0606  55964.91709 
     14.5856  1.94894   9.78994       4.98677         4675.90904   0.0069  0.01412     0.01028  34.06573     17.56784   4787.83594   -13.68453  1.20797  2235.83468  0.00021  55915.84547  51.40098  0.58227  17.97752  55959.19103 
    14.43818  1.77541   9.29892       2.93152          5217.5847  0.00126  0.01173     0.11304  24.48496     17.12035   7843.58256   -11.50778  1.54136  1748.10386    7e-05  55918.02222  51.16195  0.10047  18.10014  55962.05406 
     14.5182  1.83988   6.88426       3.57837         5021.36594  0.00105  0.01089     0.01605  38.64079     20.62288   7995.12688   -10.56578  1.38206  1690.30853  0.23314  55918.96422  51.16731  0.09046  18.08765  55964.91709 
    14.85329  1.86817    2.5877       3.14061         4650.48982  0.02353  0.02996     0.22848  22.02275     16.20058   7228.42184   -10.75225  1.19119  2459.57336    1e-05  55918.77775   51.4501  1.83814  18.02809  55962.05406 
      14.848  1.63873   9.67324       4.30347         4808.88194  0.00122  0.04471     0.02315   9.01838     16.21089   6228.36006   -14.35415  0.30994  2138.56402    1e-05  55915.17585  51.25016  0.07955  18.04042  55962.05406 
    14.24197  1.29819   7.54819       2.84498         4927.32174  0.00129  0.01137     0.14396  34.31116     17.57949   8441.78068   -14.67192  1.18209  1979.06952  0.00021  55914.85808  51.29556  0.10876   18.0518  55959.19103 
    14.53755  1.54453    8.5549       4.82971         4724.67268  0.00208  0.01375     0.34006  30.09198     18.87921   5229.94593   -11.17485  0.79316  1982.92401  0.00421  55918.35515  51.28739  0.17164  17.87444  55962.05406 
    14.65101  1.61968   5.19028       4.48342         4843.38026   0.0025  0.01005     0.12475  65.10616     18.15405   7631.75238    -5.57876  1.11045  1908.04347  0.00079  55923.95124  51.30898  0.23484  18.13724  55964.91709 
    14.56666  1.57971   6.75066         3.566         4961.52956  0.00448  0.01344     0.06931   37.7542     20.05506    6957.4267   -12.94625  0.86979  1927.44585  0.06307  55916.58375  51.27965  0.38496  18.05836  55964.91709 
    14.68375  1.63208   7.60074       3.02849         4949.50938  0.00102  0.01474     0.36162  34.07024     19.70895   5651.34791    -9.66618  0.60808  2052.25854  0.02842  55919.86382  51.32658  0.08653  18.15853  55964.91709 
    15.04656  2.11367   3.09892       3.95917         4634.57344  0.00957  0.01193     0.26849  61.96552     18.82411   5775.42525    -2.84911  0.92219  2748.87904  0.00371  55926.68089  51.62279   0.8908   18.0901  55959.19103 
    14.69207  1.69336   6.17898       4.71717         4637.82053  0.01217  0.02213     0.03076  28.61283       17.311   5470.93679    -7.45079  1.09011  2367.97793  0.00011  55922.07921  51.43768  0.99637  18.06845  55962.05406 
    14.88789  2.02237   8.57084       3.11759         4764.88898  0.00498  0.01395     0.26293  36.12932     16.14236   4398.43274   -11.69106  0.60903  1841.22451    1e-05  55917.83894  51.23667  0.42431  18.08172  55964.91709 
    14.38229  1.34601   7.44137       4.91832         4619.99096  0.00188  0.01542     0.01055  37.80238     18.65958   4970.72045    -9.47675   1.0016   2281.0612  0.00254  55920.05325  51.42605  0.16118   18.0348  55962.05406 
     14.7799   1.7948   3.84143       4.67761         4590.70822  0.00419   0.0109     0.25147  73.58689     18.60809   5628.44397    -4.55527  1.14957  2428.10299  0.00225  55924.97473  51.52646  0.40046  18.08597  55964.91709 
    14.86149  1.58059   8.61339       3.56151         4913.21198  0.00133  0.02231     0.01732  21.79973     19.62178   6497.56228   -14.93385  0.30507  2070.06152  0.02325  55914.59615  51.29952  0.10332  17.95988  55959.19103 
    14.83139  1.53002   8.28945       4.63149         4599.84629  0.00238  0.01952     0.02941  29.64959     18.51819   6812.50277    -9.45305  0.36123  2468.83419  0.00183  55920.07695  51.47663  0.19626  18.05508  55964.91709 
    14.61012  1.53891   9.39208       4.34767          4446.5858  0.00146  0.01468     0.03309   30.1432     19.19198   6530.51657   -13.99519  0.48007  2611.19225  0.00864  55915.53481  51.52658  0.12083  18.09982  55962.05406 
    14.29388  1.59025   8.90184       2.05362         5098.72108  0.00139  0.03774     0.49708   8.75232     18.15272   8068.16922   -12.69619  1.42351  2503.72505  0.00079  55916.83381  51.38419  0.09033  17.92807  55962.05406 
    14.71209  1.98003  10.24121       2.95678         4798.56003   0.0018  0.10631     0.01952   6.29465     16.91609   4561.89369   -15.09441  0.60821  2871.00099    5e-05  55914.43559  51.46989  0.10807  17.99344  55964.91709 
    14.54666  1.60232   8.64991       4.92534         4516.90167  0.00373  0.08044     0.03207   6.14321     19.43711   5260.40383   -13.75247  0.64701  2673.62589   0.0152  55915.77753  51.40546  0.22221  17.94787  55964.91709 
    14.68561  1.43518   7.50564       4.12878         4744.53256  0.00938  0.01169     0.08679  42.13248     19.54209    4679.3256    -9.67312  0.60707   2261.9565  0.01936  55919.85688   51.4266  0.82109  18.18999  55964.91709 
     14.6774  1.47863   8.66172       3.78982         4706.21788  0.01695  0.03543     0.11963  16.62757     19.03168   5885.97955   -15.55076   0.5013  2498.93863  0.00598  55913.97924  51.44068  1.25541  18.13392  55964.91709 
    14.98336  1.61666   1.90889       4.06825         4694.03665  0.01383  0.01483     0.01223  41.40455     17.45946   7605.26577    -1.62272  0.82075  2443.93072  0.00016  55927.90728  51.49256  1.20679  18.16626  55967.78013 
    14.64074  1.69873    3.4557       4.77182          4564.7429  0.00146  0.07493      0.2062  18.11489     17.78497   7470.04366    -6.06054  1.34396  2791.82172  0.00034  55923.46946  51.54415   0.1101  18.11735  55964.91709 
    14.68739  1.98896    9.2377       4.16388         4743.37242  0.00287  0.01174     0.03068  40.91466      17.4432    6947.5739    -14.1904  0.87192  1963.08645  0.00015   55915.3396   51.3014  0.24949  17.99994  55959.19103 
    14.66704  1.84387   5.38541       4.81314         4887.46176  0.00461  0.01613     0.01002  38.28979     19.92196   8466.05574    -8.52681  1.46066  1872.83327  0.04642  55921.00319  51.25571   0.3973   17.9191  55962.05406 
    14.41258  1.35507   7.98752        4.6897         4817.51985  0.00508  0.01269     0.30161  36.13066     17.76187   6026.68561   -10.28228  0.98438   2206.0049  0.00032  55919.24772  51.39367  0.43355  17.95412  55962.05406 
     14.5334  1.89583   9.02499       3.90824         4755.54945  0.00127  0.01038     0.01557  37.29922     17.01461   6935.91047   -16.83221  1.20169  1689.80935    6e-05  55912.69779  51.16447  0.10914  17.86693  55959.19103 
    14.46507  1.90017   9.63306       1.57618         5474.98261  0.00176  0.01962     0.02502  23.04242     16.94711   6355.53256    -15.6175  1.27578  2529.71101    5e-05   55913.9125  51.47814  0.13874  17.94923  55959.19103 
    14.75276  1.97953  10.68908       2.53088         5022.01913  0.00172  0.03947     0.31104  10.61065     18.37797   9684.45048   -14.14747   0.5311  2214.22861  0.00133  55915.38253  51.29574  0.11607  17.96279  55962.05406 
    14.85676  1.92031   2.67426        3.3649         4772.69903  0.02972  0.07793     0.19667  15.07091     18.10565    6273.1441    -5.84735  1.24366  2814.34839  0.00071  55923.68265  51.53551  2.15836  18.03312  55962.05406 
    14.55335  1.62046   9.09833       3.61653         4729.93831  0.00121   0.0161     0.03337  33.51359     17.49438   5979.16692      -16.45  0.67131   2235.5855  0.00017     55913.08  51.39967  0.10186  18.12145  55964.91709 
    14.52443  1.56632   9.47297       4.98438         4676.72262  0.00238  0.05932     0.01342   4.96505     18.39437   5307.79681   -11.47205  0.63019   2234.7882  0.00138  55918.05795  51.22672  0.13481  18.02511  55959.19103 
     14.4315  1.49668   8.57368       4.40453         4592.54589  0.00182  0.01698     0.09118  25.00261     19.15126   8436.92209   -15.55013   0.8412  2050.19728  0.00787  55913.97987  51.30205  0.14566  17.87926  55959.19103 
     14.8107  1.86994   3.83628       3.40241         4838.67556  0.00417   0.0132      0.0132  50.66228      17.3862   6264.91318    -3.18887  1.10306  2064.20635  0.00014  55926.34113  51.36018  0.37611  18.08045  55962.05406 
    14.61959  1.78817     8.626       3.40761         4880.69219   0.0157  0.02204     0.19785  21.63269     17.93472   6486.73156    -8.63208  1.31094  2290.90954  0.00048  55920.89792  51.38695  1.22269  17.91901  55959.19103 
    14.93579  1.70673   8.67791       4.76383         4760.00071  0.00254  0.01093     0.06224  45.35252     20.03288   7318.42066    -8.68537  0.36152  2030.42601  0.05992  55920.84463  51.33806  0.22538  18.03136  55956.32799 
    14.69144  1.65042   6.49054       4.89552         4491.40238  0.05922  0.06972       0.113  10.82248     18.84029   8696.39151    -9.84585  1.14263  3183.02039  0.00385  55919.68415  51.61281  4.01797  17.89293  55959.19103 
    14.93684  1.74607   8.14827       4.94779         4626.09189  0.00838   0.0192     0.02618   25.0941     20.53359   6469.81268    -9.80283  0.34894  2274.29016  0.18981  55919.72717  51.39244  0.67082  17.95607  55959.19103 
    14.45591  1.81833   7.48485       1.84932          5133.7764  0.00109  0.02843     0.19282  24.29695     19.12993    4766.7894    -20.6041  1.52227  2397.07495  0.00749   55908.9259  51.43557  0.08687  18.07711  55964.91709 
    14.71498  1.52786   5.01367       4.59388         4659.09904  0.00735  0.01163     0.03562  57.72495     20.38171   5373.01181    -5.30427  0.80843  2670.12101   0.1338  55924.22573  51.59273  0.67623  17.99993  55962.05406 
    14.28628  1.41002   8.40401       4.48022         4631.03097  0.00187  0.01479     0.04014  28.23233     19.28705   7250.05519   -13.20858   1.4209  2206.67119  0.01076  55916.32142  51.37538  0.15257  18.04295  55956.32799 
    14.80389  2.02472  10.83375       4.48527         4749.61274  0.00113  0.01283     0.11276  27.14625     17.36966   6798.32416   -11.18378  0.57099  1777.18321  0.00013  55918.34622  51.18434  0.09171  18.03345  55962.05406 
    14.81891  1.76557     9.637       3.35556         4665.82619  0.00215  0.01146     0.32857  35.52608     18.77859   5084.31951   -12.83804  0.42036   2081.2296  0.00334  55916.69196  51.34186  0.18247  18.09278  55964.91709 
    14.29106  1.38623    6.3912       3.19255         4874.43795  0.00187  0.01681     0.12904  32.04772     19.08107   5812.72345   -25.34723  1.36732  1772.58415   0.0067  55904.18277  51.19475  0.15649  18.03856  55964.91709 
    14.53338  1.90741  11.36292       3.79918         4741.03336  0.00121  0.06949      0.3151   4.36626     16.80815   8532.95301   -14.87886  0.73419  2280.23267    4e-05  55914.65114   51.2297   0.0664  18.04051  55962.05406 
    14.78062  1.97425   8.16014       3.30728         4966.55351   0.0013  0.01216     0.07727  36.67509     16.54887   5138.82052   -11.75069  0.70863  1761.70187    2e-05  55917.77931  51.19943  0.11096  18.08268  55967.78013 
    14.35363  1.58418   7.68854       4.79564         4481.62315   0.0049   0.0286     0.01316  22.11436     17.36405    8220.7002   -18.83719  1.54747  2649.36671  0.00013  55910.69281  51.51499  0.38318  17.94268  55959.19103 
    14.61507  1.67048   7.36263       2.45241         5025.11827  0.00208  0.01629     0.12545  34.43537     16.51593   6587.83263   -16.96045  0.77496  1855.54805    2e-05  55912.56955  51.23985  0.17614  17.92297  55956.32799 
    14.82328  1.00601    6.4259       3.45947         4944.86003  0.00486  0.01234     0.08027  29.83934     17.19663    6264.8594   -11.79027  0.18727  2053.31668    9e-05  55917.73973  51.31705  0.40086  18.08589  55964.91709 
    14.70017  1.84564   9.28872       3.30139         4597.92675  0.01065  0.01407     0.01342  30.79748     18.60816   6485.81795    -9.91077  0.94916   2091.8578  0.00225  55919.61923   51.3356  0.88319    18.059  55964.91709 
    14.42028  1.53721   8.64323       4.59279         4659.08672  0.00302  0.05982     0.01355   8.01887     19.88203   5420.11378   -15.43104  0.84009  2331.72553  0.04234  55914.09896   51.3138  0.19148  18.05147  55964.91709 
    14.33615  1.57316   9.13731       4.63749         4652.71983  0.00162  0.04336     0.38252   9.99088     19.53163    6962.2951   -10.79908  1.52316  2305.59023   0.0189  55918.73092  51.32523  0.10806  18.06787  55964.91709 
    14.95685  1.55003   2.87724       2.15098         4921.82282  0.01469  0.01842     0.08284  26.64016     19.63356   9238.13847    -5.28975  0.53347  2023.31326  0.02389  55924.24025  51.29554  1.18774  18.08294  55962.05406 
