 texplosion  fnickel     Pspin  log(Bfield)      Mns  thetaPB  mejecta    kappa  kappagamma      vejecta  temperature    alpha  cutoff_wavelength  log(nhhost)      A_V         MJD0  kenergy  mnickel            TSD   log(L0)  Peak_mag     Peak_MJD  log(E_rad)  log(Peak_lum)  Rise_Time    E_fold  tau_1  delta_m15     r_peak     frac 
   -4.42858  0.47778  12.72548     14.94359  2.18895  1.11267  2.47624  0.09274      0.2006   8070.38637   9333.83039  2.54715         3877.78437     17.88835  0.00043  59765.00892  0.96208  1.18309   426789.91469  44.76952  19.00794  59789.19509    50.42053       43.77376   16.58528   26.3918   31.5    0.55463  -20.31396  0.58431 
   -5.67757  0.02949    8.8635      14.3094  1.52809  1.02664  3.74329  0.02988     0.37917   6409.49739   3636.50807  3.81596         3869.75037     20.31936   0.1159  59763.75993  0.91734   0.1104  2681455.46371  44.12941  19.03195  59789.19509    50.45315       43.87417   17.04728  25.51869   39.5    0.51862  -20.45148  0.94641 
   -6.88727  0.02716   8.97813     14.29949  1.61436  1.52644  0.75663  0.20494     0.49992   8143.09922   9445.41293  2.06046         3801.80459      17.0465    6e-05  59762.55023  0.29929  0.02055  3042353.88923  44.08726  19.02941  59786.85188    50.56515       43.91151   17.85788  28.27417   32.5    0.52463  -20.31669  0.99018 
   -7.18816  0.44944   9.97939     14.66835   1.8905  0.67503  1.12788   0.1465     0.43808   10057.6331   9583.31692  0.79948         3851.68286     19.47611  0.01663  59762.24934  0.68058  0.50692    805177.2115  44.64132  18.98694  59786.85188    50.35693       43.76702   16.52476  27.01161   30.0    0.53964  -20.35787  0.80835 
   -4.27437  0.35301  10.64968      14.7973  1.86011  0.81133  2.23232  0.07295     0.41167   6708.32609   9466.89989  2.34495         3702.91912     18.93804  0.00482  59765.16313  0.59926  0.78804   498218.57462  44.78629  19.04687  59789.19509    50.39056        43.7226   19.40852  34.49365   31.0    0.55948  -20.23527  0.70139 
    -5.7992  0.44958   9.32884     14.59447  1.90822  1.43242  1.87562  0.12128     0.11445  10363.64333   7824.88157   2.8664         2118.08326     17.68662  0.00027   59763.6383   1.2017  0.84325   998054.74348  44.61066  18.99551  59786.85188    50.37929       43.80188   17.04869   27.0102   33.5    0.54831  -20.32682   0.7481 
    -5.2208  0.00656   8.92242     14.28431  1.60461  1.46035  1.73578  0.07234     0.12925    7024.4152   8240.36531  4.30283         3276.19616     18.50436  0.00177   59764.2167  0.51091  0.01139  3202779.26383  44.06772  19.04857  59789.19509    50.38468       43.76234   18.13057  27.47897   37.5    0.51753  -20.31332  0.99454 
   -8.31616  0.15943   9.73526     14.36822  1.71988  1.43842  1.88309  0.11076     0.49989   9579.95665   9506.35984  1.72831         3911.31226     16.48463    2e-05  59761.12134  1.03092  0.30022  2776898.03995  44.08409  18.99046  59786.85188    50.37347       43.79405   17.04728  26.16018   31.0    0.50636  -20.37642  0.86594 
   -4.26826   0.4877  14.56809     14.89342  1.99242  1.40394  3.12905  0.07538     0.04023   8970.80286   9749.70715  2.77812         3885.77182      18.3804  0.00133  59765.16924  1.50211  1.52604   641447.51515  44.43426  18.97475  59786.85188    50.34388       43.66432   20.20373  33.69845   33.5    0.53886   -20.3469  0.41889 
   -4.94923   0.4351  10.97929     14.60944  1.64128  1.53764  3.55448  0.05497     0.13281    8927.1882   9379.68743  3.27491         3061.41876     20.09457  0.06907  59764.48827  1.68979  1.54655  1109856.09725  44.35761  18.97459  59789.19509    50.45326       43.89818   16.52476  23.00681   38.0    0.53545  -20.35483  0.48251 
   -5.48648  0.47706  11.76428     14.60031   2.1107  1.26408   0.8725  0.21729     0.49757   9601.40095   8743.97532  1.58402         3907.79588     18.45852   0.0016  59763.95102   0.4798  0.41623  1709034.36152  44.21939  19.01064  59789.19509     50.4988       43.98109   14.88881  22.42808   30.5    0.59058  -20.35939  0.81355 
   -6.27655  0.39488  10.17908     14.57403  1.71683  0.76119  1.07839  0.16698     0.45932    9956.2305   8573.32836  1.78103         3618.42278     17.83824  0.00038  59763.16095  0.63767  0.42583  1174637.40827  44.41825  18.99783  59789.19509    50.34687       43.74272   18.13057   26.5459   33.0    0.56432  -20.34575  0.80643 
   -4.94866   0.4475  12.38344     14.49887   1.7545  1.51926  2.48969  0.05709     0.43161   8093.21113   9180.78942  3.20961         3313.92949     17.32295  0.00012  59764.48884  0.97278  1.11415  2511366.94989  43.92741  19.00877  59789.19509    50.43723       43.88321    15.3312  22.86529   42.0    0.51591   -20.2799  0.52625 
   -4.96537  0.36919  12.01944     14.65811  1.97014  0.96429  1.48867  0.11049     0.48026   8743.16323   9469.72671  2.35352          3697.1506     17.15578    8e-05  59764.47213  0.67883   0.5496  1276035.81525  44.29771  19.05658  59789.19509    50.36745       43.71043   18.65308  30.73358   30.0    0.58881  -20.31842  0.74068 
   -5.89055  0.47702  14.73965     14.62036  1.42376  1.27325  3.36599  0.04799     0.29363   6944.90847   9562.18811  3.50015          4025.2671     16.76894    3e-05  59763.54695  0.96844  1.60563  1650110.09413  43.86779  19.00476  59789.19509    50.49033       43.94035   15.03464  23.27611   47.5    0.51144  -20.31121  0.28604 
   -4.42757  0.00183   10.5226     14.45983  1.92238  1.20344  0.98382  0.15184     0.46741   9035.78857   8547.72112   4.0792         3210.20822     19.56235  0.02028  59765.00993  0.47915   0.0018  2378149.09415   44.1322  19.02672  59789.19509    50.44977       43.79426   16.58528  26.95109   32.0    0.59191  -20.34944  0.99908 
   -4.82211  0.20569   9.35332     14.72893   1.6362  0.59166  2.44529   0.1051     0.08185   9035.98404   7885.55424  3.30814         3263.35654     18.07378  0.00066  59764.61539  1.19099  0.50298   463144.65895  44.87503  19.01076  59786.85188    50.36639       43.80316   17.04728  25.51869   31.0    0.53596  -20.34074  0.79671 
   -4.25996  0.00182  11.54693     14.54452  2.11897  1.30329  0.92235  0.08555     0.14336    4578.7513   9644.79353  3.08332         4023.09944     16.02459    1e-05  59765.17754  0.11535  0.00168  2137186.57214  44.14019  19.09138  59786.23426    50.41736       43.75577   16.52476  26.45232   33.5    0.54918  -20.26755  0.99911 
   -4.89715  0.01332  11.61973     14.49243  2.11979  1.52395  1.11398  0.16885     0.49966   9368.95735   8830.60547  2.96515         3682.62021     17.45926  0.00016  59764.54035   0.5833  0.01484  2751936.56632  44.02511  18.96593  59786.85188    50.41173       43.78784   16.58528  26.09965   31.0    0.56041  -20.35986  0.99208 
   -6.06894  0.05666   9.38757     14.43655   1.7093  0.96644   3.9735  0.01859     0.20507   4775.91591   9110.96394  2.67493         4232.86335     20.38823  0.13582  59763.36856  0.54065  0.22514  1873411.54965  44.28392  18.92143  59786.23426    50.33536       43.70933    17.1078  29.76386   39.0    0.51379  -20.42879  0.90179 
   -4.15038  0.46419   7.06266     14.83298  1.48439  0.73768  1.85365  0.21988     0.08554   9405.36898   9205.31505  3.13795          3525.1799     18.11345  0.00072  59765.28712  0.97815  0.86045   148368.67526  45.57111  19.06113  59789.19509    50.45805       43.81551   17.33536  25.64172   27.0    0.49859  -20.28276  0.77973 
   -4.37459  0.27479   7.90641     14.68154  1.29598   0.4289  1.59007  0.03308     0.04332   3343.80856   9200.01304  2.30587         4451.33789      16.7832    3e-05  59765.06291  0.10605  0.43693   326055.12349  45.07219  19.05023  59789.19509    50.44899       43.85839   16.96197  27.79613   39.0    0.56089  -20.25579  0.81631 
   -5.90412  0.18261   8.74609     14.33074  1.35536  0.88474  2.08678  0.09566     0.48239  10173.31595   8993.72927  3.89597         3382.43506     19.22595  0.00935  59763.53338  1.28834  0.38107  2099000.49475  44.19526  19.06543  59789.19509     50.4035       43.74089   17.85788  30.61165   32.0    0.55354  -20.39993  0.81484 
   -5.29263  0.11198   8.08906     14.42264  1.32806  0.67598  1.53331  0.12543      0.3267    8804.6192    8910.4684  2.27535         3586.69793     17.44099  0.00015  59764.14487  0.70905   0.1717  1152269.66834  44.51471  19.06175  59786.85188    50.40169       43.75459   17.85788  29.01379   31.5      0.529  -20.29837   0.9175 
     -5.236  0.00562  10.91531     14.56663  2.09176  0.96259   2.3673  0.04033      0.4787   5287.02964   4343.12503  2.41768         4144.16323     19.18055  0.00842   59764.2015  0.39473   0.0133   1702744.1668  44.28214  19.01671  59789.19509    50.43545        43.9073   17.04728  23.59586   40.0     0.4883  -20.29316  0.99361 
   -5.71905    0.422   9.73002     14.38286  1.35674  1.04129  1.54527  0.10614     0.49672   7837.86463   9604.70128  3.58427          3746.1274     18.14705  0.00078  59763.71845  0.56627   0.6521  2045614.16417  44.11429  19.02187  59786.85188    50.46775       43.78581   17.85788  30.34733   33.0    0.54732  -20.33886   0.6766 
   -4.84138  0.01365  11.67577     14.49018  2.08611  1.51646  4.94972  0.01553     0.02203    4600.7807   9770.74376  3.72894         4003.96002     20.07673  0.06629  59764.59612  0.62499  0.06758  2762860.53034  44.01225  18.97837  59789.19509    50.35271       43.73446   18.65308  28.21858   35.0    0.54493  -20.33669  0.96378 
   -7.00125  0.28908  10.71741     14.79675  2.00729  0.46483  1.22983  0.18713     0.46562  12553.19544   9958.15952  0.85125         3735.60679     17.68579  0.00027  59762.43625  1.15606  0.35552   545896.81839  44.77416  19.02553  59789.19509    50.41134       43.80451    16.1418  26.20101   25.5    0.53521  -20.44219  0.85007 
   -5.88053  0.27283  11.64251     14.73034  1.89553  1.20715  3.81468  0.04407     0.29617   5994.30266   8171.06373  2.55323         4024.30527     17.07267    7e-05  59763.55697  0.81764  1.04077   825947.24952  44.49753  18.97092  59789.19509    50.34465       43.71961   18.73895  28.13272   40.0    0.51307  -20.26459  0.60485 
   -4.19045  0.02646  11.12455     14.55891  1.83171  0.67785  1.51442  0.06159       0.432   7399.24152   9708.96115  4.18851         3797.34533     18.43592  0.00152  59765.24705  0.49459  0.04007  1604777.35594  44.23372  18.95446  59786.85188    50.40188         43.758   17.85788  27.34111   35.0     0.5709  -20.32508  0.97578 
   -5.16356  0.14683   10.7862     14.82976  1.98746  0.47036  3.39883  0.04844      0.4983   9137.22239   8953.74129   4.3962         2601.51016     18.59407  0.00218  59764.27394  1.69272  0.49905   470246.34305  44.82908  19.01123  59786.85188    50.28797       43.71403    16.1418  29.01379   35.5    0.48491  -20.28579  0.79772 
   -4.26351   0.4238   9.82168     14.46711  1.52795  1.34379  2.60789  0.06041     0.47339  10093.07428   8688.14484  3.43294         2456.60231     17.17408    8e-05  59765.17399  1.58476  1.10522  1592482.27223  44.26651  19.02675  59786.85188    50.42221       43.81631   16.52476  26.45232   37.5    0.53177  -20.28188  0.59318 
   -7.01909  0.07991  10.67248     14.79624  2.11548  0.54544  1.18779  0.15133      0.1074   6871.91265   9832.57319  3.26255         3362.70342     17.09807    7e-05  59762.41841   0.3346  0.09492   571839.78266  44.78045  19.04401  59789.19509    50.35367       43.72278   19.18096   27.6907   31.5     0.4813  -20.27024  0.95881 
   -5.43254  0.01448   9.29492     14.43498  1.46453  0.66572  2.71554   0.0457     0.37905   7542.61657   9359.66312  4.13094         3759.66969     17.40484  0.00014  59764.00496  0.92157  0.03933  1585049.19138  44.29801  19.06257  59789.19509    50.38818       43.73237   18.73895  28.13272   34.0    0.54481  -20.31286  0.97684 
   -4.91316  0.47489  12.53337     14.61214  2.08819  0.75304  0.57072  0.23556     0.48495   8615.97776   8886.86238  3.87561         3640.91519     17.44693  0.00016  59764.52434  0.25273  0.27103  1817399.21905  44.13303  19.01909  59786.33472     50.4139       43.70704    17.1078  31.09741   38.0    0.52517  -20.31015  0.85096 
   -4.57136   0.4516  10.33764     14.56684  1.51282  1.16822  2.27678  0.09262     0.40994   7621.91751   9205.70633  4.42019         3447.76282     19.16677  0.00816  59764.86614    0.789  1.02819  1103465.70566  44.37703  19.00342  59789.19509    50.42739       43.81997   17.85788  27.26254   34.0    0.52735  -20.32502  0.58301 
   -5.04202  0.42518   8.97505     14.72712  1.93298  1.31439  2.76873   0.0818     0.49533   9409.32256   7202.62973  1.69625         2558.73237     18.52145  0.00185  59764.39548  1.46226  1.17722   508016.85664  44.94312  18.97072  59785.30387     50.3822       43.81105   15.03464  26.63924   40.5    0.52872  -20.26452  0.70217 
   -4.61977  0.00341  11.35688     14.50003  2.11978  1.33845    3.005  0.04051     0.46708   6618.83486   8801.68769  4.67549         3270.13063     18.03899  0.00061  59764.81773   0.7853  0.01026  2538459.04046  44.08005  18.95173  59786.85188    50.33478       43.70162   18.65308  29.81644   35.5    0.52909  -20.25583  0.99477 
   -5.29112  0.39826  10.72277     14.52492  1.58077   0.7138  1.00211  0.18088     0.44994   9926.46241    8983.2447  3.95446         3779.24984      18.6546  0.00251  59764.14638  0.58902   0.3991  1504700.49308  44.22965  19.03496  59789.19509     50.3899       43.75198   17.85788  29.01379   32.5    0.57925  -20.39555  0.77847 
   -3.53594  0.28677   9.63032     14.49244  1.73802  1.36918  1.25323   0.0571     0.12989   4140.87848   8471.49456   2.2259         4291.98977     16.30503    1e-05  59765.90156  0.12819  0.35939  1549786.02048  44.35135  19.03397  59789.19509    50.48885        43.9133   15.41132  22.89942   38.0    0.56368  -20.26101  0.84976 
   -6.82967  0.39407   9.59664     14.60206  1.62313  0.55333  1.06844  0.17136     0.42583  10993.79883   8103.22924  1.12938         4031.17099     18.16913  0.00082  59762.60783  0.77032  0.42104   867539.72867  44.57667  18.94029  59786.23426    50.51579       43.94682   15.03464  23.27611   35.5    0.54742  -20.39323  0.81265 
   -3.77273  0.28212  14.66146     14.59188   2.0938  1.10061  2.42788  0.05039     0.43058    7961.3863   8310.76861   4.2803         3718.20238     17.55153   0.0002  59765.66477  0.91798  0.68495  2737380.13478  43.82009  19.04341  59786.85188    50.48367       43.95138   14.36841  22.73516   41.0    0.56604  -20.30354  0.62461 
   -5.17911  0.27949   9.35439     14.53228  1.74954  1.22678  2.37882  0.10595     0.48689  10708.33915   8710.34955  1.91968         3048.67615     17.38662  0.00014  59764.25839  1.62717  0.66485  1225199.30054  44.48153  19.01844  59789.19509    50.42644       43.78743   17.33536  26.20101   29.0    0.56126  -20.41105  0.76631 
   -5.06869  0.44587  11.42847     14.80697  1.86232  0.82592  2.10703  0.12495     0.20487   8947.09033    9289.8002    2.393         3725.28946     16.61333    2e-05  59764.36881  1.00615  0.93947   549422.30774  44.68302  18.96003  59786.85188    50.44352       43.88914   15.41132  24.69618   30.0    0.52539  -20.31413  0.63137 
   -3.74699  0.40899   8.48507     14.83567  1.34587  0.56558  2.62286  0.12092     0.49273    9236.3144   7982.98426  3.88091         3594.62012     18.06892  0.00065  59765.69051  1.33475  1.07273   191775.30372  45.25774  18.98039  59786.33472    50.39584       43.68861   17.85788  32.42049   32.0    0.55621  -20.36149  0.62705 
   -4.11338  0.43995  10.13731     14.69136  1.98671  0.77052  1.08061  0.11153     0.48898   5769.72981   8419.29075  3.05454         3469.78427     20.40992  0.14277  59765.32412  0.21459  0.47541   785382.04795  44.66005  18.97656  59789.19509    50.38226       43.75878   17.85788  29.01379   37.5    0.51196  -20.34862  0.82491 
   -6.37913  0.17517   9.26641     14.60482  1.50326  0.61721  2.30663  0.09546     0.49597   8380.47829   9704.60081  3.56514         3487.93442     17.98103  0.00053  59763.05837  0.96637  0.40404   739648.79522  44.64303  18.91224  59786.85188     50.2813       43.67974   18.21643  28.13272   29.5    0.53156  -20.32721  0.81326 
   -4.85437  0.19586   9.28131      14.6012  1.33736  1.46976  6.59132  0.02168     0.01054   4993.09767   9085.89261  3.11779          4021.2898     19.15177  0.00788  59764.58313  0.98026  1.29096   671249.67836  44.63299  18.94911  59789.19509    50.32899       43.70846   18.21643  28.13272   41.5    0.47974  -20.22988  0.53627 
   -3.66469  0.14797  10.68899     14.43698  1.71763  1.41246  3.09143  0.04337      0.4357   7170.94854   7173.04512  4.99143         3130.70576     18.56726  0.00205  59765.77281  0.94829  0.45743  2435919.01699  44.05924  18.99708  59789.19509    50.36353        43.7053   17.46488  29.49025   40.5    0.54075  -20.23597   0.7787 
   -5.16852  0.47093  12.80894     14.67548  1.87787  0.91786  1.72478  0.10458     0.36903   8290.49234   7573.17738  3.66491         3558.87143     18.49985  0.00176  59764.26898  0.70717  0.81225  1275095.06588  44.22194  18.97362  59786.85188    50.38913       43.68993   17.85788  32.42049   38.0    0.56988  -20.30778  0.61277 
   -3.31014  0.33606   4.75782     14.26734  1.10989  1.24041  1.58429   0.0366     0.03239   3435.14331   7907.85639  1.35552         4757.36533     16.35955    1e-05  59766.12736  0.11152  0.53242   681140.19372  45.12607  19.00549  59786.85188     50.4245       43.77063   16.58528  28.01262   40.5    0.55313  -20.22289  0.88969 
   -4.82261  0.00393  12.27376     14.47984  2.07233  1.29664  3.68118  0.02732     0.34876   6577.10235    8929.1088  4.11108         3974.80181     17.63127  0.00024  59764.61489  0.94991  0.01446  3180903.86208   43.9048  18.98192  59789.19509    50.39641       43.78438   17.85788  28.04202   34.5    0.56265  -20.33084  0.99105 
   -4.74151  0.48961   9.58162     14.37461  1.37241  1.10758  1.32483  0.13799     0.49054   8971.74309   8593.75859   2.8218         3733.68098     19.34936  0.01242  59764.69599  0.63612  0.64865  2084321.52749  44.12449  19.02635  59786.85188    50.48572       43.96185   13.70192  22.06432   33.5     0.5637  -20.35206  0.68834 
   -5.05587  0.30786  10.07958     14.78549  1.58493  0.37103  1.32659  0.12302       0.474   9458.89928   9746.19798  3.57678         3298.37809       17.782  0.00034  59764.38163  0.70802  0.40841   401548.44472  44.85823  19.05428  59789.19509    50.40211        43.8114   17.85788  26.20101   31.5    0.54785  -20.32179  0.79654 
   -6.71437  0.46013  12.07223     14.53607  1.77337  0.88791  1.42909  0.10167     0.08507   7875.16182   9192.52384  3.11906         3910.75662     19.03452  0.00602  59762.72313  0.52869  0.65757  2032596.96059  44.04602  18.99405  59789.19509    50.42094       43.84903   17.04728  26.16018   37.0    0.52291  -20.32241  0.66649 
   -4.81049  0.28221   9.64793     14.61147  1.61557  1.01099  3.23394  0.05955     0.40736   8569.80292    9377.3967  1.35848         4058.84528     16.65389    3e-05  59764.62701  1.41678  0.91266   835753.48432  44.58623  18.99677  59786.85188    50.59144       44.02645   15.41132  23.67627   30.5    0.55977  -20.31991  0.66639 
   -4.83456  0.02291  11.48231     14.43819   2.0159  1.32873  3.66845  0.03522     0.49931   7852.17566   8881.92917  3.67622         3576.09662     19.10847  0.00713  59764.60294  1.34924  0.08403  3280664.80371  43.93729  19.03021  59786.85188    50.39284       43.76219   17.33536  26.20101   36.5     0.5208   -20.2914  0.95432 
   -4.17381  0.08114   8.29266     14.16269  1.28362  1.35841  1.88593  0.08873     0.11309    9678.4907   9598.77143  3.92181         3443.98462     19.41918  0.01459  59765.26369  1.05382  0.15303  3874959.02862  43.95163  19.00198  59789.19509     50.4611       43.87162   17.04728  23.59586   31.0    0.53458  -20.35284  0.91804 
   -6.21403  0.00193  10.17831     14.38057  1.84964  1.31346  2.48305  0.06245     0.49061   8891.10093   9434.52575  3.25528         3328.81415     16.44624    2e-05  59763.22347  1.17091  0.00479  3083922.74454  44.03148  18.99536  59789.19509    50.30337       43.74182   17.85788  29.01379   32.5    0.52907  -20.30638  0.99757 
    -5.3939  0.15673  10.15936     14.62404  1.71502  0.78664  4.82821  0.01882     0.13157    5748.3458    8408.2142  1.50471         4321.19585     18.12266  0.00074   59764.0436   0.9517  0.75675   928411.95848  44.52164  18.95762  59786.85188    50.33574        43.7813   17.85788  26.20101   45.5    0.48966  -20.20925  0.70252 
   -6.43654  0.30977   9.31842     14.29608  1.44023  1.41382  2.16226  0.04532     0.35012   6800.90034   8906.81796  1.72131         3994.00559      19.1545  0.00793  59763.00096  0.59658   0.6698  2970055.61421  44.01583  19.00114  59786.85188    50.38977       43.78391   17.04869  28.85121   44.0    0.47643    -20.222  0.70779 
   -6.05956  0.00172  10.45405     14.57268  2.04469  0.89019  1.72603   0.1277      0.4752    9913.6846   8561.70458  3.97566         3149.36986     18.67793  0.00265  59763.37794  1.01192  0.00297  1484776.89014  44.36924  19.02489  59786.85188    50.29343        43.6889   19.40852  30.74322   30.5     0.5521  -20.41492  0.99864 
   -5.40958  0.11751  12.85438     14.93925  2.15603  0.36474  1.67962  0.07369     0.20028   7023.95081   8108.92148  4.00413         3946.28255     16.84484    4e-05  59764.02792  0.49431  0.19737   437600.43057  44.74332  19.04526  59789.19509    50.38253       43.78652   17.85788  27.26254   38.0     0.5384  -20.33852  0.88696 
   -8.20726  0.40782  10.79228     14.49323  1.65978  1.38741  2.42466   0.0973     0.24427   9130.89119    6862.8917   1.6607         3762.75053     17.96026  0.00051  59761.23024  1.20588  0.98884  1852001.18184  44.15503  19.02815  59786.23426    50.56392       43.92182   15.37378  24.53879   43.5    0.49005  -20.28736  0.60386 
   -5.11916  0.12391    8.9722     14.26865  1.38348   0.9298  1.06388  0.09436     0.38478   5856.51945   9438.82046  4.89371         3723.79936     19.06013  0.00638  59764.31834  0.21767  0.13183  3001091.59975  44.02674  18.98595  59789.19509     50.3832       43.72045   17.02287   27.3931   38.5     0.4995  -20.27204  0.92516 
   -4.89784  0.42841   7.72876     14.67099  1.34239  0.43402  1.03885  0.19311     0.47416  10990.71721   8333.87662  2.97251         2444.33183     18.27873  0.00106  59764.53966  0.74857  0.44506   338788.30737  45.09058  19.03578  59786.85188     50.3858       43.71073   17.85788  31.52879   30.0    0.58397  -20.34282  0.82791 
   -5.02399  0.14219   10.4959     14.66754  1.85345   0.5773  2.06082  0.07281     0.49791   8928.30412     8007.897  4.84978         3126.88402     19.86616  0.04082  59764.41351  0.97995  0.29304     876494.005  44.55204  18.98709  59786.23426    50.36162       43.75355   17.04728  27.01161   36.5    0.55484  -20.38623  0.86409 
   -5.20009  0.46469   9.48109     14.70877  1.75135  0.80412  1.71469  0.15013      0.3533  10321.13206   8175.01089  2.97329         2908.94063     19.11033  0.00716  59764.23741   1.0896  0.79681   558938.43817  44.81114   19.0157  59786.85188    50.35221       43.66246   19.40852  32.42049   30.5    0.58476  -20.39309  0.72789 
    -7.1828  0.28835   7.39926     14.17694  1.07817  1.48727  1.86779  0.16998     0.28158   9060.61992   8031.49003  3.69899         3639.47592     17.54408  0.00019   59762.2547  0.91468  0.53857  2426559.18197  44.17817   18.9791  59786.85188    50.38798       43.73251   17.85788  30.34733   33.5    0.48414  -20.33449  0.75704 
   -6.40127  0.15289   8.72391     14.31785  1.37871  1.30971  1.74187  0.11053     0.49399   7573.62883   9279.40229  3.05175         3901.39324     18.73284    0.003  59763.03623  0.59601  0.26631  2254319.70122  44.17388  19.00478  59789.27748    50.37021       43.75272   19.18096  29.02425   30.0    0.54092  -20.33578  0.86742 
   -4.74725   0.0976   8.57486     14.44232  1.26959  0.89855  4.42397  0.02581     0.09317   3861.48608   7671.81866  3.92189         3988.42887     17.32186  0.00012  59764.69025   0.3935  0.43177  1130532.33409  44.45277  18.99184  59789.19509    50.48976       43.91156    17.1078  25.45816   35.5    0.48068  -20.18658  0.78762 
   -5.42107   0.3652   8.78795     14.79767  2.15706  1.18936  2.96807  0.07054     0.09371   8987.08711   9743.34887  0.66094         3938.92846     17.96517  0.00051  59764.01643  1.43001  1.08393   392753.95389  45.12081  18.96171  59789.19509    50.35797        43.7495   18.13057  29.55213   27.0    0.58308  -20.34474  0.75918 
    -4.9243  0.29459   9.63581     14.36431  1.51471  1.12225   1.2579  0.12934     0.47523   8293.36704   9133.00876  3.38722         3629.94538     18.18062  0.00084   59764.5132   0.5161  0.37057  2439480.32397   44.0941  19.10124  59789.19509    50.40107       43.74855     16.937  27.24681   33.5    0.54327  -20.34917  0.81533 
   -4.87964  0.24945   4.87206     14.32078  1.03301  0.53786  2.96061  0.03887     0.27701   5411.81082   9229.57594  3.09126         3758.52907     21.02208  0.58453  59764.55786  0.51724  0.73852   519724.54575  45.19175  19.00655  59789.19509    50.34952       43.73052   18.73895  28.13272   36.0    0.54076  -20.86473  0.83141 
   -4.24714  0.14067   7.90319     14.37388  1.31379  0.79212  2.84689  0.04962     0.36791   6843.85071   8499.21043   3.9698         3476.92335     20.37956  0.13313  59765.19036  0.79542  0.40048  1362027.73863  44.45758  19.01695  59789.19509    50.46328       43.84248     16.937  26.46734   35.5     0.5489  -20.41973   0.8312 
   -5.21228   0.4846  10.12299     14.50944  1.58943  0.82087  0.71747  0.25779     0.48689   8100.97066   9190.78813  4.06852         3591.28102     18.31199  0.00114  59764.22522  0.28087  0.34769  1448068.15313  44.29868  19.00413  59786.85188    50.68932       44.11511   16.52476  22.86529   31.5    0.55796  -20.32678  0.82114 
   -5.65127  0.01619  10.64121     14.43845  2.06997  1.47319  1.18247  0.11974     0.32126   9288.77934   9749.34731  1.54435         3820.71686     18.78534  0.00339  59763.78623   0.6086  0.01915  2889751.81924  44.06997  19.06604  59789.27748    50.31936       43.73665    16.1418  27.34111   31.0    0.52735  -20.34885  0.99112 
   -5.79729  0.00728   8.64299       14.452  1.33259  0.54159  0.89027  0.12813     0.47482   7043.80613   8912.95886  3.98283         4050.53632     16.17089    1e-05  59763.64021  0.26349  0.00648  1153023.22415  44.45838  18.96715  59785.30387    50.42751       43.90677   13.69525  21.69225   34.0    0.56588  -20.38616  0.99612 
   -4.58352  0.49777  12.22043     14.70209  2.02569  1.44739   1.9937  0.09463     0.48774    7763.0878   9699.77302  4.64331         3000.28209     16.64162    2e-05  59764.85398  0.71673   0.9924  1107604.62676  44.35686  18.96656  59786.85188    50.41163       43.76744   17.85788  29.01379   32.5    0.54366  -20.25134   0.6163 
     -6.944  0.41413  10.05015     14.48782  1.85154  0.99337  0.91666  0.21242     0.48285  10344.98931   8637.51143  2.63849         2751.00432     19.48133  0.01683   59762.4935  0.58519  0.37962  1836733.48682  44.26799  19.04502  59789.27748    50.38248       43.78325   18.65308  27.24681   34.0    0.50436  -20.32397  0.84273 
   -5.82649   0.0204   9.18979     14.32311  1.53629  1.02358  3.29207  0.03268     0.49961    5504.4672   5817.63177  3.57057         3751.03073     17.45531  0.00016  59763.61101  0.59501  0.06716  2720726.39006  44.09402  18.99216  59786.85188    50.42356       43.82248    17.1078   26.3918   42.5    0.48203  -20.22468  0.96455 
   -5.40033  0.00735   8.84936     14.24251  1.47971   1.3316  3.69811  0.03126     0.48284   6290.86102   8686.37386  4.28083         3461.01614     16.59416    2e-05  59764.03717  0.87303  0.02719  3522142.40587  43.99839  18.98283  59786.85188    50.39668       43.74117   17.85788  28.27417   37.5    0.49284  -20.23879  0.98562 
   -6.04306  0.01093   7.82575     14.38271  1.57114  1.09398  0.96821  0.22769     0.35128   9634.09596   8468.73559  2.98012         2681.11308     19.81734  0.03648  59763.39444  0.53607  0.01058  1533435.31698  44.49234  18.99338  59786.33472    50.35508        43.7742   16.58528  26.95109   29.5    0.54633  -20.35991  0.99601 
   -5.21244  0.10624  11.12689     14.45958  1.78332  1.47981  6.42277   0.0142     0.49956   4235.18408   9699.13836  4.81296         3927.50126     20.58125  0.21183  59764.22506  0.68722  0.68236  2469631.20661   44.0347  18.94748  59789.19509     50.4427       43.84987   16.96197  28.64756   38.0     0.5266  -20.45929  0.69717 
   -6.01738  0.32815  10.59651     14.46643  1.73751  1.26053    1.092  0.20676     0.37739   8886.96341   9274.42938  4.64966         3480.71147     18.46415  0.00162  59763.42012  0.51447  0.35834   2114524.2588  44.13323   19.0254  59786.85188    50.45201       43.78193   17.04728  27.01161   30.0    0.55702  -20.36866  0.82319 
   -4.37775  0.26629   8.24977     14.32328   1.2843  1.13701  1.90105  0.10459     0.39875   8876.16729   8102.26595  4.10274         3091.65469     19.03625  0.00604  59765.05975  0.89345  0.50623  1831456.79403  44.28183  18.98177  59786.23426    50.35592       43.72305   15.39172  29.76386   33.5     0.5689  -20.31241  0.77615 
   -5.31101  0.04202   8.77804     14.29472   1.3901  1.09859  2.09846  0.09752     0.49104   9231.24082   8632.06408  4.15097         3655.01635     18.16647  0.00082  59764.12649  1.06672  0.08819  2559872.74546  44.11688  19.04741  59789.19509    50.49273       43.87532   17.04728  26.16018   30.5    0.57581  -20.38124  0.95156 
   -6.05959  0.23774  11.96246     14.83316  2.05117  0.76159  2.97086  0.03833      0.0634   3818.62812   9623.25224  3.29165         4243.01117     17.75978  0.00032  59763.37791  0.25842  0.70629   587668.12906  44.65607  19.05008  59786.85188    50.52046       43.92271   13.69525  23.67627   36.0    0.47647  -20.29548  0.70563 
   -3.99483  0.04816   9.96363     14.67906  1.53867  0.42241  2.11762  0.04687     0.04464   6303.47223   9940.77029  3.68396         3960.24914     16.79064    3e-05  59765.44267  0.50192  0.10198   621832.87136  44.66548  19.03459  59789.19509    50.37991       43.80627   19.40852  27.26254   33.5    0.55123  -20.28469  0.93857 
   -4.90779  0.03085  11.12412     14.64339  2.05393  0.72542  2.77903  0.04184     0.49756   7282.39921   9127.11677  2.56496         3659.11533     16.69809    3e-05  59764.52971  0.87916  0.08573   1219442.1328  44.40274   19.0057  59786.85188    50.35729       43.71082   17.85788  30.34733   35.0     0.5285  -20.27951  0.95758 
    -5.3404  0.00128  10.86222     14.46974  1.90986  1.22988  2.82806  0.05109     0.48879   6287.75668   9616.86269  4.39928         3613.65605      18.3021  0.00111   59764.0971  0.66697  0.00362  2405294.38513  44.09684   19.0267  59786.85188    50.35301       43.71857   17.33536  32.42049   32.0    0.50924  -20.26152  0.99802 
   -5.38025  0.23735   8.61182      14.4951  1.33817  0.98178  2.81355  0.07217     0.29357   6147.50445   7691.25715   4.3208         3576.98804     19.33888  0.01212  59764.05725  0.63428   0.6678   942578.95044  44.55085  18.96804  59785.30387     50.4772       43.87699   15.41132  25.23181   35.5    0.48861  -20.25084  0.72076 
   -4.90046  0.30134  11.80229     14.56897  1.86295  1.30518  2.16751  0.08303     0.49879   8911.44381   9308.29446  2.14854         4010.13282     17.23374   0.0001  59764.53704   1.0268  0.65315  1753922.51017   44.1511  19.00055  59789.19509    50.43514       43.76092   18.13057  28.21858   30.5    0.59816  -20.36897  0.69634 
   -5.01437  0.21876  12.64376     14.75471  1.60504  0.67363  4.67573  0.02235     0.11307   5787.97289   6957.21807  3.31255         3759.37704     18.98376  0.00535  59764.42313  0.93439  1.02288    737266.9047  44.40296  18.98961  59789.19509    50.35171       43.75019   18.13057  28.21858   47.0    0.56082  -20.19389   0.5053 
   -5.45928  0.38954    8.9932     14.68178  1.42159  0.49221  1.26414  0.11707     0.10704   6857.23501   9542.50283  2.61461         3799.47441     18.51086   0.0018  59763.97822  0.35459  0.49243   462225.12826  44.84894  19.00086  59789.27748    50.36545       43.79934   18.13057   25.4058   32.0    0.53723  -20.29271  0.77749 
   -5.37547  0.05744   8.92248     14.25436  1.46399  1.54241  1.81062  0.07779     0.25335   9192.26324   9410.38051  1.99618         3949.02757     16.57858    2e-05  59764.06203  0.91264  0.10401  3354328.66335  44.00781  18.96318  59786.85188    50.44042       43.79473    17.1078  29.76386   31.0    0.56064   -20.3442  0.94564 
   -5.98455  0.03122   7.23117     14.29573  1.31381  0.85653  1.76731  0.10914     0.49666   9657.14744   8836.94237   4.0826         2545.59982     18.54348  0.00194  59763.45295  0.98319  0.05518  1634186.18711  44.45566  19.00753  59786.85188    50.39732       43.80935   18.59792  26.45232   31.5    0.51451  -20.31361  0.97709 
   -6.14605  0.08112   8.32831     14.29513  1.64312  1.28965  4.54477  0.02671     0.49993    5802.9461   5725.91449    4.054         3483.50699     20.67584  0.26337  59763.29145  0.91293  0.36865  2718555.14138  44.20906  19.00033  59786.85188    50.48764       43.93153   15.91906  23.94233   44.5    0.47736   -20.5261  0.87027 
   -4.44069  0.09358  11.89479     14.58146  2.04097  0.87748   1.0481  0.11295     0.48679   8634.09201   9406.43615  2.73922         3863.34062     17.37189  0.00013  59764.99681  0.46608  0.09808  1842662.69287  44.16252  19.06372  59789.19509    50.43554       43.83298    15.3312  23.59586   32.0    0.58429  -20.33526  0.94458 
   -7.42482  0.00401   7.36207     14.09175  1.19333  1.07637   1.4031  0.11686     0.32247    7745.0221   6101.10745  3.58842         3609.31142     17.94115  0.00049  59762.01268  0.50206  0.00563  3936204.04089  44.01653  19.01747  59789.19509    50.48365       43.97059   15.03464  22.80477   42.0    0.46275  -20.28768  0.99711 
   -6.38088  0.19056  10.29111     15.01835  1.75864  0.28246  2.53593  0.08699     0.09383   9437.72675   7782.58239  3.24396         3247.02595     16.57668    2e-05  59763.05662  1.34741  0.48326   158930.89415  45.28789  18.99134  59786.85188     50.3976       43.81382   17.85788  27.34111   33.5    0.55114  -20.34826  0.78884 
   -4.47018  0.39685   9.74099     14.85858  1.45528  0.32269  1.44388  0.12938     0.33689   8626.11744   9804.67784  3.11545          3475.3872     17.66202  0.00026  59764.96732   0.6409  0.57301   245929.60764  45.06377  18.96644  59786.85188    50.43477       43.80135   17.96875  29.70909   30.5    0.54144  -20.28683  0.72551 
   -7.97429   0.0147  11.17273     14.41637  1.91514  1.24181  2.25324  0.08486     0.34085   7822.27075    7970.4587  4.73377         3918.98013     16.80379    4e-05  59761.46321  0.82243  0.03313  3262748.99247  43.94114  18.99295  59789.19509    50.35757       43.74351    16.1418  30.61165   35.5     0.5263  -20.35762  0.98107 
   -4.55621  0.45288  11.42998     14.70506  1.74637  1.10632  2.45523  0.09091     0.49727   9004.82657   8414.75454  3.57522         3276.47693     19.26634  0.01026  59764.88129   1.1876  1.11192   823997.58461  44.47896  19.04358  59786.85188    50.51278       43.87038   16.52476  26.45232   34.0     0.5683  -20.31722  0.56784 
   -4.76163  0.36697  10.70733     14.66589  1.98879   0.8791  1.49856  0.14681     0.46411  11890.10356   8054.59662  3.18833         2451.56288     17.80644  0.00036  59764.67587  1.26378  0.54993   986263.20646  44.51408  18.98698  59789.19509    50.39872       43.82661   17.04728  24.93845   31.0    0.58615  -20.38883  0.78518 
   -4.78108  0.47854   8.10409     14.36584  1.55587  1.26852  0.90982  0.19516      0.4686  10851.25943   8398.97019  2.82867         2144.61531      19.6303  0.02372  59764.65642  0.63906  0.43538  1760047.92252  44.39789  19.00091  59786.85188    50.41197        43.8256   15.41132   26.5744   32.5    0.53357  -20.35942  0.84789 
   -4.55619  0.47883  12.23895      14.8011  1.95577  0.66199  1.10521  0.22099     0.49642  10461.04883   8843.12762  3.66392         3459.23572     18.11513  0.00072  59764.88131  0.72148  0.52921   679875.81612  44.55225  19.03966  59786.85188    50.49006       43.80998   16.58528  29.76386   28.5    0.60935  -20.36434  0.73904 
   -4.13927  0.48822   9.82067     14.68455  1.80729  1.00327  1.59343   0.1408     0.26749   9640.81128   8572.37932  2.53706         2976.78892     16.35449    1e-05  59765.29823  0.88346  0.77794   691859.24874  44.70157  19.00863  59786.85188    50.39992       43.80156   16.52476  24.93845   29.5    0.58579  -20.32216  0.72821 
   -5.88517   0.0072  10.57231     14.41332   1.8055  1.08728  2.26333   0.0602     0.49869   6906.48116   8182.40052  3.49866         3806.20186     16.92804    5e-05  59763.55233    0.644  0.01629  2793297.93883  44.03099   19.0012  59786.85188    50.46606       43.70046   17.85788  36.56681   37.5    0.49663  -20.26191  0.99081 
   -6.45001  0.18971   9.93127     14.52361  2.04112  1.47018  1.61705  0.10626     0.49457   9065.42186    9021.1459  0.95338         3685.77675     16.88028    4e-05  59762.98749  0.79273  0.30677  1676779.61722  44.36023   19.0001  59786.85188    50.37532       43.80856   16.58528   26.3918   31.0    0.52847   -20.3241  0.88783 
   -5.16915  0.18619  13.33806     14.58953  1.67859  0.97805  4.84382  0.02129     0.49968   5600.62215   8325.86859  4.39902         3853.85451     18.84085  0.00385  59764.26835  0.90633  0.90186  1836023.81473  43.97973  18.98946  59786.85188    50.34969       43.79682   15.39172  24.87793   42.5    0.54904  -20.26724  0.52519 
    -5.6403  0.02141   9.76474     14.55153  1.82319  0.74071  2.45272  0.07095     0.49741   8987.39945   9453.94226  4.52681         3007.49451     19.37359  0.01313   59763.7972   1.1818   0.0525  1273216.12199  44.44545   19.0236  59789.19509    50.41936       43.82298    17.1078  24.87793   31.0    0.53445  -20.34626  0.97564 
   -6.02409  0.05071   8.16002     14.29946  1.31716  0.82935  0.60861  0.12378     0.38249   5899.91074   8789.44524  2.29799         4320.32389     16.81906    4e-05  59763.41341  0.12637  0.03086  2050779.41421  44.25318  19.06666  59789.27748    50.55233       43.97179   15.03464  22.06894   38.0    0.51514  -20.30508  0.98353 
   -5.16874  0.25202   8.69576     14.21872  1.24453  1.18381  1.13101  0.16875     0.49571   9475.50061   9624.26132  4.80587         3710.23534     17.72232  0.00029  59764.26876  0.60576  0.28504  3191501.04702  43.98124   18.9613  59786.85188    50.34002       43.70892   17.85788  30.61165   30.5    0.55176  -20.40014  0.83961 
   -5.57361  0.33564   9.60564     14.51341  1.68516  1.47878  2.34774  0.09506     0.26633   9662.05341   8200.01289  1.89822         3226.75837     17.76474  0.00032  59763.86389  1.30742    0.788  1357312.68033  44.39775  19.03048  59786.85188    50.40828       43.78448   17.04728  28.85262   33.0    0.54749  -20.33916  0.71275 
   -5.79148  0.42691  12.49847     14.74856  2.04684  0.65107  1.18988  0.16985     0.07998   9230.24907   9286.55386  2.81924          3787.4206     18.87057  0.00412  59763.64602  0.60473  0.50797   945118.23556  44.41073   19.0647  59786.85188    50.49872       43.90923   15.03464  23.27611   29.5    0.53017  -20.36016  0.75046 
   -5.15357  0.00426  11.55016     14.56278   2.1441  1.12229  1.21409  0.12673     0.15649   8085.52628   9947.99216  3.35698         3634.23409     18.02964  0.00059  59764.28393  0.47347  0.00518  1989168.58276  44.17624  19.07919  59786.23426    50.48252       43.85686   15.03464  26.63924   29.0     0.5613  -20.36374  0.99731 
   -5.46149  0.00237   9.67751     14.37207  1.70147  1.04913  1.77818  0.08588     0.39322   9621.40221   8973.30449  3.27676          3380.7672     18.91678  0.00459  59763.97601  0.98193  0.00421  2667022.56366  44.10212  18.93903  59789.19509    50.40729       43.81148   17.85788  27.26254   33.0    0.56414  -20.34731  0.99781 
   -7.02841  0.00476   8.72197      14.4357  1.37429  0.60805  0.69889  0.22771     0.21973   7494.22446   9667.58502   4.7358         3688.25153     17.50121  0.00018  59762.40909  0.23415  0.00333  1305366.93714  44.40996  18.97478  59786.85188    50.34655       43.70111   17.85788  31.52879   32.5    0.52647  -20.29846  0.99806 
   -5.42232  0.47873   9.08385     14.43624  1.45316  0.81691  0.74661  0.22804     0.43189   8487.55765   8410.76123  3.03478         3382.81122     17.53194  0.00019  59764.01518  0.32084  0.35743  1493452.46866  44.34043  19.05422  59789.19509    50.45147         43.788   17.96875  30.72072   34.5     0.5317  -20.28756  0.82903 
   -5.77358  0.27706    7.5108     14.49609  1.33691  1.31379  4.92043  0.02641     0.28301   5081.83787   6677.74579  3.23718         3484.87822     20.27326  0.10423  59763.66392    0.758  1.36325     713047.251  44.79046  19.02992  59786.85188    50.37015       43.70308   18.65308  31.62529   49.0    0.50952  -20.33451  0.62539 
   -3.07387  0.45445  10.66934     14.63738  1.44403  1.14689  2.28818  0.09682     0.33545   8365.27156   8477.50014  3.93295          3762.0442     16.69281    3e-05  59766.36363  0.95516  1.03987   810794.59768  44.46324  19.00843  59789.19509    50.44543       43.91437   14.88881  22.89942   32.0    0.61455  -20.33983  0.54837 
   -6.78703   0.4302  11.11491     14.77668  1.60124  0.42587  1.51344  0.13645     0.44604   9099.57314   8973.47066  2.99548         3802.85226     17.90253  0.00044  59762.65047  0.74754  0.65109   513709.78252  44.67077  18.98217  59786.85188    50.44242       43.82171   16.58528  28.01262   35.0      0.531   -20.3161  0.67227 
   -5.53385  0.04894  11.76502     14.48307    2.027  1.22294  1.48493  0.07519     0.39011   7582.26868   8482.66817  3.12748         3874.79907     17.82805  0.00037  59763.90365  0.50925  0.07268  2816464.72516  43.98481  18.95868  59789.19509    50.45692       43.88039   17.04728  23.59586   35.5    0.57318  -20.32327  0.95878 
   -7.45284  0.01288  10.30554     14.52446  1.64421  0.66457  5.44174  0.02146      0.4299   5296.41505   9109.11154  4.78606         3997.86096     19.30338  0.01117  59761.98466   0.9106  0.07008  1448759.37619  44.29766  19.02064  59789.27748    50.36554        43.7031    20.7316  31.09741   36.5    0.48957  -20.28028  0.95819 
   -6.03613   0.0019  10.17066     14.36278  1.74835  1.26924  5.79063  0.02012         0.5   6087.45737   9521.56862  4.60777         3911.13198     20.20127  0.08831  59763.40137  1.28004    0.011  3159250.04145  43.99719  18.98885  59786.85188    50.36224       43.74085   17.85788  27.26254   34.0    0.53036  -20.40783  0.99396 
   -5.05338  0.01563  11.01507     14.63738  2.02833  0.74807  2.18287  0.10875     0.47732  10223.46395   8194.95849  3.98068         3266.73197     16.83296    4e-05  59764.38412  1.36098  0.03411  1213855.66174  44.40784  19.07117  59789.19509     50.3443       43.70531   18.65844  26.95109   31.0    0.54923  -20.36242  0.98271 
   -5.18495  0.12803   9.06055     14.46208  1.81384  1.00753  1.63611  0.12059     0.49319   9998.66885   9194.57361  3.53769          3056.2893     20.49344  0.17305  59764.25255  0.97572  0.20947  1646504.95348  44.39657   18.9735  59789.19509     50.5425       44.03374   13.70192  19.99116   30.0    0.55303  -20.52776  0.92075 
   -4.58948  0.12845   9.33101     14.25747  1.52547  1.42362  0.89139  0.19313     0.47849  10144.61433   8879.01568   3.8751         3518.74612     18.23436  0.00095  59764.84802  0.54723   0.1145  3768220.21015  43.93626  18.98079  59789.19509    50.39138       43.76435   17.33536  29.01379   32.5      0.568  -20.39569  0.93866 
   -4.83204  0.45296  11.45233     14.65876  1.70118  1.19647  2.15354  0.11022     0.24922   9377.37001   8939.19201  3.71642         3350.08223     17.97648  0.00053  59764.60546  1.12965  0.97547   997318.44681  44.38297  19.01166  59789.19509     50.3316       43.74824     16.937  29.55213   31.0    0.57208  -20.31346  0.58897 
   -4.37246  0.45917   11.3182     14.68112  1.68336  1.05145   2.1115   0.0854     0.19179   6636.74233   9839.79466  3.76599         3478.06173      17.6238  0.00023  59765.06504  0.55479  0.96954    869560.0061  44.44817   19.0438  59789.19509    50.39972       43.78656   17.33536  27.34111   33.5    0.52495  -20.20192  0.59233 
   -5.62831  0.31938   6.36959      14.2658  1.30538   1.4022  2.16386  0.09082      0.4995   8663.57727   8659.72822  4.02969          2626.3067     20.53063  0.18852  59763.80919  0.96884   0.6911  1446013.04587  44.61619  19.04159  59789.19509    50.39881       43.74521   17.33536  30.34733   33.5    0.51536  -20.50684  0.81443 
   -5.45792  0.01823  10.95407     14.58968  2.11616  0.96694  1.59259  0.09354     0.40086   7121.55962   5599.24288  4.64235           3067.457     16.55525    2e-05  59763.97958  0.48182  0.02903  1560120.01205  44.32208  19.00571  59786.33472    50.33907       43.72847   17.04728  31.62393   38.5    0.50473  -20.25351  0.98633 
    -6.6751  0.00194   9.28429     14.40006  1.63017  0.94804  2.98376  0.05986     0.49959   7848.65177   8146.34491  3.14934         3642.59782      19.4184  0.01456   59762.7624  1.09643  0.00578  2067413.84371  44.23015  18.97954  59786.85188    50.42886       43.89658    15.3312  21.26347   34.5    0.50605  -20.30989  0.99706 
   -5.12639  0.43842   8.70552     14.62079  1.55031  0.80751  1.85723  0.10126     0.49184   8794.37325   9410.19022  1.29527         3544.71809     18.45097  0.00157  59764.31111  0.85685  0.81425   625535.38409  44.78342  18.97267  59786.85188    50.42854       43.83372   15.41132  28.08827   30.0     0.5635  -20.29121  0.72104 
   -6.06201  0.49251   8.20823     14.58926  1.48202  0.52265  0.94836  0.10482     0.46753   6557.41293   8351.86915   1.7672         4285.58863     20.27219  0.10397  59763.37549  0.24326  0.46708   614668.30035  44.82256  19.01772  59786.85188    50.39954       43.70711    16.1418  32.42049   40.0    0.52146  -20.44727   0.8243 
   -5.85418  0.38235    8.2727     14.38504  1.41521  1.04729  1.84157  0.07574     0.14775   9062.37376   8800.64407  1.50848         3057.57035     17.20837    9e-05  59763.58332  0.90219  0.70412  1527041.85334  44.40052  18.94198  59789.27748    50.48074       43.89439   17.04728  23.59586   36.5    0.51887  -20.27616  0.74155 
   -5.01773  0.48727  10.08914      14.6037  1.60449  1.14922  1.91075  0.13147     0.44304   9102.50431   8958.08773  4.13752         3164.07278      17.8407  0.00038  59764.41977  0.94439  0.93106   940737.75125  44.49301  19.02949  59789.27748    50.39644       43.76464   17.85788  27.34111   31.0     0.5501  -20.32019  0.63935 
   -5.34819  0.00678   7.72353      14.2454  1.38926  1.15629  1.73014  0.08237     0.45668   9399.63483   9351.62919  3.00165         3021.03496     18.52196  0.00185  59764.08931  0.91186  0.01173  2485653.35166  44.24056  18.98234  59789.19509    50.41536       43.73711   17.02287  28.13272   31.0    0.56084  -20.36507  0.99479 
   -5.71246  0.07936    7.9625     14.31388  1.02322  0.54861  5.63169  0.02124     0.44995   7068.59982   9289.66453  4.30163         3940.38467     18.26972  0.00103  59763.72504  1.67854  0.44695   1419467.3899  44.32459  19.07482  59789.19509    50.48985       43.90863    16.1418    23.816   38.0     0.5512  -20.33288  0.74673 
   -5.96491  0.20827  11.75343      14.6554  2.05231  0.71803  1.26622  0.15975     0.45511  10408.06514   9556.24981  2.70061         3653.82977     17.48545  0.00017  59763.47259  0.81823  0.26372  1287009.35615  44.33118  19.00738  59789.19509    50.39472       43.75909   17.85788  28.04202   30.5    0.51611  -20.38995  0.86762 
   -4.94604  0.03151   8.76817      14.3695  1.30224  0.76477  1.37272  0.16659     0.46578  11202.57296   8466.21204   4.9805         3873.98866     17.14332    8e-05  59764.49146  1.02765  0.04326  1695606.15862  44.26839  19.04952  59786.85188    50.37997        43.7553   16.58528  28.09118   28.0    0.64674  -20.46288  0.97322 
   -4.97642  0.05537   9.60247     14.48666  1.51129  0.76688  2.15884  0.08512     0.48938    8272.2994   9625.86598  3.62839         3992.83774       18.886  0.00427  59764.46108  0.88125  0.11954  1375960.05272  44.34482  19.06987  59789.19509    50.41973       43.78794     16.937   26.5459   28.5     0.5726  -20.39145  0.93221 
   -3.67725  0.40466  13.51831     14.82105  1.81167  0.98223  2.86264  0.06425     0.07177   6830.50247   8342.12864  3.71964         3966.49371      17.4991  0.00018  59765.76025  0.79671   1.1584    700862.9693  44.41945  19.02489  59786.85188    50.40004       43.74552   17.85788  29.01379   37.5    0.54768  -20.31032  0.48789 
   -5.06072  0.22611   9.51924     14.32904   1.2389   0.8064  2.49733  0.04884     0.41533   6920.74607   7882.55154  4.81531            3857.37     17.95117   0.0005  59764.37678  0.71352  0.56466  2290762.83322   44.0447  18.98822  59786.85188    50.59558       44.18603   11.98584    17.918   40.5    0.55474  -20.33615  0.68556 
   -4.83341  0.21018   9.21613     14.29213  1.28747  1.29633  2.98411  0.03553     0.49872    5805.1849   8864.93191  2.87252         4042.80014     18.81018  0.00359  59764.60409  0.59989  0.62721  2644764.30853   44.0271  18.96853  59786.33472    50.34459       43.70407   17.33536  29.01379   39.0    0.54307  -20.28177  0.69143 
   -6.14915  0.26711  10.02293     14.57449  1.71062  0.78625  1.59262  0.16411      0.3569  10580.68391   8831.59974  3.05611         3282.33659        18.65  0.00248  59763.28835  1.06357  0.42541  1132319.00959  44.44604  18.99977  59789.19509    50.39735       43.76416   17.33536  28.04202   29.5    0.52943  -20.38717   0.8108 
   -5.76881  0.05553   7.23664      14.5384  1.29655  0.44483  1.99425  0.05029      0.3694   8503.03076   8811.69955  0.91136          4184.6336     17.11164    7e-05  59763.66869  0.86011  0.11075   528292.46219  44.93968  19.01923  59786.85188    50.39601       43.77992    17.1078  28.09118   36.0    0.51587  -20.28464  0.95413 
   -5.04174  0.16785  10.83802     14.55322  1.88664  1.29342  2.86463  0.05759      0.2619   7697.39886   7775.57987  2.03904         3811.60784     16.77648    3e-05  59764.39576  1.01247  0.48082  1610495.48969  44.26767   19.0043  59789.19509    50.47367       43.86354   16.52476  23.59586   35.0    0.55341  -20.29136  0.79031 
   -5.22873  0.48986  10.50157     14.75213  1.46261   0.3885   1.0424  0.14445     0.49958   7635.03874   9716.02774   4.4092          3737.2251     17.80641  0.00036  59764.20877  0.36248  0.51063   469023.19576  44.72027   19.0117  59786.85188    50.35663       43.69994   17.85788  30.74322   33.0    0.56027  -20.31161  0.71875 
