 texplosion  fnickel    Pspin  log(Bfield)      Mns  thetaPB   mejecta    kappa  kappagamma      vejecta  temperature    alpha  cutoff_wavelength  log(nhhost)      A_V         MJD0  kenergy  mnickel           TSD   log(L0)  Peak_mag     Peak_MJD  log(E_rad)  log(Peak_lum)  Rise_Time    E_fold  tau_1  delta_m15     r_peak     frac 
   -2.06097  0.05197  5.53998     14.73008   1.4999  1.25082  12.16889  0.01346     0.27103   7990.00338   3996.85331  1.48053         4738.49548     19.41271  0.01437  58241.12403  4.63417  0.63236  148162.60592  45.78715  17.19853  58258.13672    50.44638       44.00297     9.3765  17.14893   22.5    0.83594  -20.49823  0.89129 
   -1.92184  0.08855   5.9753     14.81839  1.46239  0.85668   7.18628  0.02222     0.27374   8155.64034   4006.01844  1.67951         4473.26814     17.54662   0.0002  58241.26316  2.85133  0.63634  111899.10368  45.83236  17.20702   58257.2387    50.43007       43.99389     9.3765  16.46147   22.0    0.86627  -20.46489  0.86962 
    -2.0794  0.07235   6.3186     15.01822   1.8114  0.74282   9.57533  0.01735     0.32535   9027.12834   3792.09441  1.42871         4286.89619     17.66704  0.00026   58241.1056  4.65458  0.69275   61750.35231  46.13498  17.16342   58257.2387    50.43845       44.01498     9.3765   15.6093   22.5    0.88745  -20.45578  0.88509 
   -2.25961  0.09324  6.79233      14.7561  1.72105  1.46722   6.39273  0.02545      0.4987   9208.48574   3787.47065  1.39409         4322.53461     19.97391  0.05232  58240.92539  3.23363  0.59605  226692.61871  45.48516  17.19514   58257.2387    50.42835        43.9835   10.19371  16.16896   22.0    0.91478  -20.49468  0.87433 
   -2.10378  0.06104  7.89257     14.78809  1.74085  1.24105   9.68553  0.01342     0.25344    7890.2841   4011.97529  1.63571         4598.07441     16.65625    3e-05  58241.08122  3.59696  0.59121  267204.64565  45.28833  17.16688   58257.2387    50.41093       43.95766   10.19371   16.3521   22.5    0.87634  -20.48236  0.83978 
   -2.00177  0.11452  7.93692     15.00278  2.01639  0.89752   6.27066  0.02349     0.44028   9693.53431   3671.08665  1.44677         4333.49644     18.15161  0.00079  58241.18323  3.51483  0.71809  116448.02982  45.70798  17.17702   58257.2387    50.44754       44.01113     9.3765   15.6093   22.0    0.94405  -20.51623  0.84343 
   -1.61116  0.10507  6.83306     14.84641  1.82291  1.42049   5.77606  0.02552     0.39762   8175.53773   3973.94094  1.74284         4648.19878     16.31844    1e-05  58241.57384  2.30299  0.60692  160321.69687  45.65539  17.14294   58257.2387    50.43199       44.00435     9.3765  16.46147   21.0     0.9341  -20.58041    0.882 
   -2.15687  0.09947  6.31201     14.80629  1.68936  1.27067   7.10267  0.02247     0.36413   9485.35128   3753.42599  1.28541         4441.02714     16.42052    1e-05  58241.02813  3.81202  0.70651  152505.08212  45.71295  17.16558   58257.2387    50.40835       43.95773   10.19371   16.3521   22.5    0.92736  -20.48978  0.87049 
   -2.07406  0.08255  7.11314     14.86455  1.65833  0.91522   7.71732  0.02038     0.31918   8847.20327   3845.36974  1.56995         4487.23048     16.17782    1e-05  58241.11094  3.60335   0.6371  145384.93011  45.62187  17.16582   58257.2387    50.39363       43.93713   10.19371  16.83505   22.5    0.88377  -20.48372  0.84885 
   -2.13126   0.0944  7.29433     14.95777  1.75392  0.82244   7.68074  0.02206     0.45424   9173.09312   3773.33013  1.48824         4413.11459     17.57649  0.00021  58241.05374  3.85533  0.72507  105259.31333  45.76462  17.16234   58257.9175    50.41833       43.96023   10.19371  17.09532   23.0    0.88509  -20.43969  0.83699 
   -1.83022   0.0643  8.03548     14.87184  1.86792  1.23216    9.1681  0.01528     0.46313   8130.42177   3989.70889  1.79402         4434.41682     17.08681    7e-05  58241.35478   3.6152  0.58952  202073.48462  45.42467  17.22373  58258.13672    50.43555       43.98455     9.3765  16.98617   22.0    0.91047  -20.46911  0.85022 
   -2.04689  0.09345  4.76461     14.57933  1.11702  1.08242     6.666  0.02373     0.41101   7994.05757   3972.68946  1.68584          4538.5276     16.72162    3e-05  58241.13811  2.54113  0.62296  163407.49314  45.74758  17.18601   58257.2387    50.41992       43.97115     9.3765  16.98617   22.0     0.8466  -20.48149  0.87781 
   -2.11668  0.09161  6.99257      14.7251  1.52014  1.03986   6.53623  0.02088     0.31131   9279.90918   3765.81215  1.45664         4327.03052     18.45427  0.00158  58241.06832   3.3577  0.59877  244777.91115  45.37268  17.19782   58257.9175    50.43969       43.99197     9.3765  16.98617   22.5    0.95576   -20.5043  0.84316 
   -2.14009  0.12967  8.57824     15.08911  1.92365  0.61775   4.86677  0.03093     0.47945   8822.61927   3982.23669  1.68091         4228.37033     17.47878  0.00017  58241.04491  2.25976  0.63109   87199.95196  45.74566  17.17466   58257.9175     50.4267       43.99245     9.3765  16.59018   23.0    0.88221  -20.42499  0.82875 
   -2.19084  0.08234  8.46636     14.84425  1.89964  1.42476   7.88879  0.01964     0.36008   8724.64336   3903.89223  1.57694         4518.20774      18.3407  0.00122  58240.99416  3.58206  0.64956  259049.06138  45.27874  17.25262   58257.9175    50.41982       43.96283   10.19371  16.34868   23.0     0.8853  -20.46039  0.82564 
   -1.85987  0.09625   6.2354      14.8362  1.65855  1.22262   7.27539  0.02444     0.48893   9236.42624   3776.07852  1.58989         4309.26657     17.80303  0.00035  58241.32513  3.70247  0.70026  127310.22131  45.79398  17.19957   58257.9175    50.42532       43.97296     9.3765  17.65225   22.0    0.91556  -20.45667  0.87249 
   -2.29728  0.09144  6.70725     14.85884  1.73289  1.09124   7.59119  0.02333     0.49805   9002.96712   3810.68415  1.40691         4656.10497     18.12045  0.00073  58240.88772  3.67036  0.69412  138671.25471  45.71254  17.19157   58257.9175    50.42166       43.97015   10.19371   16.3521   22.5    0.86579  -20.48195  0.86241 
   -2.02305   0.0901   7.3264     14.80303   1.5806  0.95896   6.78627   0.0222     0.46572   8637.03572   3916.28242  1.67474          4707.6283     18.22221  0.00093  58241.16195  3.01987  0.61145  195143.46518  45.44753  17.23711   58257.2387     50.4275       43.97647     9.3765  16.59018   21.5    0.89356   -20.5478  0.83601 
   -2.19653  0.11203  7.32415     14.98667  1.72521  0.66722   6.00999  0.02356     0.39902   8978.77924   3836.36297  1.48824         4495.56873     16.35147    1e-05  58240.98847  2.89025   0.6733   91375.10131  45.81535  17.12727   58257.2387     50.4379       44.00304     9.3765  16.59018   22.5    0.90794  -20.51426  0.84147 
    -2.0915  0.09342  8.51069      15.0017  1.85807  0.74111   6.81181   0.0227     0.34148   8694.21176   3870.83142  1.71175         4481.71246     16.20962    1e-05   58241.0935   3.0715  0.63638  123995.57694  45.58457  17.20611   58257.9175    50.42504        43.9745     9.3765  16.98617   23.0    0.90626  -20.47084  0.82222 
   -2.04476  0.10723  6.59188     14.80084  1.63842  1.28603   6.65483  0.02594     0.39967   9447.65396   3797.68464  1.45621         4350.32722     17.22158    9e-05  58241.14024  3.54333  0.71361  165415.61874  45.62668  17.16246   58257.2387     50.4166       43.98563   10.19371  16.16896   22.5    0.87186  -20.45387  0.85308 
   -2.11636  0.09256  6.08941     14.74279  1.52809   1.2885   7.42116   0.0242     0.43299   9196.25902       3828.3  1.45519         4318.90925      17.8618   0.0004  58241.06864  3.74387  0.68692  171998.90702  45.64832  17.16486   58257.2387    50.42678       43.98787     9.3765  16.98617   23.0    0.85932  -20.44257  0.86423 
   -2.29231  0.06636   7.3983     14.98005  1.74341  0.70583   9.37634  0.01723     0.30458   8384.58953   3788.66956  1.57832         4587.47065     16.81574    4e-05  58240.89269   3.9321  0.62225   97136.64795   45.7846  17.16918   58257.2387    50.46663       44.05896     9.3765  15.32336   22.5    0.86204   -20.4579  0.85129 
   -1.97286  0.10094  6.64331     14.78401  1.65559  1.34485   6.50125  0.02376     0.44908   8622.92455   3826.76003  1.55009         4599.99904     16.46062    2e-05  58241.21214  2.88359  0.65623  183450.42903  45.57951  17.16564   58257.9175    50.41574       43.95679   10.19371  16.83505   22.0    0.88676   -20.5082  0.86276 
   -1.61543  0.11438  4.26196     14.84639  1.22221  0.71522   6.43247  0.02787     0.41953   8232.32349   4005.20138  1.73932         4372.66174     16.99689    6e-05  58241.56957  2.60046  0.73577   41821.14615  46.47538  17.17075   58257.2387    50.44036       43.97996     9.3765  16.98617   22.5    0.85075  -20.41367  0.90507 
    -2.0699  0.09859  7.04915     14.86163   1.7235  1.06986   7.18246  0.02266       0.492   9213.20718   3827.47835  1.55212         4320.74014     17.93639  0.00048   58241.1151  3.63682  0.70808  150396.74131  45.63175   17.1492   58257.2387    50.42726       43.99079     9.3765  16.59018   22.5    0.89337  -20.47264  0.84584 
    -2.1993  0.11193  7.68827      15.0432  1.73982  0.58553   6.07043   0.0253     0.26358   9290.86798   3770.58618  1.41835         4571.04761     18.45534  0.00159   58240.9857  3.12579  0.67949   78266.14912  45.84412  17.15517   58257.2387    50.44031       44.02367     9.3765  15.57079   23.0    0.89888  -20.48848  0.82824 
   -1.90949  0.11299  6.37146     14.91301  1.55692  0.76905   6.55161   0.0236     0.41944   9115.12245    3870.2355  1.57373         4334.01609     16.43785    2e-05  58241.27551  3.24714  0.74029   87605.37601   45.9101  17.16521   58257.2387    50.44859       44.01288     9.3765  15.60387   22.5    0.92264  -20.47421  0.84746 
   -1.83669  0.12033  8.41015     14.90862  1.87911  1.04042   5.18181  0.02895     0.36187   8548.33425    3937.1732   1.8686         4363.99996     16.48026    2e-05  58241.34831  2.25877  0.62352  187987.60652  45.41906  17.22916   58257.9175    50.40016       43.93467   10.19371  17.47164   22.0    0.88691  -20.48513  0.83124 
   -1.93538  0.10232  6.00351     14.77962  1.20092  0.58744    5.3848  0.02423     0.42639   8490.28672   3853.03198  1.81382         4283.76132     16.58482    2e-05  58241.24962  2.31548  0.55095   110893.1957  45.74665  17.20337   58257.2387    50.43025        43.9966     9.3765  16.46147   21.5    0.93154  -20.50482  0.84777 
    -2.2386   0.0912  7.00821     14.68631  1.50551  1.33506   6.76967  0.02234     0.34381   8857.35267   3886.44198  1.55697         4405.21503     18.05696  0.00063   58240.9464  3.16813  0.61739  291133.74132  45.29122  17.24074   58257.9175    50.44714        44.0132     9.3765  16.46147   23.0    0.91552  -20.46624  0.83673 
   -2.10288  0.09791  6.40811     14.61531  1.33154  1.18327   5.92495  0.02378     0.34423   8724.39361   3815.46082  1.63486         4375.81183     16.99245    5e-05  58241.08212  2.69019  0.58012  298537.76885  45.30474  17.17773   58257.2387    50.46197       44.04273     9.3765  15.32336   22.0     0.9142  -20.50127  0.84419 
   -2.09443  0.09933   6.9887     14.94468  1.99201  1.20377   6.07381  0.02834     0.38986   7968.53917   3914.89319  1.59589          4683.5986     17.55625   0.0002  58241.09057  2.30063  0.60333  116559.45122   45.8128  17.20732   58257.2387    50.43257       44.00238     9.3765  16.46147   22.0    0.84084  -20.45952  0.89258 
   -1.59471  0.10423  7.54059     15.06984  1.95718  0.75414   6.45648  0.02641     0.41924   8978.01777    3833.3242  1.68869         4616.96145      17.7151  0.00029  58241.59029  3.10444  0.67294   74914.91243   45.9311  17.24477  58258.14062    50.40732       43.94656     9.3765   18.2034   21.5    0.92596  -20.54179  0.86021 
   -2.07888  0.08067  7.78698     14.72358  1.65068  1.46105   7.53801  0.01711     0.39914   8472.27404   3888.17551  1.59568         4466.01484      16.5189    2e-05  58241.10612  3.22763   0.6081  331936.76249  45.18272  17.15867   58257.2387    50.42582       43.99706   10.19371  15.64426   23.0    0.91548  -20.48908  0.82829 
   -2.11552  0.07328  8.39319     14.82261  1.86728  1.32307   8.32125   0.0174     0.39991   8937.97863   3814.40396  1.64788         4370.16352      17.4164  0.00014  58241.06948  3.96547  0.60979  276476.87792  45.25054  17.13612   58257.2387    50.43164       44.02767     9.3765  15.32336   22.0    0.91641  -20.50209  0.83304 
   -1.75547  0.09296  6.75265     14.77565   1.6297  1.43178   7.27327   0.0222     0.31377   9168.09633   3809.88486  1.59695         4300.92871     18.49813  0.00175  58241.42953  3.64683   0.6761  193898.29274  45.53443  17.28008  58258.37825    50.45843       43.98732     9.3765  16.98617   22.5     0.9348  -20.46859  0.85213 
   -1.89037  0.08296  6.67216     14.89012  1.56795  0.84146   8.13835  0.02163     0.37523   8651.97867   3798.80403  1.69191          4472.0877     16.84006    4e-05  58241.29463  3.63408  0.67517  107508.81063   45.7842  17.15052   58257.2387    50.44768       44.02024     9.3765  16.46147   23.0    0.83717  -20.43163  0.84828 
   -2.14552   0.0792   7.5978     14.90662  1.71364  0.80115   7.18636    0.022     0.29001   8804.38055    3880.1153  1.49377          4654.5918     16.19138    1e-05  58241.03948  3.32303  0.56916  141208.67359  45.59153  17.11402  58256.36782    50.43411       44.02076     9.3765  15.30317   22.0    0.90079  -20.48439   0.8519 
    -1.8604  0.10162  6.57209     14.95127  1.73247  0.87431   7.11983  0.02483     0.41644    9287.3499   3777.25248  1.54656          4345.3552     18.25752  0.00101   58241.3246  3.66337  0.72351   86964.16313  45.93276  17.23729   58257.9175    50.41448        43.9589   10.19371   16.6448   22.5    0.90278  -20.45486  0.86374 
   -1.86944  0.06135  6.58833     14.84854  1.68492  1.08753  10.70172  0.01445     0.27423   8251.33657   4003.64408  1.59753         4608.83839     18.06749  0.00065  58241.31556   4.3464  0.65657  136414.25131  45.72301  17.22093   58257.2387    50.44786       44.01954     9.3765  16.46147   22.5    0.89929  -20.48667  0.86835 
   -1.61051  0.08918  6.79466     14.86088  1.76934  1.29215   7.34109  0.02275     0.48185   8469.88259   3913.07551  1.60552         4807.36463     18.50451  0.00178  58241.57449  3.14154  0.65471  143945.85951  45.69412  17.11287  58256.36782    50.45697       44.04959     9.3765  14.57981   21.5    0.88377   -20.5199  0.87066 
   -1.94185  0.10739  4.95212     14.79669  1.15286  0.63621   6.51845  0.02689     0.36571   8823.83038   3915.06598  1.76779         4432.64571     17.95081   0.0005  58241.24315  3.02751      0.7    66955.3502  46.11525  17.18843   58257.9175    50.44107       43.99274     9.3765  17.16931   22.0    0.86252  -20.49086  0.86191 
   -1.86372  0.09717  6.95169     14.80812  1.66553  1.19759   6.88846  0.02185     0.24812   8782.48231   3855.34527  1.55131         4439.51898     16.59537    2e-05  58241.32128  3.16945  0.66938  180842.15872  45.54892  17.22459   58257.9175    50.42111       43.96923   10.19371   16.6448   22.5    0.88967  -20.47164  0.84978 
   -2.15444  0.07131  8.27039     14.94607  1.82534  0.85254   9.22213   0.0172     0.31441   8579.63441   3969.01369  1.71859          4355.3742     18.29695   0.0011  58241.03056  4.04945  0.65767  148620.43482  45.52306  17.11205  58256.36782    50.42933       44.02167     9.3765  15.32336   23.0    0.86419  -20.43102  0.82208 
   -2.17002  0.10587  6.27162     14.69401  1.49797  1.40184   5.62486  0.02707     0.49965   8608.43442   3906.77167  1.61635         4373.74615      17.2165    9e-05  58241.01498  2.48649  0.59551  223899.49024  45.49954  17.19725   58257.2387    50.40893        43.9685   10.19371   16.3521   21.5    0.91276  -20.49319  0.86927 
   -1.94907  0.06722  7.04522     14.73843  1.60045  1.29788   8.76678  0.01581     0.33268   8167.02893   3977.93729  1.59012          4572.1272     16.38361    1e-05  58241.23593  3.48815  0.58928  246024.62222  45.38632  17.20328   58257.2387    50.42437       43.97993     9.3765  16.46147   22.5    0.91974  -20.48213  0.85387 
   -2.21714  0.10734   7.0136     14.84956  1.71997  1.01925   5.75831  0.02887      0.4025   8757.48358   3794.40057  1.57346         4536.65346     18.45572  0.00159  58240.96786   2.6344  0.61812  157069.90594  45.61639  17.15023   58257.2387    50.41769       43.99037   10.19371  15.77298   22.0    0.90167  -20.50636  0.86303 
   -2.08726  0.12058  6.25065     14.83415  1.55061  0.90432    5.4535  0.03065      0.4998   9666.86381   3754.30041  1.59331         4130.04279     16.31943    1e-05  58241.09774     3.04  0.65756  120747.10622  45.78562  17.21535   58257.9175    50.41683       43.96899   10.19371  16.16896   21.5    0.91188  -20.49633  0.86542 
   -2.11451  0.05935  6.49947     14.79063  1.35126   0.7163   9.61766  0.01519     0.23401   8028.77208   3976.15648  1.69635         4598.75778     16.34517    1e-05  58241.07049  3.69824  0.57084  139013.11208  45.63077  17.17204   58257.2387    50.40233       43.96239   10.19371  16.20148   22.5    0.88269  -20.47636  0.84571 
   -2.15446  0.09693  6.45862     14.78155  1.40719  0.78794   6.17661  0.02388     0.34872   8533.60301   3884.28095  1.63527         4424.69284     16.77118    3e-05  58241.03054  2.68313  0.59868   149054.9386  45.62357   17.1901   58257.9175    50.42757       43.97765     9.3765  16.98617   22.5    0.88377  -20.48975  0.84926 
   -2.10125  0.09117  7.36582     14.83333  1.86169  1.52637   7.07399  0.02289     0.32098   8842.69873   3835.85273  1.48648         4521.58293     18.21556  0.00091  58241.08375   3.2996  0.64492   202070.6029  45.49881  17.19263   58257.9175    50.47399       44.04704    8.49625  16.20361   22.0    0.90022  -20.49621  0.86058 
   -1.78218  0.09438  7.31692     14.85462  1.83265  1.26346   6.32988  0.02571     0.29132   8230.69148    3929.1532  1.66688         4742.03242     16.15872    1e-05  58241.40282  2.55797   0.5974  177955.43373  45.55296  17.21364   58257.9175    50.43461       43.99913   10.19371  15.77298   21.5    0.86518  -20.52701  0.86856 
   -1.84972  0.10196  5.68545     14.84059  1.48148  0.89747   7.11977  0.02524      0.4084   9527.70148   3787.93986  1.45634         4418.49842     17.15257    8e-05  58241.33528   3.8554  0.72591   92654.54703  45.96315  17.17931   58257.2387    50.43092       43.99459     9.3765  16.46147   22.0     0.9158  -20.47494  0.87023 
   -2.19917  0.08364  8.34577     14.81058  1.73792  1.05797   7.58489  0.01756     0.48622   8909.88818   3830.89792  1.44521         4697.62974      16.9307    5e-05  58240.98583  3.59187  0.63439  268918.45869  45.23632  17.21819   58257.2387    50.41265       43.95825     9.3765  17.16931   23.0    0.91011   -20.5082   0.8128 
   -1.94417  0.08577  6.39973     14.85793  1.52415  0.84503   7.87438  0.02189     0.48246   9321.78904   3774.37947  1.65143         4335.87497     17.94272  0.00049  58241.24083  4.08171  0.67542  111509.35401  45.79224  17.19672   58257.2387    50.41115       43.96841   10.19371  16.16896   22.0    0.88855  -20.48386  0.85331 
   -1.69884  0.10659  5.38127      14.7487  1.46634   1.4051   6.86949  0.02455     0.47513   9162.41446   3771.20174   1.5372         4440.41075     18.42758  0.00149  58241.48616   3.4401  0.73222  125437.86028  45.87488  17.20102   58257.9175    50.41388       43.96493     9.3765  17.38589   22.0    0.91196  -20.49296  0.88144 
   -2.02113  0.11879  7.42963     14.69366  1.54397  1.28147   4.94047  0.02605     0.48128   8768.88134   3846.21688  1.73605         4243.38318     16.66524    3e-05  58241.16387  2.26613  0.58689  324385.45079  45.20449  17.15159   58257.2387    50.43929       44.00802     9.3765  16.46147   22.0    0.92796  -20.50483  0.83236 
   -1.57135  0.07305  6.37921     14.85621  1.72727  1.25672   9.46833  0.01642     0.49274   8481.82667   3897.29232  1.75481         4417.87867     16.39887    1e-05  58241.61365   4.0633  0.69166  126557.44636  45.79438  17.19743   58257.9175    50.44086       43.99492     9.3765  16.47233   22.0    0.91463    -20.518  0.87563 
    -2.2591  0.08111  7.68929     14.84019  1.74406  0.86944    5.8269  0.01838      0.2705    7165.3567   4150.59005  1.64383         4648.84483      16.9695    5e-05   58240.9259   1.7846  0.47264  199881.70049  45.43786  17.23303   58257.9175    50.43143       43.98145     9.3765  16.98617   22.5    0.88949  -20.52245  0.87352 
   -1.87643  0.07175  7.74523     14.93324  1.80748  0.84179   8.13108  0.01576     0.15701   7410.90698   4086.71006  1.74223         4772.11764     18.94493  0.00489  58241.30857   2.6639  0.58342  136922.76209  45.61137  17.24116  58258.13672    50.40472       43.93849   10.19371  17.29689   21.5    0.87951  -20.52883  0.85431 
   -2.33919  0.08543  6.37609     14.68098  1.45857  1.23588   6.64948  0.02353     0.42042   8338.09521   3909.20715  1.55407          4543.0554     16.82195    4e-05  58240.84581  2.75771  0.56804  239269.33592  45.44478  17.15484   58257.2387    50.42484       44.03588     9.3765  15.57079   22.0    0.88024  -20.47026   0.8657 
   -1.78912   0.0967  7.16757     14.94862  1.80528  0.85687   6.52724  0.02477     0.41721   9161.18381   3770.21037  1.55033         4285.01157     16.67412    3e-05  58241.39588  3.26783  0.63116  109107.98817  45.77679  17.25217   58257.2387    50.46432       44.04631   10.32758  15.45282   22.0    0.93613  -20.46692  0.86455 
   -1.86742   0.1308  6.26128     14.82307   1.7301  1.38013    5.3294  0.03204     0.40154   9490.25796    3731.7204  1.33861         4450.42481     17.81419  0.00036  58241.31758  2.86326  0.69711  142256.23264  45.76052    17.159  58256.36782     50.4478       44.03825     9.3765  15.13346   22.0    0.92932   -20.4856  0.87857 
   -2.23839  0.09183  7.15746     14.76257  1.61256  1.28877   7.49412  0.02081     0.41544   9106.16383     3816.906  1.60741         4284.52248     18.10322   0.0007  58240.94661  3.70697  0.68822  228933.87647  45.40713   17.1722   58257.2387    50.40506       43.95717   10.19371   16.6448   23.0    0.89919   -20.4624  0.83089 
   -2.17754  0.08505  8.41531     14.82365  1.93045  1.50526   6.75796  0.02042     0.42993   8496.55081   3935.14483  1.49655         4771.43215     16.87533    4e-05  58241.00746  2.91023  0.57474  285970.92304  45.24804  17.18634   58257.2387    50.43092       43.99913     9.3765  16.46147   22.0    0.90401   -20.5336    0.847 
   -2.18705  0.10453  8.19071     14.80452  1.85035   1.5331   6.36795  0.02329     0.35944   9633.03784   3727.11632  1.45375         4336.05755     17.85929   0.0004  58240.99795  3.52495  0.66563   283578.0992  45.25678  17.18445   58257.2387    50.45663       44.04089     9.3765  15.60387   22.5    0.93449  -20.50299  0.82575 
   -1.81079  0.11274  5.39082     14.82922  1.25166  0.65434   6.40993  0.02701     0.39171   9470.49114    3834.0497  1.57842         4495.88808       16.253    1e-05  58241.37421  3.42946  0.72264   74159.95578  46.03285  17.21512   58257.9175    50.46485       44.03838     9.3765   15.6093   22.0    0.94236  -20.52118  0.85149 
   -1.60073  0.05417  7.53798     14.76938  1.72084  1.56721  10.65345  0.01174     0.26648   7929.06726   3987.72117  1.71923         4609.96646      16.2902    1e-05  58241.58427  3.99541  0.57712  262604.30663  45.33077  17.20537   58257.9175     50.4253       43.97122   10.19371  16.56868   21.5     0.9349  -20.53888  0.85308 
   -2.13931  0.10436  7.39143     14.85058  1.57402  0.74776   5.40499  0.02458     0.40559   8806.45977   3934.86335  1.53624         4491.50152     17.97604  0.00053  58241.04569  2.50049  0.56405  158901.33581  45.52727  17.20332   58257.2387    50.45219       44.02372     9.3765  15.29631   22.5     0.9473  -20.51058  0.84312 
   -2.03313  0.10768   7.2468     14.80241  1.77302  1.31969   6.02086  0.02525     0.38374   9151.99145   3752.35035  1.46755         4460.35438     16.06248    1e-05  58241.15187  3.00827  0.64832  214782.57788  45.46527  17.14072   58257.2387     50.4212       43.98677   10.19371  15.77298   22.0     0.9138  -20.52696  0.85449 
   -2.25598  0.11332  6.45891     14.99481  1.75116  0.71925   6.20169   0.0266     0.35856    9196.6851   3735.70244  1.33637         4445.59717     18.96431  0.00512  58240.92902  3.12896  0.70276    69477.4098  46.05001  17.14094   58257.2387    50.40976       43.98619   10.19371  16.16896   22.5    0.88416  -20.46855  0.87216 
   -1.39433  0.08437  5.36843     14.90958  1.46382  0.76083    7.9819  0.02197     0.32379   8225.07334   3912.49827  1.72936         4590.33714     18.52004  0.00184  58241.79067  3.22117  0.67343   59406.61614   46.2008  17.17641   58257.9175    50.38497       43.92824   10.19371  17.52954   22.0    0.83128  -20.46573  0.89051 
   -1.76143  0.07165  7.29155     14.73802  1.66725   1.4786   7.77987  0.01526     0.30118    8067.3942   3996.89413  1.51163         4703.50209     17.10559    7e-05  58241.42357  3.02041  0.55745   275056.0754  45.32579  17.13206   58257.2387    50.42911       44.00406   10.19371  15.64426   21.5    0.95534  -20.52126  0.85955 
   -1.52659  0.10928   6.2313      14.9473  1.68575  0.92833   6.89415   0.0283     0.48372   9012.29152   3831.85249  1.85354         4324.96245     18.44308  0.00154  58241.65841  3.34025  0.75342    77475.3413  46.01732  17.22978  58258.13672    50.41198       43.92289   10.19371  18.02167   22.5    0.84056  -20.46456  0.86909 
   -1.89095  0.06807  7.78843     14.81466  1.78732  1.17603   8.51906  0.01566     0.30733   8180.16668   3971.88705  1.55485         4796.01185     18.45116  0.00157  58241.29405   3.4005   0.5799  236373.96539  45.36455  17.15223   58257.2387    50.43535        44.0374     9.3765  15.13346   22.0    0.93808  -20.54431  0.85113 
    -2.5368  0.08554  7.02249     14.94907  1.64653  0.69697   7.11155  0.02183      0.4234   8057.98226   3822.62222  1.60581         4638.97165     16.19451    1e-05   58240.6482  2.75451  0.60832   95327.66598  45.81321  17.23514   58257.9175    50.43413       43.98377     9.3765  16.59018   23.0     0.8348  -20.44822  0.85654 
     -1.797  0.08811  6.68848     14.90917  1.74886  1.02036   7.80023  0.02183     0.46025   9030.97211   3842.82392  1.58787         4460.83517     17.36495  0.00013    58241.388  3.79493   0.6873  110379.05711  45.81806  17.24568  58258.14062    50.43845       43.98334     9.3765  17.16931   22.0    0.92437  -20.47772  0.86698 
    -2.0333  0.08593  7.17975     14.76702  1.71225  1.46088   6.30717  0.02267     0.49283   7861.56815   4049.87658  1.69102         4631.40558     18.60205  0.00222   58241.1517   2.3253  0.54196    239645.495  45.41062  17.22092   58257.9175    50.41421       43.95612   10.19371  16.83505   21.5     0.8745  -20.51695   0.8715 
   -1.79103  0.08965  6.24456     14.72149  1.51234    1.377   7.03002  0.02251     0.42344   8626.44416   3870.59622  1.73975         4389.49424     16.72876    3e-05  58241.39397  3.12067  0.63022  197467.30293    45.562  17.16672   58257.2387    50.43627       43.99929     9.3765  16.46147   21.5    0.89081   -20.5148  0.86601 
   -2.06834  0.09401  7.20739     14.82831  1.90767  1.44331   6.47634  0.02255     0.34442   8750.16443   3889.48713    1.583         4265.27864     19.77408  0.03302  58241.11666  2.95794  0.60886  202888.85209  45.52653  17.27894   58257.9175    50.41758        43.9453     9.3765  17.65225   22.0     0.9347  -20.54045  0.87615 
    -1.7256    0.066   6.7034      14.7967  1.63058  1.26246   9.94431  0.01634     0.35924   8371.18799   3952.66935  1.76887         4574.48846     18.48672   0.0017   58241.4594  4.15696  0.65628  173517.73617  45.58925  17.21331   58257.2387    50.43867       43.98991     9.3765  16.47233   22.0    0.89013  -20.51705  0.85795 
   -1.00418  0.14093  4.44618     14.92175  1.55461  1.05385   5.99133  0.03298     0.43766   9968.07838    3730.7211  1.73311         4319.96809     18.82637  0.00372  58242.18082  3.55119  0.84436   40917.72772  46.55258  17.19626   58257.2387    50.42821       43.98935     9.3765  16.46147   21.5    0.88997  -20.48834  0.92619 
    -1.6393  0.08719    6.641     14.89678  1.82093  1.15745   7.36966  0.02263      0.4079   8778.97413   3773.15786   1.6696         4525.40666      16.6258    2e-05   58241.5457  3.38815  0.64256  119956.11578  45.80565  17.20407   58257.2387    50.44288       44.00126     9.3765   15.6093   21.0    0.90053  -20.53409  0.88287 
   -2.29434  0.09404  7.12943     14.72572  1.60891    1.273   6.24174  0.02229     0.46163   8858.66697   3804.06503  1.40875          4667.4516     16.50458    2e-05  58240.89066  2.92193  0.58698  268543.13328  45.34025  17.19433   58257.2387    50.39813       43.94729   10.19371  16.63937   22.5    0.93713   -20.5209  0.85199 
   -1.77649    0.127  6.87066     14.92565  1.77424  0.99178   5.96321  0.02601     0.47372   9392.16586   3817.35307  1.62796         4307.36881     16.62226    2e-05  58241.40851   3.1379  0.75731  109526.71194  45.80434  17.16917  58256.36782    50.41322        43.9977     9.3765   15.6093   22.0    0.92642  -20.51683  0.85103 
   -1.74301  0.08059  5.70633     14.68627   1.3288  1.16505   7.83076  0.02133     0.37159   8110.19667   4019.42208  1.76508         4547.02056     19.12853  0.00747  58241.44199  3.07251  0.63109  170387.99709  45.64815  17.21528   58257.9175    50.42187       43.97904   10.19371  16.16896   22.5    0.83929  -20.45904  0.86477 
   -1.82843   0.1098  5.07158     14.64593  1.25866  1.27319   6.18284  0.02606     0.35529   8879.41065   3824.74359  1.64392         4333.70118     17.87497  0.00042  58241.35657  2.90793  0.67885  153512.46289  45.77232  17.17802   58257.2387    50.42442       43.99769     9.3765  16.46147   21.5    0.92448  -20.47641  0.87569 
   -2.02017  0.10669  5.58115     14.80221  1.57765  1.16632   6.40945  0.02712     0.30531   8989.03052   3811.66581  1.37216         4426.77963     18.54966  0.00197  58241.16483   3.0894  0.68383  113461.01664  45.91856  17.22505   58257.9175    50.41079       43.95715     9.3765  17.65225   22.0    0.89623  -20.45077  0.89118 
   -2.42779  0.11278  7.52928     14.84262  1.91319  1.32008   5.72211  0.02822     0.46486   9759.67737   3721.00275  1.26208         4431.18323     17.89018  0.00043  58240.75721  3.25128  0.64536  207891.89559  45.47926  17.14271   58257.9175    50.41679       43.96393   10.19371  16.56868   22.5    0.91387  -20.50003  0.85965 
   -2.44727  0.09421  8.24391     14.81193  1.89113  1.47057   6.33488  0.02307      0.4147   8937.82733   3863.28378  1.46008         4429.54782     17.58829  0.00022  58240.73773  3.01876  0.59684  283758.11741  45.26035  17.18849   58257.2387    50.42927       43.99925     9.3765  16.46147   23.0    0.89561  -20.46794  0.84347 
   -2.01169  0.08425  6.14128     14.99278  1.77178  0.80401   7.24903  0.02486     0.30285   7920.32263   3941.56992  1.65045         4595.30827     16.49343    2e-05  58241.17331  2.71264  0.61075    64148.5909  46.13355  17.21272   58257.9175    50.40012       43.93907   10.19371  16.83505   22.5    0.81257  -20.44333  0.90036 
   -1.73029  0.10252  6.86248      14.9326  1.86002  0.99831   6.31028  0.02448     0.45758   8289.84379   3870.20597  1.62315         4709.07528     18.55231  0.00198  58241.45471  2.58683   0.6469  110939.55633  45.82031  17.17872   58257.2387    50.42451       43.98676   10.19371  15.65512   21.5    0.92895  -20.55373  0.87777 
   -1.58771  0.13232  5.06524     14.96906  1.37224  0.59145   5.51188  0.02881     0.40614   8224.27717    4028.1353  1.69052         4456.57625     19.09607  0.00693  58241.59729  2.22394  0.72933   37698.25616  46.42075  17.16404   58257.2387    50.44764       44.02313     9.3765  15.32336   22.0    0.86988  -20.45446  0.88532 
   -1.94337  0.06612  7.62755      14.9663  1.91789   0.9242   9.64263  0.01674     0.43485   8539.57019   3884.55303  1.56527         4640.23003     17.03053    6e-05  58241.24163  4.19464  0.63759  121006.25801  45.70409  17.19971   58257.9175    50.44012       43.98119     9.3765  17.16931   22.0    0.88255   -20.4863   0.8592 
   -2.07638   0.0815  7.74674     14.78495  1.59122  0.99098   7.50514  0.01905      0.3406   8567.31114    3931.3324  1.69028         4601.09433     16.80907    4e-05  58241.10862  3.28606  0.61163  238715.77209  45.31446  17.21084   58257.9175    50.42138       43.97292   10.19371  16.56868   22.5    0.88421   -20.5153  0.82099 
   -2.17797  0.08116  7.67621     14.84685  1.82748  1.17504   7.61382  0.01949     0.39935   8579.21284   3872.85872  1.56769         4431.48257      18.2713  0.00104  58241.00703  3.34291  0.61793  202428.69685  45.45413  17.23077   58257.9175    50.45773       44.02717    8.49625  16.48954   22.5    0.88456  -20.47328  0.85153 
   -2.52579  0.10233  8.12716     14.87525   1.7203  0.77201   5.68445  0.02325     0.41967   8935.46971   3839.09004  1.58944         4334.09618     17.04553    6e-05  58240.65921  2.70739  0.58169  187408.36984  45.41178  17.23619   58257.9175    50.45784       44.03639     9.3765  16.46147   23.0    0.89861  -20.50957  0.83082 
   -2.10449  0.09822  7.65452     14.86991  1.83323  1.08988   6.42098  0.02474     0.48435   8845.86155   3808.15775  1.74511         4229.04879     18.81557  0.00363  58241.08051  2.99715  0.63065  181569.34442  45.50519   17.1936   58257.2387    50.42055       43.98491   10.19371  15.77298   22.5     0.8872   -20.4903  0.85038 
   -1.70446  0.10916  7.25519     14.91009  1.83282  1.14645   6.24674  0.02532     0.30322   8441.54376   3876.67901  1.83603         4497.58035     17.76481  0.00032  58241.48054  2.65537   0.6819  135532.55344  45.67862   17.1607   58257.2387    50.45962       44.04162     9.3765  15.13346   22.0    0.89585  -20.51427  0.85611 
   -1.95649  0.13186  6.45626     14.98738  1.61981     0.66    5.5641  0.02959     0.44549   9656.70312   3774.52243  1.45056         4421.68107      17.3954  0.00014  58241.22851  3.09514  0.73368   66449.03499  46.03586  17.09703   58257.2387    50.42998       44.00826     9.3765  16.46147   22.0    0.92964  -20.50276  0.85283 
   -1.95819  0.09372  6.84365     14.86683  1.70269  0.95727   6.47053  0.02391     0.47763   8730.75803   3774.28672  1.63031         4507.66091     17.39266  0.00014  58241.22681  2.94219   0.6064  136729.97649  45.69354  17.19373   58257.2387     50.4677       44.04861    8.49625  16.01371   21.0    0.91912  -20.53205  0.86949 
    -1.3749  0.10355  5.82463      14.9045  1.37669  0.66656    6.3085  0.02499     0.31615   8119.98738    3969.1812  1.95497          4549.3837     16.88871    4e-05   58241.8101  2.48121  0.65324   67326.66324  46.04896   17.1998   58257.2387     50.4211        43.9779     9.3765  16.59018   21.5    0.86891  -20.50949  0.86305 
   -1.48273  0.08643   4.6568     14.72481  1.37918  1.32193   7.66909  0.02325     0.41391   8195.77583   4029.24555   1.6412         4666.89859      19.3366  0.01206  58241.70227  3.07292  0.66281   98626.45565   46.0783  17.24747   58257.9175    50.42916       43.96396     9.3765  17.16931   22.0    0.83366   -20.4788  0.91189 
   -1.81311  0.08524  6.64657     14.91149  1.77942  1.01063     7.608  0.02312     0.32824   8466.72294   3844.22871  1.73968         4567.49231     16.62292    2e-05  58241.37189  3.25333  0.64852  109727.39583  45.83361  17.20692   58257.2387    50.40292       43.96437   10.19371  15.77298   21.5    0.87069  -20.51841  0.87762 
    -1.8272  0.10893  5.95483     14.72534  1.45498  1.27105   6.55246  0.02589     0.36988   9148.76198   3823.95169  1.41826         4525.70595     17.08904    7e-05   58241.3578  3.27157  0.71374  169718.44871  45.65223  17.20008   58257.2387    50.42221       43.97576     9.3765  17.14208   23.0    0.87632  -20.46034  0.85637 
    -1.6743  0.08203  5.45625     14.75497  1.35617  1.00622   8.32766   0.0188     0.29818   8257.86727   3968.68418  1.69307         4603.78126     17.81264  0.00036   58241.5107  3.38755   0.6831  115870.54409   45.8634   17.1771   58257.2387    50.44451       44.03593     9.3765  15.24725   21.5    0.87751  -20.49559  0.87117 
   -2.04787  0.09464  5.76731     14.80544  1.62761  1.29968   7.18866  0.02542      0.4124   9012.98786   3819.50203  1.58087         4373.07384     18.12427  0.00074  58241.13713  3.48347  0.68033  123148.49818  45.86802  17.25773   58257.2387    50.40823       43.95964   10.19371  16.16896   21.5     0.8639  -20.49222   0.8898 
   -2.40278  0.08921  7.62502     15.06667  1.97874  0.68077   6.47129  0.02517     0.34394   8552.60431    4002.9907  1.46851         4703.69224     16.09042    1e-05  58240.78222  2.82368  0.57732   78587.37342   45.9054  17.22334   58257.9175    50.41447       43.95482   10.19371   16.6448   21.5    0.90234  -20.49858  0.87575 
   -2.16753  0.09825  7.68977     14.89538  1.75257  0.93166   6.80271  0.02417     0.46864   9222.17528   3733.35414  1.47637          4388.3495     16.95364    5e-05  58241.01747  3.45124  0.66836  155796.85348  45.54813  17.22632   58257.9175    50.42984       43.97754     9.3765  16.98617   23.0    0.89216  -20.43339   0.8323 
   -2.08778  0.09136  7.53264     14.69549  1.57489  1.32286   6.41727  0.02134     0.37964   8858.36898   3821.38975  1.60259         4466.18978     16.31679    1e-05  58241.09722   3.0039  0.58628  337276.18416  45.18422  17.13458   58257.2387    50.41152       43.96234   10.19371   16.3521   22.0    0.92255  -20.52086  0.83273 
   -1.79882  0.10571  7.44629     14.91079   1.7411  0.81862   5.56579  0.02438     0.28621    8863.5172   3903.80662  1.62874         4444.62845     19.21155  0.00904  58241.38618  2.60835  0.58836  135188.62725  45.63485  17.20127   58257.9175    50.40871       43.95478   10.19371  16.83505   21.0    0.94053  -20.54976  0.85601 
     -1.808  0.13382  5.30712     14.88738  1.62783  1.14338   6.61243  0.03074     0.35868  10304.11522   3714.71886  1.31056          4176.0825     16.78576    3e-05    58241.377  4.18803  0.88486   71512.03521  46.17636  17.21679   58257.9175    50.42672       43.98628     9.3765  16.59018   24.0    0.86569  -20.41241  0.88659 
   -1.67052  0.08724  5.82527     14.89421  1.80663  1.18897   7.54032  0.02001     0.23123   7640.05927   3974.55516  1.72651         4713.23181     19.93434  0.04776  58241.51448  2.62549  0.65785   92659.23098  46.02819  17.19898   58257.9175    50.40663       43.96628   10.19371   16.3521   21.0    0.89122  -20.57449  0.90699 
   -1.95329  0.10215  7.18416     14.94915  1.75454  0.79258   6.50156  0.02352     0.38589   9037.39052   3813.19739  1.56605         4487.39052     17.90425  0.00045  58241.23171   3.1676  0.66411  106276.72325  45.77382  17.16303   58257.2387    50.43676        43.9965     9.3765  16.46147   21.5    0.92521  -20.52559  0.85216 
   -2.22346  0.08994  6.52032     14.76653  1.47746  0.96367   7.59894  0.02075     0.42446   9108.63624   3806.36826  1.45323         4495.07612     16.16027    1e-05  58240.96154  3.76086  0.68346  170923.46768  45.57702  17.14448  58256.36782    50.43694        44.0424     9.3765  15.19858   23.0    0.87535  -20.48451  0.83955 
   -1.85573  0.07929   6.2596     15.00835   1.8457  0.86389   8.70985   0.0203     0.33526   8753.57312   3782.86119  1.48774         4539.79911     18.22226  0.00093  58241.32927  3.98115  0.69064   64620.60595  46.13154  17.14676   58257.2387    50.41242       43.98224   10.19371  15.77298   22.0    0.87882  -20.44885  0.89195 
   -2.11386  0.07003   7.3356     14.90949  1.73257  0.89404   9.00266  0.01866     0.31995   8421.51827   3866.55536  1.59129          4591.1523     17.05984    6e-05  58241.07114  3.80872   0.6305  131342.15558  45.65826   17.2057   58257.9175    50.42147       43.98066     9.3765  17.06213   23.0    0.83725  -20.44357  0.85094 
     -1.938   0.0834  7.51201      14.8322   1.6645  0.80228   5.16591  0.02182     0.27663   7580.17347   4083.12979    1.633         4630.04403     19.60967  0.02261    58241.247  1.77065  0.43083  188890.26787  45.46241  17.21588   58257.9175     50.4293       43.99857     9.3765  16.46147   21.5    0.92928  -20.53601  0.88088 
   -3.01179  0.11381  7.43564     14.79837  1.67052  0.99068   5.85458  0.02466     0.46424   9805.72949   3701.76444  1.12265         4323.87481     17.61644  0.00023  58240.17321  3.35802  0.66633  217051.53481   45.4125  17.19681   58257.9175    50.45432       44.02764     9.3765   15.6093   24.5    0.91381  -20.41082  0.83118 
   -2.01118  0.11687  6.89597      14.8615  1.76243  1.06165   5.41618  0.02436     0.31773   8108.29445   3930.45872   1.6271         4461.27306     16.00065    1e-05  58241.17382  2.12412  0.63297  147272.94574  45.66964  17.21928   58257.2387    50.43085       43.98063     9.3765  16.59018   22.0    0.92011  -20.51662  0.86898 
   -2.15666  0.06076   7.9482     14.87946  1.84335  1.03327   9.24068   0.0161     0.33308   7964.94366   3941.02729  1.75842         4618.93173     18.71265  0.00287  58241.02834  3.49701  0.56148  188385.38236  45.45887  17.14432   58257.2387    50.42767       43.99967     9.3765  16.46147   22.0    0.85513  -20.50855  0.85612 
   -2.20713  0.07419  7.22946     14.73303  1.51495  1.02683   8.23604  0.01642     0.37191   8701.56451   3909.18222  1.61083         4386.63252     17.32489  0.00012  58240.97787  3.71998  0.61102  251400.42465  45.33067  17.17996   58257.2387    50.44302       44.01367     9.3765   15.6093   23.0     0.9224  -20.49138  0.83048 
   -1.79452  0.09654  5.32292      14.7371  1.52044  1.45057   6.64433  0.02337     0.45605   8451.40154   3929.66176  1.62947         4294.61778     19.16035  0.00804  58241.39048  2.83097  0.64147  134240.97005  45.87063  17.16366   58257.2387    50.43126       43.97889     9.3765  16.98617   21.0    0.92002  -20.50032  0.90084 
   -1.54231  0.14466  5.51403     14.87627  1.69042  1.14026   5.31733  0.03209     0.31625   9377.95907   3783.96126  1.52135         4120.34923     16.37049    1e-05  58241.64269  2.78957  0.76918   84375.36917  46.08768   17.1351   58257.2387     50.4234       44.00617   10.19371  14.79209   22.0     0.9028  -20.47494  0.89504 
   -2.16931  0.08228  7.60853     14.82679  1.77186  1.21348   8.01207  0.01913     0.27282    8425.9867   3960.28652   1.6328         4478.88218     16.11037    1e-05  58241.01569  3.39323  0.65925  211478.63218  45.42941  17.16825   58257.2387    50.42675       44.01111     9.3765   15.6093   22.5    0.88493   -20.4749  0.83935 
   -2.33754  0.10545  8.56427     15.06748  2.14493   0.8034   6.59268  0.02241     0.46511   9347.95461   3771.40004   1.3873         4395.95232     16.28329    1e-05  58240.84746  3.43655  0.69518  107063.68064  45.70524  17.15537   58257.2387    50.45034       44.02643     9.3765   15.6093   23.0      0.942  -20.47374   0.8392 
   -2.02289  0.10077  7.44633     14.76621  1.70695  1.47329   5.92788   0.0257     0.44185    8884.3867   3816.94498  1.63553         4548.27849     17.57862  0.00021  58241.16211  2.79114  0.59735  257924.48378  45.34569  17.21678   58257.9175    50.45844       44.02761     9.3765   15.6093   21.5    0.91937  -20.54097  0.85032 
     -2.314  0.07911  6.88191     14.83295  1.47975  0.67793   5.92254  0.02173     0.36242   7420.18285   4009.66528  1.79073         4622.61315     16.34583    1e-05    58240.871   1.9452  0.46853  140449.54562   45.6161  17.21161  58258.13672     50.4099       43.94709   10.19371  17.29689   22.0    0.88388  -20.52863  0.87183 
     -1.561   0.1164   5.6783     14.81261  1.59178  1.30193   5.64218   0.0302      0.3492   8269.71575   4034.46682  1.75655         4489.99225     17.96951  0.00052    58241.624  2.30173  0.65673  112957.08382  45.90938   17.1733  58256.36782    50.42598       44.00722     9.3765   15.6093   21.5    0.84839  -20.48493  0.89405 
   -1.92432  0.07852  8.02379     14.90904  1.94267  1.15606   7.07915  0.02279     0.27404    7900.8076   3928.51373   1.9037          4595.5162     18.62091  0.00232  58241.26068  2.63604  0.55586  176561.83113  45.50159  17.25065  58258.13672    50.40071       43.92409   10.19371  17.63163   22.0    0.86773  -20.50173  0.86517 
   -1.81594  0.07014  7.00704     14.72357  1.46602   1.0948   8.84306  0.01541     0.31517   8235.07928   3938.20455  1.69514         4535.12913     17.14304    8e-05  58241.36906  3.57738  0.62022  238712.99512  45.36604  17.19438   58257.2387    50.44308       44.00185     9.3765  16.46147   22.5    0.92748  -20.48088  0.83073 
    -2.1931  0.08815  7.97859     14.86547  1.70128   0.8601   7.26417  0.01924     0.35877   9046.00002   3827.88469  1.51033         4505.01351     16.55319    2e-05   58240.9919   3.5459   0.6403  186856.04379  45.42426  17.17169   58257.2387    50.43081       43.99241     9.3765  16.46147   22.5    0.91701  -20.50098  0.82038 
   -1.69986  0.09849  6.46646     14.60995  1.30346  1.18709   6.25968  0.01883     0.48463   8394.10257   3984.90981  1.63572         4649.26025     17.79176  0.00034  58241.48514  2.63104  0.61653  305035.13166  45.27826  17.22951   58257.9175    50.43201       43.97616     9.3765  16.98617   21.5    0.98459  -20.56122    0.829 
   -2.16573  0.07213  5.80857     14.70264  1.28558  0.90547   8.53362  0.01822     0.45517   8098.51237   3929.54994  1.64377         4501.14934     17.63345  0.00024  58241.01927  3.33865  0.61553  158406.69197  45.65003  17.19098   58257.9175    50.42955       43.98559     9.3765  16.98617   22.5    0.86401    -20.443  0.85623 
   -2.59391  0.10401   9.0542      14.9328  2.12601  1.02039   5.73579  0.02533     0.47725   9101.54707   3754.32251  1.32575         4547.56222     19.77084  0.03278  58240.59109  2.83433  0.59658  220533.90801  45.33924  17.16484   58257.9175    50.41438       43.95924   10.19371  16.83505   23.5    0.91617  -20.48433   0.8416 
   -2.06277  0.10694  7.06636     14.70429  1.51886  1.13783   6.03255  0.02143     0.40826   9368.71793   3738.23491  1.44169         4560.81011     19.02372  0.00587  58241.12223  3.15855  0.64509  274882.82588  45.31282  17.18775   58257.2387    50.41694       43.95295     9.3765  17.46201   22.5    0.95729  -20.57212  0.82989 
   -1.83869  0.10424  4.58466     14.75882  1.43855  1.21675   6.45219  0.03046     0.44629   8909.48253   3796.25526  1.60953         4404.56218     18.16185  0.00081  58241.34631   3.0552  0.67258   85252.43979  46.17345  17.20772   58257.2387    50.42866       43.99476     9.3765  16.46147   21.5    0.87536   -20.4941   0.9189 
   -2.05566  0.05877   6.4255      14.7907   1.5368  0.99483  10.52532  0.01533      0.2691   8261.36902   3953.12715  1.63579          4468.3263      18.9102  0.00452  58241.12934  4.28515   0.6186  154467.71703  45.65081  17.25347   58257.9175    50.40563       43.93511   10.19371  17.29689   22.5    0.85724  -20.46231  0.86389 
   -1.89412   0.0809  9.31029     14.89211  2.10299  1.24138   6.85786  0.01824     0.41184   8811.78428   3879.04989  1.79545         4303.34257     17.12694    7e-05  58241.29088  3.17646   0.5548  278194.75162  45.20941  17.18533   58257.2387    50.43288       44.00635     9.3765  16.46147   21.5    0.96895  -20.56214  0.84162 
   -1.95351  0.07875  6.57972     14.67977  1.45727  1.32243   7.32651  0.02062      0.3086    8324.9547   3938.24474  1.72849         4444.79614      18.7001  0.00279  58241.23149  3.02892  0.57697  255989.80226  45.38775  17.19252   58257.2387    50.42371       43.99272     9.3765  16.47233   22.0    0.90573  -20.48202  0.85609 
   -1.75904  0.11848  7.10314     14.93852  1.86241  1.09966   5.91283  0.02558     0.49117   8466.23992   3884.06917  1.72599         4420.09695     17.38634  0.00014  58241.42596  2.52816  0.70057  115809.20612  45.77228  17.17599   58257.9175    50.42669       43.98198     9.3765  17.14208   22.0    0.92112   -20.4767  0.86179 
   -1.98787  0.08041  7.03734     14.59071  1.39559  1.52299    6.6906  0.01967     0.46535   8574.83221   3904.43386  1.69304         4468.44455     18.11955  0.00073  58241.19713  2.93456  0.53802  422640.83021  45.09282  17.18853   58257.2387    50.44148       44.01511     9.3765   15.6093   22.0    0.91233  -20.52589  0.83807 
   -1.94896  0.09597  6.74671     14.70691  1.44104  1.14528   6.68783  0.02211     0.43763   8631.54755   3870.63626   1.6165         4466.87084      16.9448    5e-05  58241.23604  2.97228  0.64182  234881.60905  45.39849  17.20286   58257.9175     50.4014       43.95237   10.19371  16.83505   23.0    0.91173  -20.46327  0.83323 
   -1.86992  0.05316  7.91465      14.8286  1.69242  1.00565  10.87099  0.01139     0.18734   7412.98535   4076.92988  1.82791         4648.75531     16.99855    6e-05  58241.31508  3.56355  0.57787  216760.23828  45.36451   17.1897   58257.2387    50.42368       43.98769     9.3765  16.59018   22.5    0.87779  -20.49968  0.83636 
    -1.7344  0.11306  6.71355     15.02662  1.81646  0.78543   6.42029  0.02616      0.2972   8932.52325   3880.39316  1.55892         4591.73852     18.17268  0.00083   58241.4506  3.05584  0.72588   67251.17495  46.04647  17.18815   58257.9175    50.43759       43.99785     9.3765  16.59018   22.0    0.92445  -20.49558  0.86738 
   -2.44439  0.10308  5.84161     14.84703  1.48096  0.75541   6.86158  0.02381     0.43147   9483.35935   3740.58846   1.1912         4586.20196     18.60529  0.00224  58240.74061  3.68109  0.70732   94920.11928  45.92897  17.15268   58257.9175    50.40925       43.96136   10.19371  17.09532   23.0    0.92527  -20.48397  0.86461 
   -1.94231  0.09299  7.71603     14.88874  1.78369  0.91419   6.73941  0.02226     0.49186   8989.89136   3819.85551  1.55672         4279.46123     16.92395    5e-05  58241.24269  3.24906   0.6267  164602.32278  45.52894   17.2095   58257.9175    50.43949        43.9904     9.3765  16.59018   23.0    0.91651   -20.4657  0.84332 
   -1.84914  0.07672   6.2896      14.6655  1.41056  1.43353    7.9655  0.02054     0.42559   8587.02358    3919.4414  1.63457         4564.75222     17.72341  0.00029  58241.33586  3.50369  0.61114  241799.31507  45.43754  17.19755   58257.2387    50.42323       43.97034     9.3765  17.00785   22.0    0.87068  -20.48007  0.85461 
   -1.96196  0.09751  6.56844     14.97794  1.79393  0.80565      6.56  0.02439     0.43612   8588.93891   3860.21691  1.61389         4430.58302     16.37731    1e-05  58241.22304  2.88676  0.63964   79555.48339  45.98706  17.17886   58257.2387     50.4383        44.0075     9.3765  16.46147   21.5    0.89598  -20.49454  0.88281 
