 log(Bfield)      Mns    Pspin  cutoff_power  cutoff_wavelength  fnickel    kappa  kappagamma   mejecta  log(nhhost)  temperature  texplosion  thetaPB      vejecta      A_V        MJD_0   log(KE)      M_Ni  Peak_mag     Peak_MJD 
    14.30289  1.91753  1.19087       1.01218         2600.25526  0.04547  0.01444     0.02911  21.95871     21.51512    6128.5526     -0.7609   0.7817  13311.87987  1.81906  58250.69591  52.91662   3.55002  14.49445      58270.1 
    14.06342  1.67673   0.8976       1.88049         2047.33562  0.01054  0.06669     0.26644   6.06769     21.54111   4564.74443     -2.8841  1.21599  12200.66819  1.93126  58248.57272  52.72273   0.62701  14.48484      58266.8 
    14.26235  1.72183  0.97104       0.04467         4038.38182   0.0253  0.04678     0.07277    9.5917     21.46163    9780.9047    -6.20807  0.82271   13831.0837  1.60828  58245.24875  52.87752   1.67259  14.51871  58273.42152 
     14.6655  1.70109  0.72473       0.06467          3942.3691  0.20588  0.08383     0.30727   5.33177     21.39243   3230.33509    -1.97682  0.46686  14331.00989  1.37139     58249.48  52.84864  11.85975  14.56026      58270.1 
    14.48643  1.76192  1.36975       0.24978         3304.63575   0.1365  0.11642      0.2465   3.69217     21.41312   3009.97737    -3.73396  0.58932  14856.63601  1.43828  58247.72286  52.83789   7.13786  14.57642  58271.49754 
     14.1868  1.74112  1.03866       0.13053         3330.57705   0.0158  0.12197     0.34039   3.12392     21.50782   3811.23399    -2.06995  0.81344  15551.66728  1.78874  58249.38687  52.85705   0.78807  14.58867      58270.1 
    14.32892  1.88757  0.86372       0.00783         4507.31717  0.01388  0.03265     0.49912   17.6788      21.5083   5716.72256    -3.68013  0.79467  17670.37842  1.79073  58247.77669  53.14483   1.03993  14.57597      58270.6 
    14.62934  1.53598  1.01348       0.60819          2109.7735  0.30153  0.07095     0.13833   8.59486     21.32175   4262.49014    -1.83752  0.63116  17608.64521   1.1654   58249.6193  53.07671  19.45185  14.51556  58273.16159 
    14.31758  1.80752  1.23111       0.38096          2191.6872  0.05907  0.03214     0.34089  14.48643     21.45973   8179.52966    -5.38896  1.12835  16513.43814  1.60123  58246.06786    53.069   4.25686  14.45268  58276.79775 
    14.51194  1.80448  1.58438       0.33737         5604.27276  0.09723  0.07709     0.23176   4.64919     21.34801   6700.55808    -3.68095  0.51423   9066.24816  1.23804  58247.77587  52.43574   5.40855  14.56512      58270.6 
    14.61052  1.52637  0.90615        0.0486         4090.62109  0.10777  0.02458     0.08926  26.24128      21.3299   9768.38172    -3.48612  0.66139  16393.99834  1.18747   58247.9707  53.11161   8.69187  14.47209      58273.2 
    14.34364  2.00011  0.88015       0.52688         3887.31577  0.01135  0.04859       0.456   7.35614     21.49976    7767.1862    -4.06725  0.79991  11438.53431  1.75585  58247.38957  52.68657   0.70667   14.6187  58269.52543 
    14.57619  1.79732  0.75275       0.11719         4736.31009   0.2348  0.06464     0.40485   5.41826     21.45611   5963.65815    -1.86091  0.51219  15008.80883  1.58796  58249.59591  52.89053  13.58029  14.58322      58272.3 
     14.2166  1.55103  0.80964       0.53298         2682.97957  0.20205  0.04498     0.14324  10.76743     21.51378   8183.20388    -2.80586  0.85424  15968.19832  1.81345  58248.65096  53.01317  13.69277   14.6094      58272.3 
    14.20629  1.63698  1.30707       2.20879          2147.2624  0.01755  0.02382     0.22944  20.26913     21.48375   9886.90224    -2.12047  0.86663  11561.22831  1.69231  58249.33635  52.78766   1.34991  14.54659  58269.52543 
    13.43928  1.69087  1.86406       0.51194         2119.95195  0.00789  0.13155     0.01376    2.2523      21.4361   5211.73146    -10.4607  0.87365  12371.43027  1.51643  58240.99612  52.61505    0.3562  14.52505  58271.49754 
    14.10787  1.65467  0.87212       0.34442         2105.54794  0.00271  0.12653     0.49028   2.65335     21.47979   9845.15092    -2.43437  1.31535  15106.94203  1.67694  58249.02244  52.81079   0.12882  14.50808  58271.49754 
     14.4444  1.89679  1.20305        0.1093         5996.92346  0.04318  0.03566     0.49776  14.24276     21.42083   3813.14162    -4.82409  0.85788  11361.49853  1.46406  58246.63273  52.74271   3.10095  14.50049  58271.49754 
    14.03362  1.60646  1.31682       0.36505         2305.98007  0.06381  0.07127     0.09257   7.47618     21.48403   9054.76106    -5.73031  1.18345  12164.27263  1.69337  58245.72651  52.74163   3.98741   14.5206      58270.1 
     15.0217  1.68399   1.1834       0.08618         2049.77383  0.07656  0.04097     0.13443  11.69792     21.35292   8780.92542    -2.94066  0.17973  17538.90072  1.25212  58248.51616  53.10228   5.27987  14.63487      58271.2 
    14.18557  1.94243  1.05633       0.18629          2536.6114  0.05622  0.07487     0.27207   4.98998     21.47775   3041.22472    -3.43659  1.52399  14533.17671  1.66908  58248.02022  52.85352   3.18471  14.61293  58271.49754 
    14.32522  1.71437  0.74002        0.3728         2443.97168   0.0246  0.05454     0.18101   5.92941      21.4909    8230.2691    -1.76506  0.66899  12594.37813  1.72039  58249.69176  52.74787   1.45514  14.64557      58270.6 
    14.53411  1.69431  0.81175        0.0698         3721.97789  0.16781  0.07362     0.19202   5.40388      21.4951   6406.01488    -3.16156  0.38415  14027.91849   1.7371  58248.29525  52.83153   9.69922  14.56248  58271.49754 
    14.57071  1.45793   1.7872       0.11316         5208.74611  0.15214  0.07528     0.12284   6.56306     21.39487   7335.19109    -2.93523  0.34202  16758.55221  1.37909  58248.52159  53.00664   9.22111  14.56893      58270.1 
    14.36983  1.82832  1.48786       3.79415         2065.14925  0.04477  0.04987     0.26339    9.9256     21.47882   5398.44185    -1.21267   0.6881  12615.66109  1.67321  58250.24415  52.80087   2.98132  14.51703  58269.52543 
    14.64492  1.65815  1.00061       0.28899           2178.349  0.46428  0.12307     0.41729   3.83418     21.45732   7479.83057    -2.65617  0.36501  16719.76521  1.59238  58248.80065  52.94502  24.53109  14.56697      58270.5 
    14.67284  1.91456  0.70211       0.60882         2698.30854  0.16309  0.04601      0.3273  13.60803     21.46402   3886.23579    -3.71223   0.5464   13620.4667  1.61716  58247.74459  52.89622  11.60481  14.59678  58273.16159 
    14.22216  1.56316  1.76566       3.64597         2110.93541  0.00254   0.2107     0.48735   3.11493     21.48691   4897.28564      -1.522  0.77285  13596.16632  1.70464  58249.93482  52.73997   0.12651  14.49374  58271.49754 
    14.21534  1.68519  1.38385       0.09554         5302.73145  0.06113   0.0673     0.09062    3.5721     21.46122   8382.31618    -4.11638  0.64671  12329.93405  1.60675  58247.34043  52.67198   3.16732  14.53244      58272.3 
    14.05913  1.38045  1.07727       0.90524         2149.77525  0.16342  0.12251      0.1829    3.0921     21.43224   8332.54477    -1.31265  1.36683  13859.84007  1.50303  58250.14417  52.75572   8.12626  14.42349      58273.5 
    14.29604  1.96646  1.24782        0.4682         2115.09319  0.06183  0.08325     0.32745   4.94004     21.47022    3082.1793    -1.58857  1.14475   15045.2502   1.6404  58249.86824  52.88248   3.49333  14.61629      58271.2 
    14.25575  1.89407  1.58517       0.16967         2958.22151  0.03053   0.2729     0.48235   1.72741     21.43697   9070.03035    -5.26442  0.91639  15366.38827   1.5195  58246.19239  52.76478   1.26089  14.57432      58270.6 
    14.16134  1.73814  1.28351       0.97662         2009.85984  0.11203  0.02322     0.10764  17.20504     21.49521   6988.49145    -1.59979  1.27615   14532.6026  1.73756  58249.85703  52.97275   8.35139   14.5362      58270.6 
    14.51418  1.88397  0.90013       0.20093         3054.33782  0.10078  0.02949     0.28144  14.42174      21.4134   3850.09306     -3.6725  0.77936  11743.68696  1.43923  58247.78431  52.77254   7.25551  14.55296      58274.2 
    14.65725  1.94966  1.06339       0.16282         2971.69961  0.41048  0.10883     0.34272   5.66391     21.41247   3016.17757    -2.32643  0.55955    16003.907  1.43613  58249.13038  52.95108  24.00413  14.60679  58271.49754 
    14.34367  1.61573  0.77735       1.60375         2039.12072  0.04145  0.01335     0.06528   57.9421     21.40501   7851.14913    -4.20793  1.54752  15139.04349  1.41168  58247.24889  53.10012   3.81831   14.3951  58271.49754 
    14.83335  1.99325  1.41296       0.01162         5090.66182  0.00106  0.06583     0.32912   6.69059     21.36662   7491.83432    -4.21387  0.30863  15056.47781  1.29224  58247.24295  52.91561   0.06431  14.66825  58269.52543 
    14.77847  2.05067  0.77648       0.14575         2074.87386  0.01349  0.06979     0.29895   5.79933     21.45309   7110.93332    -1.33005  0.37196   15795.5456  1.57693  58250.12676  52.94222   0.79374  14.60467      58269.8 
    14.37129  1.49569  1.46453       0.06861         3930.05921  0.23697  0.07919     0.16136   6.21399     21.32118   9346.64506    -0.89094  0.96658  16360.87623  1.16389  58250.56588  52.98008  14.17562  14.62229      58271.2 
    14.65205  1.83844  1.00804       4.42549           2015.275  0.00207   0.0143     0.25411  32.72909     21.51397   7717.73391    -1.79241  0.29114    8350.6228  1.81425  58249.66441  52.54255    0.1737  14.63666  58269.52543 
    14.51153  1.76722  1.38283       0.30402          2170.2319  0.26087   0.0491     0.41562   6.84363     21.34387   9431.99467    -3.31998  0.80091  14542.83941  1.22631  58248.13683  52.88778  15.96939  14.51532      58266.9 
    14.63715  1.69336  1.00984       1.23995         2294.47961  0.02664  0.02246     0.08868  20.97988     21.50979   4306.41729    -1.33102  0.30906  14808.53166  1.79689  58250.12579  53.00548   2.06246  14.64978  58269.52543 
    14.01808  1.58853  0.76155       4.28033         2173.96771  0.02183  0.01522     0.02599  16.92838     21.59872   4677.17183    -1.10623  1.09546   6807.94592  2.20518  58250.35059  52.31272   1.62224  14.56587      58272.3 
    14.64155  1.67926  1.10345       0.31792         2292.01531  0.00241  0.04543     0.12648  10.80614     21.43109   8575.24693    -3.56967  0.31699  14137.46437  1.49904  58247.88714  52.90774   0.16335  14.57819      58271.2 
    14.36862  2.13738  1.26651       3.39461         2029.90287   0.0026  0.04026     0.26385    8.5612     21.53376   8676.80243    -0.87582  0.74003   9665.32368  1.89884    58250.581  52.55531   0.16758  14.45293      58270.5 
    14.35484  2.05039  0.90158       0.19865         5417.13962  0.05008  0.08031     0.48211   3.95004     21.48581   3502.14974    -1.44772  1.15704  13964.59342  1.70035   58250.0091  52.79214   2.66767  14.54921      58270.6 
    14.51499  1.89397  0.84163       1.11458         2395.50061  0.37611  0.08528     0.12691    6.2381     21.43052   8902.54782     -2.0521  0.94678  15468.97619   1.4971  58249.40472   52.9318  22.51969  14.62094      58271.2 
    14.30628   1.9556  0.99061       0.61515          3053.3712   0.0411  0.03214     0.23863  12.76905     21.50249   9143.56938     -1.8608  1.02679  14746.98931  1.76692  58249.59601  52.95959   2.88676  14.52293      58274.5 
    14.44377  1.79407  0.97875       4.81105         2182.86035  0.06946  0.01545     0.36162  28.54354     21.41906   3522.08092    -0.51453  1.04904  10177.16085  1.45811  58250.94228    52.704   5.68675  14.51483      58272.3 
    14.89327  1.80133  0.90143       0.00287          3310.5416  0.00659  0.01642     0.26757   29.0523     21.44834   3328.57646    -9.35865  0.16864  13029.94157  1.55981  58242.09816  52.91998   0.54087  14.64148  58271.49754 
    14.68711  2.06443   0.7633       0.35492         2302.63696  0.24644  0.09937     0.31524   6.13166     21.47848   5851.31419    -1.26161  0.50708  17572.88372  1.67189   58250.1952  53.04075  14.69427  14.55476      58273.5 
      14.758   1.7693  0.71708       0.02809         2335.95908  0.28145  0.02643     0.02461  14.22095     21.39743   9146.76215    -1.74913  0.40145   15239.0596  1.38727  58249.70769  52.99762  20.20574  14.65994  58271.49754 
      14.722  1.95709   0.9098       0.14943         2473.28612  0.00162   0.0763     0.39715    5.2612     21.49812   5708.08986    -2.93485  0.32728  16059.18704  1.74922  58248.52196  52.94608   0.09273  14.68082      58272.3 
    14.56616   1.9343  0.81381       0.06852         2234.91714  0.02827  0.14017     0.25566   3.42531     21.48085   3050.15097    -1.97544   0.4449  16891.22544  1.68104  58249.48138  52.94027   1.44781  14.58137  58271.49754 
    14.14101   1.7141  0.92168       0.60047         2539.29859  0.00233  0.03141     0.42532  12.23918     21.51344    7084.9394    -1.52799  1.24525  15013.34884  1.81205  58249.92883  52.97133   0.16245  14.65646  58269.52543 
    14.34673  1.65889  0.99815       0.06971          2472.0766  0.17522  0.03988     0.17778  12.60151     21.43655   9600.38383    -1.61333  1.19137  18279.17875  1.51801  58249.84348  53.14491  12.27318  14.60257  58269.52543 
    14.29894  1.61292  1.69685       0.38269         2181.03726  0.34951  0.28619     0.45509    1.5149     21.42955   3734.60223    -2.89508  0.69481  15167.70218  1.49375  58248.56174  52.73304  13.77312  14.40603      58272.3 
    14.54385  2.11849  0.83053       0.31716         2631.74272   0.0161  0.03514     0.07847   9.28597      21.4818   9500.48016    -2.04669  0.57179  13550.85794  1.68472  58249.41013  52.85665    1.0567   14.5628      58270.6 
    14.55109  1.99984  0.93174       4.78596         2072.67209  0.11862  0.03862     0.32153   8.46235     21.52542   7542.47775    -0.41487  0.51064   7980.34228  1.86273  58251.04195  52.38778   7.62581  14.51309  58271.49754 
    14.27974  2.03907  0.97467       0.22215         2305.05066  0.01159  0.02302     0.38166  17.96979      21.4637    3774.4962    -4.12197  1.29494  13386.47137  1.61594  58247.33485  52.90504   0.87128  14.54296      58266.9 
    14.26686  1.70014  0.93905        0.6097         2266.12625  0.42345  0.09216     0.49677   4.47774     21.46322    5214.0707    -2.38388  1.40163  15638.72294  1.61417  58249.07293  52.90503   23.3238  14.55365  58269.52543 
    14.39122  1.61703  1.14777       2.69778         2176.22143  0.00342  0.03981      0.0442   9.18918     21.47882   3099.00363    -1.33867  0.55983  10002.25595  1.67319  58250.11814  52.59191   0.22391  14.39253  58269.52543 
    14.14076  1.70128   0.7398       0.01808         2417.43335  0.00176  0.03181     0.12777   9.98526     21.46244   4509.78165    -2.28117  1.48898  14167.64002  1.61129  58249.17564  52.90221   0.11758  14.46652      58270.6 
    14.47636  1.52172  0.97983       0.16568         3609.44121  0.05787  0.02398     0.20781  14.96732     21.40759   7078.34625    -3.01653  0.47646  14703.11916  1.42008  58248.44028  52.97098   4.19716  14.41215      58270.5 
    14.22792  1.74206   0.8303       0.15856         4601.27291  0.00336  0.04255     0.19955  14.31327     21.43612   8436.80296    -7.28429  0.94362  12084.86724  1.51653  58244.17253  52.79676   0.24183  14.51837      58270.6 
    14.63424  2.01391   0.9123       0.04807         3472.10536  0.40097  0.09316     0.14891   4.60687     21.36709    9931.9358    -4.76266  0.69018  10488.65297  1.29366  58246.69416  52.56129  22.25044  14.53463      58272.3 
    14.25345  1.69915  1.49345       4.28266         2028.63862  0.00116  0.07152     0.33816   4.28909     21.50719   4835.80395    -1.54878  0.76419  11802.49937  1.78615  58249.90803  52.65564   0.06294  14.56281      58270.6 
    14.70075  1.65656  0.85855       0.09567         2167.49732  0.21138   0.0608     0.23127   8.98976     21.44706   4523.47072    -3.27071  0.39861  17102.40919   1.5552   58248.1861  53.05572  13.77367  14.49945  58271.49754 
    14.42203  1.99154  1.43455       0.04201         2956.47937   0.0701  0.02715     0.05487  18.24961     21.40989   6048.78947    -3.08151  0.86874  15933.27847  1.42765  58248.37531  53.05761   5.28574  14.50029      58274.5 
    14.16927  1.86201  1.63031       4.40223         2000.85708  0.05615  0.05936     0.07126   5.54426     21.55583   4657.12716    -3.78578  0.78376  10299.03205  1.99784  58247.67104  52.56592    3.2662  14.51995      58270.1 
    14.73498    1.771  2.11894        0.4519         2532.60915   0.0574  0.15749     0.30608   2.17045     21.38622   5472.48051    -1.71442  0.30345  15323.92143  1.35192  58249.74239  52.79577   2.56049  14.58152  58269.52543 
    14.43636  1.91573  1.14777        0.2868         3124.87282  0.02583  0.04296     0.29815   6.26641     21.38088   3978.67272     -1.2729  0.91575  13650.66426  1.33538  58250.18392  52.82366   1.54807  14.57312      58272.3 
    14.15153  1.95134  0.96651       0.08062         2142.36455  0.05809  0.11626     0.23068   5.07746     21.55121   5268.37124    -2.80816  1.27796  18164.71534  1.97669  58248.64866  53.04918   3.30514  14.63586      58271.2 
    14.25036  1.76203  1.03744       1.38549         2165.47544  0.13037  0.05557     0.23632   6.63784     21.49637   3867.27811    -1.64681  0.84291  10667.55622  1.74218     58249.81  52.61547   7.92295  14.52215      58270.5 
    14.71731   1.6822  0.71875       0.08354         5475.23616   0.1361  0.06557     0.29729   5.76502     21.48917   4082.75953    -3.19201  0.28454  15722.05033  1.71357  58248.26481  52.93754   7.99387  14.57154      58269.8 
    14.45551  1.76964  0.70121       0.00584         2024.85337  0.00211  0.02276     0.15186  13.77148     21.42224   9970.87202    -1.94237  0.61903  15353.65661  1.46883  58249.51445  53.00131   0.15052  14.68024      58271.2 
    14.27621  1.78512  0.98646       0.34406         2101.50813  0.04285  0.01927     0.09065  18.92874     21.47789   7337.74204    -4.40835  1.02326  15171.37769  1.66962  58247.04846  53.01808   3.25388  14.57354      58271.2 
    14.39988   1.5622   1.3701       0.80757          2034.5336  0.12562  0.03148     0.28276  19.30742     21.31911   6784.13654    -2.36134   1.4943  16766.89006  1.15834  58249.09547  53.10657   9.57386  14.66642      58271.2 
    14.36389  1.48557  0.70884       0.19529         2954.09858  0.13144  0.03549     0.07797  11.59402     21.46687   5297.45344    -4.70535  0.50752  12853.02104   1.6278  58246.75147  52.83147   9.04837  14.64672      58272.3 
    14.23617  1.47379  1.00063       1.60001         2278.02105  0.06903  0.01148     0.01667  28.40156     21.46139   3410.09989    -0.84934  0.72781   10019.3976  1.60737  58250.60747  52.69004   5.64619  14.50919      58272.3 
     14.6168  1.80103  0.74012        0.1352         2354.71445  0.01724  0.01831     0.40817  21.64245     21.47123   6109.35699    -2.40759  0.38498  14900.90213   1.6442  58249.04923   53.0134   1.34222  14.50263      58270.6 
    15.05306  2.04297  0.95485       0.56699         2302.68359  0.05409  0.05486     0.34348   8.11898     21.47021   5309.89264    -1.83947  0.20684  16299.60957  1.64036  58249.61735  53.00403   3.44491  14.54501      58270.6 
     14.2365  1.72303  1.79659       1.32147         2059.59932  0.03119  0.19689     0.32574   1.94695     21.42388   3484.80113     -1.8993  1.03196  15679.70471  1.47438  58249.55752  52.80013   1.34236  14.69284      58272.3 
    14.32586  1.55628  0.92561       0.33085         3171.07052  0.10206  0.04876     0.40393    6.5823     21.45678     6878.824    -1.31327  0.66264  14237.49825   1.5904  58250.14355  52.86534   6.19025  14.69009      58274.2 
    14.09043  1.63164  0.75033       0.66615         2154.56482  0.00371   0.0469     0.10234  10.99836     21.54317   3953.53248    -3.30107  0.98414  13464.56879  1.94044  58248.15575  52.86701   0.25263  14.69075      58271.2 
    14.08849  1.75809  0.73218       0.16057         3791.32083  0.02262  0.07007      0.2496   4.70647     21.48008   4796.26444    -3.06545  1.22184  12938.51971  1.67807  58248.39137  52.74604   1.26244  14.57313      58271.2 
    14.87374  1.90939  0.87376       0.02687         3172.76996  0.03029  0.01241     0.22249  42.51244     21.33854   7600.83753    -2.83184  0.37876  15226.70391  1.21136  58248.62498  53.08349     2.654  14.61969  58271.49754 
    14.64087  1.75683  0.85207       0.13982         2025.94816  0.14511  0.03626     0.18179  13.50568     21.48045   5383.44451    -1.98956  0.31991  16861.85718  1.67948  58249.46725  53.08098  10.30922  14.46022      58271.2 
    14.35246  2.16427  0.83481        0.1427         3132.03587  0.01251  0.01477     0.44341  36.50173     21.51281   3879.81303    -5.86783   0.9797  13986.42916   1.8094  58245.58899  52.99863   1.06831   14.6476  58271.49754 
    14.92319  1.87354  1.19158       0.14768         2913.34085  0.48359   0.0807     0.16602   5.07399     21.37519   4253.79138    -2.36987  0.28683  15228.88942    1.318  58249.08695  52.89599  27.51077  14.80243      58272.3 
    14.31859   1.9267  0.77614       1.63651         2150.02454  0.06276  0.03981     0.34954  15.00286     21.55074   7911.44846    -1.29616   1.0033  15909.14267  1.97454  58250.16066  53.03966    4.5542  14.53074      58273.8 
    14.08548  1.56845   0.8125        0.0432         5229.28338  0.11075  0.03658     0.05315  10.73994     21.45676   7622.72977    -1.27656  1.48974  14382.96304  1.59032  58250.18026  52.92212   7.50124  14.39342      58270.1 
    14.21864  1.85643  1.12827       0.47984         2395.95663  0.00123  0.06425     0.27823   8.97759     21.43786   6229.19222    -7.14827   1.2592  13200.45872  1.52261  58244.30854  52.83065   0.08023  14.61604  58271.49754 
    14.47794  1.47182   1.2408       0.01331         4878.29283  0.01132  0.28283     0.35434   1.80456     21.44556   9856.62298    -6.93705  0.31663  14893.97005  1.54984  58244.51977  52.74425   0.47455  14.69289      58275.2 
    15.00555  2.04808  0.91526       0.24025         3080.17302  0.15849  0.05476     0.09366   7.75508     21.43168   5953.55479    -1.41846  0.22922  15151.01667  1.50111  58250.03835  52.93601   9.98873  14.55156      58269.8 
    14.20089  1.54504  0.94262       0.11167         3230.25364  0.00341  0.03816     0.11582   9.37886     21.38438   6305.28952    -2.23631  0.92342  13064.56368   1.3462  58249.22051  52.82586   0.22406  14.54697  58269.52543 
    14.84329  1.57457  0.99366        4.5184         2108.27446  0.00323  0.02443     0.21767  16.18337     21.52947   7223.03823    -0.68022  0.18683  12269.05392  1.88019   58250.7766  52.82049   0.23759  14.59429      58270.6 
    14.87346  1.69747  0.91039       0.43326         2214.28064  0.19391  0.05316     0.06885  17.02857     21.31155   8947.32865    -2.64297  0.42268  17857.89258  1.13837  58248.81384  53.15085  14.42687   14.6165      58272.3 
    14.31632  2.07024  1.79391       0.60747         2275.37324  0.01897  0.07831     0.27724   4.60203     21.44477   9952.68071    -2.83835  0.99673   14727.4119  1.54702  58248.61847  52.85599    1.0522  14.54474      58270.5 
    14.54307  2.09207  0.70719       0.13186         2732.64199  0.06303  0.01824     0.42153   37.4596     21.44663   7112.79383    -1.33996  1.45343   19726.1434  1.55366  58250.11686   53.2992   5.40779  14.52546  58273.16159 
    14.55527  1.55906  0.86091       0.02984         3000.78184  0.07635  0.10453     0.47916   4.42745     21.52459   3340.56002    -6.22157  0.28306  16034.67843  1.85916  58245.23525  52.92545    4.1931  14.46882      58272.3 
     14.5701  1.98631  1.28353       0.08146         4422.05294   0.3927  0.13567     0.38279   3.17222     21.34418   4895.35195    -1.53998  0.99369  16539.49117  1.22717  58249.91683  52.91247  19.67253  14.54833      58270.6 
    14.13919  1.60864  0.73377       0.28256         2720.83042  0.00233  0.02972     0.09494  22.51464     21.48386   6194.02897    -2.73417  0.94548  13683.98875  1.69273  58248.72265  52.94257   0.18256  14.63592      58266.9 
    14.46029  1.49445  1.07937       0.01363         4827.72659  0.03048  0.09156     0.46672   4.64624     21.41965   4875.80191    -1.53491  0.50208  17319.96763   1.4601   58249.9219  52.99791   1.69516  14.58698      58273.8 
    14.27909  1.67157  0.84827       0.28398         2244.80675  0.01634  0.03365     0.49241   9.87465     21.49341   8501.22442     -1.7085  0.70121  15287.55654  1.73038  58249.74831  52.96724   1.08663   14.6282      58272.3 
    14.35879  1.95985  0.75789       0.07871         2524.66415  0.22808   0.0719     0.09752   8.51995     21.48073   3069.05778    -2.60004  1.08153  17679.57204  1.68057  58248.85678  53.07935  14.68488   14.4995  58269.52543 
    14.60317  1.75585  0.90344       0.53353         3917.05949  0.24834  0.03714      0.0759   6.30702     21.50258    4877.9557    -0.89211  0.37063  11772.95262  1.76729   58250.5647   52.6958  14.90868   14.5903      58270.6 
    14.33524  2.04806  0.88434       0.30142         2241.47897   0.0424  0.10143     0.43943   4.61888     21.55081   9904.36973    -2.47896   0.7702  16090.15596  1.97488  58248.97785  52.93327   2.35429  14.52239      58270.1 
    14.66909  1.77299   0.9531        1.5579         2087.05026  0.15524  0.02752      0.0388  18.65603     21.48301   3715.31606    -0.65209   0.3775  13504.89992  1.68942  58250.80472  52.91581  11.75448   14.6334      58272.3 
    14.68941  1.34195  0.93371       0.69872         2063.67957  0.44015  0.14902     0.44564   4.11103     21.25734   8713.72021    -1.59594  0.58803  20320.30953  1.00478  58249.86088  53.12263  23.69968  14.71306      58273.5 
    14.56904  1.69715  1.89527       0.33727         3584.65366  0.43592  0.10682     0.18692   4.16414      21.3063   7949.41132      -1.496   0.7023  14804.22966  1.12469  58249.96082  52.84904  23.55291  14.81527      58274.2 
    14.24715  1.62426  0.75403       0.05381         2270.55635   0.1063  0.04359     0.24818  15.32454     21.44902    7654.9744    -2.61138  1.36812   19949.6746  1.56223  58248.84543  53.23807   7.74671  14.52979      58273.8 
     14.3818  1.85008  0.90101       2.35246         2412.14063  0.04311  0.02364     0.17767   13.5521      21.4563   9134.71948    -2.71014  0.79118   6970.29365  1.58864  58248.74668  52.31397    3.0648  14.48673      58271.2 
    14.25247  1.75439  0.71312       0.45288         2545.34023  0.00915  0.05716     0.25022    5.0647      21.5048   8004.90066    -2.24094  0.75991   12520.3986  1.77635  58249.21587  52.72568   0.52047  14.58362      58272.3 
    14.17048  1.74276  1.24058       0.00829         4754.57145  0.01548  0.08439      0.2756   6.05574     21.46445   4281.79356    -6.76449  1.10993  15333.76312  1.61875  58244.69232  52.92105   0.92019  14.56909      58266.9 
    14.59591   1.9686  0.77385       0.02139         2448.05445  0.21083  0.04496     0.09261  11.19576     21.41841   4100.86657    -1.84653  0.70076  17086.44347  1.45592  58249.61029  53.07556  14.40663  14.63222  58271.49754 
    14.15614   1.6439   0.9698       4.16507         2019.48483  0.01549  0.01116     0.09819  31.48941     21.53269   8989.53387    -0.81289  0.98155  10013.71453  1.89417  58250.64393   52.6974   1.28973  14.62784  58269.52543 
    14.40336  1.60511    0.915        0.0817         2974.90447  0.07062  0.02613     0.10957  15.57005     21.41721   5048.08238     -3.3644  0.73636  16455.07314  1.45191  58248.09242  53.07216   5.16262  14.62888  58269.52543 
    14.13521  1.67125  0.88214        1.9545         2418.16541  0.01286   0.0768     0.22544   5.65932     21.54583   6741.02857    -0.59426  1.13365   13965.6795  1.95234  58250.86255  52.83266   0.75182  14.64323      58271.2 
    14.86051  1.96494  1.05753       0.30683         4383.83758  0.23425  0.03856     0.06955   14.9416     21.28808    5413.7187    -1.16399   0.6787  18379.78322  1.07848  58250.29283  53.16469  16.98495  14.51465      58269.8 
    14.23779  1.58423  1.46285        0.0515         2305.63447  0.00618  0.26366     0.01289   1.72158     21.40274   7621.35207    -8.90942  0.10017  17206.11411  1.40431  58242.54739  52.86248   0.25516  14.46318  58273.16159 
    14.24794  1.66754  0.80481       0.21106         5258.46293  0.00307  0.04796     0.05785   6.12568     21.47064   5226.05136    -1.98986  0.78608  13038.46522    1.642  58249.46696  52.78142   0.18298  14.87287  58273.16159 
    14.41093  1.63647  1.23987       1.19937         2214.26515   0.1066    0.132     0.34089    3.8843     21.41219   8449.89168    -1.48131    0.669  14046.66065  1.43523   58249.9755  52.79525   5.65238  14.50908      58266.8 
    14.08228  1.52685  1.16061       1.88164         2042.04587  0.00117  0.05922     0.08839   8.10674     21.48015   5922.91093    -1.61015  1.36627  13905.56132  1.67835  58249.84666   52.8659   0.07424  14.63261      58271.2 
    14.53717   1.9469  0.95526       0.05737         3472.52388  0.00825  0.03635     0.31226   9.64243      21.4753   5666.69314    -2.17375  0.43412  15244.78428  1.65968  58249.28307  52.96255   0.54604  14.51054      58272.3 
     14.2796  1.69238  1.05396       0.27293         2714.58493  0.00253  0.11651     0.27778   4.78564     21.49148   3284.31664    -1.58476  0.71492  15660.96522  1.72268  58249.87205  52.91378   0.14203  14.62653      58266.9 
    14.23962  1.68286  1.66621       1.53466         2164.25042  0.06783  0.13617     0.45858   3.07497     21.43873   5856.51092     -1.1706  1.07453  15903.40875  1.52567  58250.28622  52.87448   3.36746  14.59281      58270.6 
    14.13107  1.55344  0.91345       1.38962         2113.81604   0.0155  0.01716     0.08898  22.06289     21.51864   5762.55008    -1.55281  1.03561  13958.29331  1.83387  58249.90401  52.95819   1.21143  14.59124  58269.52543 
    14.47388  1.68863   0.7141       0.04597         3254.35819  0.05525   0.0223     0.39079  19.92364     21.45226   9939.31817      -1.424   0.6185  16099.21081  1.57393  58250.03282  53.07386   4.23594  14.50299      58273.8 
    14.17359  1.84835  0.87764       0.64833         2466.22546  0.07418  0.01354      0.0316  38.38534     21.52637   7233.72988    -0.95594  1.33464  17004.99648  1.86682  58250.50088  53.17205   6.39104  14.59718      58270.5 
    14.29588  1.90977  0.78429       0.18781         3217.07268  0.07731   0.0578     0.18021   6.64376     21.50411   3781.51903    -2.60422  0.96931  14268.51252  1.77351   58248.8526  52.86819   4.69915  14.55354  58271.49754 
    14.31753  1.89364  0.91176       0.05282         4266.58099  0.24976  0.10045      0.3057   3.72079     21.46431   8795.08687    -4.10652  1.07208  15598.03682  1.61821  58247.35029  52.88112  13.08788  14.61125      58272.3 
    14.48479   1.7574  0.78007       0.03658         4514.54296  0.01149   0.0408      0.2224   8.97167     21.45276   3341.71139    -1.67424  0.54768  14954.15715  1.57574  58249.78258  52.93894   0.74804  14.54468      58270.5 
    14.20435  1.54287  0.82254       0.78819         2110.50237  0.18631  0.04143     0.08141  11.90022     21.45603     6260.625     -2.7183   1.2547  14350.75569  1.58765  58248.73852  52.92958  12.89534  14.60044      58272.3 
     14.2943  1.95272   1.4388        0.0178         2611.59904  0.02261  0.11019      0.4019   2.76681     21.36364   4750.76251    -6.18791  1.23874  12957.46066  1.28341  58245.26891  52.68297   1.08815  14.66665  58269.52543 
    14.70885  1.94459  1.27648       0.94983          2350.6455  0.05432  0.01117     0.02909   30.9956     21.32597   5825.05204    -1.97628  0.58827  14020.80771  1.17678  58249.48053  52.98857   4.51145   14.4878      58270.6 
    14.16706  1.67295  1.04375       1.45058         2441.93291  0.01408  0.02689     0.09598  10.31665     21.53218   9505.02345    -0.89505  0.95171  10969.40477  1.89193  58250.56177  52.68304   0.94526   14.5426  58265.88927 
    14.58421  1.62395  0.70564        0.0389          2894.6314  0.04767  0.12335     0.49275   2.83434     21.45683   3244.15239    -0.88286  0.36533  15295.63159  1.59059  58250.57395  52.83021   2.31044  14.51137      58272.3 
    14.50194  1.81581  1.18026       0.01929         3268.65581  0.09675  0.04712     0.45527   9.61209     21.39896   7833.93328    -4.45037   0.6253  14699.26464  1.39216  58247.00644   52.9306   6.39814   14.5763  58269.52543 
    14.52773  1.66451  1.14722       0.94368         2208.47044  0.06135  0.03412     0.08714   14.1154     21.42112   6229.37448    -1.37196  0.54836  16820.03072  1.46503  58250.08486  53.08271    4.3982  14.63738      58270.6 
    14.27289  1.69174  1.01199       0.57315         2601.66698  0.00144  0.03297     0.12545   9.93775     21.50417   5884.75049    -0.91754  0.70702  14444.24652  1.77376  58250.53928  52.91855   0.09566  14.55454  58269.52543 
    14.24992  1.88844  1.47485       0.69244         2167.28601  0.02144  0.10486     0.23669   3.48516     21.43713   7332.76893    -2.36035  1.16305  13359.09437  1.52004  58249.09646  52.73862   1.10322  14.48223      58270.1 
    14.59456   1.8159  1.51019       1.09571         2100.01265  0.11759   0.0396     0.29061  18.45804     21.31569   9584.35772    -0.61812  0.78504  16629.55835  1.14925   58250.8387   53.0957   8.88532  14.63614  58269.52543 
    14.52323   1.6795  1.23557       0.24993         2603.30949  0.07186  0.03056     0.21405  18.98394     21.36082   6207.45512    -0.78439  0.74688  17632.67232   1.2751  58250.67243  53.14891   5.45906  14.53192      58269.8 
    14.38806  1.72947    1.206       0.21364          4466.0367  0.36098    0.118     0.32676   3.71864     21.43581   8120.06837    -3.06779  0.83529  14107.46572  1.51542  58248.38903   52.7938  18.91321  14.48961  58273.16159 
    14.25453  1.73737  0.79677       0.26685         2244.51591  0.05186  0.08382     0.46006   4.86609     21.49301   3893.60594    -1.41542  0.78553  14312.89267  1.72876   58250.0414  52.83746   2.91868  14.60058      58271.2 
    14.17787  1.81771  1.29712       0.36525         2458.05975  0.00285  0.04465     0.07686   7.87167     21.47958   3790.45826    -1.60892  1.30251  14395.77532  1.67613   58249.8479  52.89308   0.18035  14.58637      58270.5 
    14.19207  2.01213   0.8808       0.45655         2297.34686  0.49123  0.05877      0.2519   5.68255     21.53391   3928.86542    -1.08582  1.18484  12939.97054  1.89948  58250.37099  52.76684  28.74975  14.41738  58273.16159 
    14.12861  1.55428  0.88646       0.05857         3122.37202  0.00213  0.11467     0.27676   4.46923     21.51127   7589.94516    -2.81577  0.88211  16342.64905  1.80302  58248.64105  52.94305   0.11739  14.61917      58271.2 
    14.27496  1.53177  1.08081       4.61578         2114.57483  0.23359  0.07963     0.24946   4.83422     21.46592   4230.55427    -0.50041  1.11596  10687.79636  1.62422   58250.9564  52.58305  13.12514  14.72411      58266.9 
