 log(Bfield)      Mns    Pspin  cutoff_power  cutoff_wavelength  fnickel    kappa  kappagamma   mejecta  log(nhhost)  temperature  texplosion  thetaPB     vejecta      A_V        MJD_0   log(KE)      M_Ni  Peak_mag     Peak_MJD 
    14.03317  1.75139  3.39073       4.90586         3134.73191  0.00355  0.04712     0.02572   8.82113     20.41873    7856.6364    -1.59206    1.236  4085.11022   0.1457  58105.54794  51.81019   0.23065    19.959      58153.1 
    14.16233  2.11861  3.17679       1.27894         3606.09804  0.05582  0.08261      0.0207   4.32025     20.59289   6025.95151    -1.15588  1.32544  5088.32137  0.21758  58105.98412  51.92567   3.04555  19.97631      58153.1 
    14.23523   1.1918  2.13028       1.79915         3572.11353  0.00194  0.01571     0.06449  16.77701     20.67588   5553.80536     -1.3469  0.31202  3866.95474  0.26339   58105.7931  51.82067   0.14415  19.95707     58154.08 
    13.93308  1.54845  2.72051       4.24818         3126.93042  0.05176  0.04855     0.16042  10.78562     20.57934   6152.79195    -1.37791  1.40509  4295.00058  0.21089  58105.76209  51.87274   3.50895  20.00384  58151.26912 
    14.18172  1.67014  3.59181         4.202         3134.60318  0.02993  0.04459     0.07776   8.55396     20.32672   5573.80859    -1.51675  0.74115   4670.8314  0.11788  58105.62325  51.92358   1.92878  19.98559  58156.55193 
    14.04071  1.34745  3.24698       3.44672         3212.64432  0.15996  0.02341      0.2849   8.27376     20.48997   9256.62349    -1.67372  0.62069  3855.29611  0.17167  58105.46628  51.75365  10.23083  19.96333     58154.08 
    13.94569  1.54051  2.85781       1.67449         3362.99055  0.00489  0.08085     0.02917   5.44587     20.29247   6585.94121    -1.37148  1.25077  5591.43605  0.10894  58105.76852  52.03344   0.28325  19.95774     58154.08 
      14.429  1.70852  3.62615       4.62438         3043.22737  0.15627  0.07207     0.02907     4.807     20.58575     9090.598    -1.41348  0.39835   4877.5671  0.21403  58105.72652  51.90105   8.76748  19.98465  58151.26912 
    14.04523  1.54445  2.80791       4.46426          3181.3024  0.00307  0.02196     0.01521  21.01086     20.55463   7267.14683    -1.48751  0.79487  3969.93772  0.19923  58105.65249  51.86215   0.23786  20.03649  58148.62772 
     14.0392  1.69975  2.90623       2.13615         3332.18397  0.08678  0.09141     0.12512   4.44716     20.68767   6421.50549    -1.58185  0.93968  5091.52012  0.27064  58105.55815  51.92954   4.77132    19.961     58154.08 
    14.14202  1.76759  3.39405       4.99607          3076.1856  0.11187  0.03076     0.02106  19.16169     20.38887   7001.85258    -1.50207  0.92506  4992.48942  0.13602  58105.63793  52.05367   8.51397  19.95864     58153.08 
    14.19387  1.89728  3.45376       4.91887         3161.88888  0.26192  0.05958     0.22074   7.02111     20.58547   4784.04688    -1.52866  0.82945   3797.0855  0.21389  58105.61134  51.72401  16.13051   19.9743     58154.08 
    14.13572  1.65297  3.87514       2.60635         3378.80058  0.20003  0.02009     0.05237  12.12146     20.17007   9957.08052     -1.4609  0.84964  4280.13588  0.08219   58105.6791  51.88042  13.89828  20.03474  58148.62772 
    14.15156  1.82295  3.02186       4.25504         3075.85455  0.00533  0.04921     0.41448   8.06838     20.75894   6231.32566    -1.37029  0.79222  3989.68747  0.31891  58105.76971  51.78093   0.33895  19.94664  58151.26912 
     14.0634  1.84313  3.14411       3.97421         3232.10199  0.00366  0.02318     0.05102  21.89519     20.33052   8147.17417    -1.22264  1.40634  3857.34855  0.11892  58105.91736  51.84049   0.28589  20.04413  58148.62772 
    14.22419  1.66868  2.72819       1.89955          3449.9381  0.06373  0.01111     0.01345  18.46421     20.74798   9715.27977    -1.38837  0.53669  3393.32711  0.31096  58105.75163  51.71522   4.81634  20.02784  58151.26912 
    14.09311  1.68143  3.33625       4.99508         3141.58319  0.11026   0.0255     0.03836  14.04596     20.55074   4653.72706    -1.49551  0.97147  3610.19981  0.19745  58105.64449  51.74568   7.89597  19.97527  58151.26912 
    14.04627  1.54964  3.33835       4.86604         3101.74891  0.07418  0.05128     0.16814   6.28062     20.57071    6853.6248    -1.49515   0.9197  4297.57795  0.20675  58105.64485  51.82003   4.44877  19.98701  58151.26912 
    14.05368  1.92011  3.79219       2.34616         3296.55894  0.25492  0.01783     0.38816  14.63564     20.56568   6821.58661    -1.70166  1.31585   4291.9532  0.20437  58105.43834  51.89952  18.40753  19.94191      58153.1 
    14.16325  1.76568  3.18377       3.18824          3331.3065  0.00355  0.07191      0.3939   7.49515     19.96589   8132.46474    -1.28097  0.90797  4252.99636  0.05136  58105.85903  51.82911   0.22229  20.01404     58153.08 
    14.21051  1.74229  2.95154       1.10286         3554.27065  0.02225  0.02143     0.16276  19.84634     20.14507   8319.97463    -1.11582  0.79886  5612.68577  0.07759  58106.02418  52.15827    1.7043  20.02007  58151.26912 
    14.00294  1.68103  3.00831       1.18136         3326.18273  0.00668  0.11316     0.05866   3.70339      20.5159   8616.87113    -1.20709  1.41669  6954.23153  0.18223  58105.93291  52.17891   0.34976  19.98518     58154.08 
    14.06433  1.59363  2.54192       2.12997         3289.55924  0.14913  0.02367     0.32951  19.23089     20.53329   6073.62089    -1.24474  0.84727  4231.70738  0.18968  58105.89526  51.91037  11.35715  20.01548     58153.08 
    13.99966  1.64891  2.70351       1.17504         3652.42447  0.08607   0.0329     0.02519  12.70534     20.44757   6069.11053    -1.33881  1.38751  5296.86803   0.1557  58105.80119  52.06977   6.03903  20.03253  58148.62772 
    14.07776  1.85601  2.99835       0.23965         3413.06436  0.02876  0.13616     0.09527   4.49418     20.27573   8927.18781    -1.33144  1.27594  9290.53393  0.10482  58105.80856  52.45312   1.58557  19.94012  58156.55193 
    14.16202  1.81902  2.53695       1.75342         3500.50072  0.06936  0.03413     0.01026  10.21164      20.6569   4171.60185    -1.13578  0.78877   3737.5458  0.25213  58106.00422  51.74689   4.64713  20.00754  58151.26912 
    14.09202  1.45691  2.48957       1.84005         3334.66193  0.01109   0.0452     0.01546    6.3501     20.72989   5146.58138    -1.45316  0.59186  4483.11228  0.29828  58105.68684   51.8579   0.66706  19.96531  58156.55193 
    14.11287  1.88497  3.12088       1.27648         3300.53501  0.30786  0.09468     0.01743   4.63148     20.51878   9322.42354    -1.31388   1.0676  6052.73852  0.18344  58105.82612  52.08436  17.10746  19.96965  58156.55193 
    14.19226  1.73307  3.05967       2.06251         3458.27623  0.05905  0.02569     0.12452   10.9702     20.48599   9669.22472    -1.40692  0.67355  3789.53552  0.17011  58105.73308  51.76556   4.01747  19.87329  58167.11754 
    13.94101  1.59259  2.93767       3.04547         3237.11935  0.00177  0.06478     0.44833   7.89666     20.34661    8228.5224    -1.43229  1.56627  4789.35236  0.12341  58105.70771  51.93748   0.11206  19.97202     58154.08 
    13.99431  1.67979  3.22118        4.9985         3021.11304  0.04458  0.04055     0.42876   8.65424     20.66092    3558.2939    -1.53286  1.30627  3951.79993  0.25448  58105.60714  51.77951   2.88041  19.95252  58151.26912 
    14.06228  1.83921  3.42398       1.80496         3459.59145  0.00162  0.07889     0.04527   4.99645      20.3042   5961.63676    -1.42061  1.41683   5369.5736  0.11193  58105.71939  51.98882   0.09201  19.96868     58154.08 
    14.17167  1.95665  3.37613        1.8936         3547.92405  0.00207  0.03987      0.1274   9.52719     20.17338   7721.82313    -1.19091  1.08869  4302.63287  0.08281  58105.94909  51.86264   0.13684  19.97995  58151.26912 
    13.86283  1.47789   2.1444       4.82508         2996.78864  0.01669  0.07517     0.09925  14.75792     20.36121   8158.73309    -1.19504  1.41332  4866.63991  0.12762  58105.94496   52.0094    1.2069  20.02466  58148.62772 
    14.16657   1.8406  3.56837       2.13921         3371.85981  0.01134  0.02976     0.02955   7.01834     20.52711   9018.65983    -1.62501  0.69446  4175.08608    0.187  58105.51499  51.80639   0.69843  20.03176  58148.62772 
    14.20275  1.81973  3.81929       4.90036         3110.69731  0.04646  0.04751     0.09466   9.39569     20.22423   7490.08752    -1.57176  0.81171  4811.11007   0.0931  58105.56824  51.95833   3.05704  19.95598     58153.08 
    14.00932  1.53938  2.10695       1.05224         3493.31781   0.0262  0.01505     0.11136   24.4487     20.70394   3424.63332    -1.50555  0.74351   4875.6563  0.28097  58105.63445  52.05276   2.08619  19.98471  58151.26912 
    14.27238  1.81471  3.37261       1.96763         3512.41097  0.35412  0.02797     0.12065  10.63807      20.5402   7466.50221    -1.39765   0.6387  4182.54357  0.19272  58105.74235  51.84842  23.93679  19.92375     58160.04 
     14.2061  1.79697  3.42367       4.97214         3148.78416  0.04144  0.03428     0.30034  11.62866     20.32753   6750.83835    -1.41863  0.76013  3590.49528   0.1181  58105.72137  51.72404    2.8548  20.05872     58153.08 
    14.24079  1.95908  3.10045       1.31954         3388.22827  0.24542  0.06824     0.35684   5.45153     20.59669    4379.3077    -1.23418   0.7423  5587.07092  0.21949  58105.90582  52.03287  14.21615  19.95971     58153.08 
    14.08053  1.59548  3.13398       2.69902         3267.16754  0.00238  0.01934     0.33425  12.06486     20.60184   8314.59642    -1.69354   0.7017  3924.05666  0.22211  58105.44646  51.80455   0.16531  19.94217  58156.55193 
     13.9475  1.58985  2.94746       0.84282         3277.40761  0.14838  0.13728     0.03348   2.64947     20.46788    8515.6858    -1.42157  1.22991   7439.9333  0.16316  58105.71843  52.19538   7.04695  19.97414  58151.26912 
    14.04203  1.57681  2.22315        1.8692         3336.31657  0.34466  0.05827     0.02728   7.06899     20.76621   4441.88909    -1.49046  0.68721  4088.29578  0.32429  58105.64954  51.78888  21.25962  19.96984  58151.26912 
    14.07234  1.69549  3.36849       4.95802         3127.51824  0.02992  0.03616     0.05457  10.89487     20.43027   8979.58123     -1.5444  1.03309  3966.01193  0.14962   58105.5956  51.80446   2.03298  19.89564  58159.19333 
    14.13915  1.95473  3.13876       4.31062          3100.3326  0.03535  0.04316     0.16629  12.63543     20.44015    8829.0579    -1.29082  1.03989   3895.0335  0.15307  58105.84918  51.80226   2.47728  20.03238  58151.26912 
    14.41305  1.73481  2.98981       1.62866         3400.39985   0.0195  0.01107     0.02813  17.34489      20.7318   7910.57168    -1.72794  0.25171  4912.26829  0.29959  58105.41206   52.0313   1.45605   19.9505  58156.55193 
    14.12127  1.65443  3.34188       3.41828         3136.36024  0.04921  0.08119     0.37082   5.02305     20.18691   9472.57503    -1.46896  0.83303  4561.62984  0.08544  58105.67104  51.84777   2.79226  19.99497  58151.26912 
    14.05617  1.82067  3.27182       4.54615         3075.38334  0.03952  0.08188     0.02598   5.88563     20.55866   8204.52824    -1.61615  1.16642  4562.14031  0.20109  58105.52385  51.86507   2.33332   19.9982  58153.91053 
     13.8843  1.46044  2.42019       1.31226         3401.31911  0.12526  0.02024     0.01181  17.36292       20.602   6903.29712    -1.31336  1.28673  5062.80806  0.22219  58105.82664  52.05761   9.35468  19.97094     58154.08 
    13.97129  1.60583  3.18996        3.9625         3153.19095  0.09017  0.03585     0.07225  11.08248     20.62011    8081.9249    -1.47597  1.51023  4594.50328  0.23165  58105.66403   51.9338    6.1482  19.91935  58159.19333 
    14.03783  1.56861  3.00263       4.95115         2977.31502  0.01474  0.05436     0.01486   8.70732     20.53834   6396.62795     -1.4783  0.88499  4761.44196   0.1919   58105.6617    51.942    0.9539  19.98082  58151.26912 
    14.07436  1.87492  3.49222       4.61806         3074.65007  0.09807  0.05232     0.39641   9.60274     20.32209   6141.03587    -1.62224  1.22359  4490.72359  0.11663  58105.51776  51.90055   6.48388  19.94987  58151.26912 
    14.28222  1.80274  3.43954       4.97566         3080.97041  0.02979   0.0679     0.20253   7.85952     20.23066   5891.20338    -1.32957  0.67036  4537.18017  0.09449  58105.81043  51.89003   1.88295   20.0124  58151.26912 
    14.02489  1.61585  3.19949       4.90239         3158.53567   0.0264  0.02414     0.03773  24.38169     20.02303   7502.76515     -1.3686  1.33806   4626.9171  0.05858   58105.7714  52.00706   2.10111  20.00372     58153.08 
    14.03854  1.70282  2.87341       4.76464         3007.64176  0.00338  0.06347     0.05961   9.69306     20.43528   7702.77642    -1.32975  1.07283   4477.2142  0.15136  58105.81025  51.89882   0.22392  20.00558     58153.08 
    14.49152   2.1395  3.80556       1.67338         3433.25713  0.18792  0.04452      0.1703   9.46527     20.22799    8741.9567    -1.35847  0.48762  5342.93402  0.09391  58105.78153  52.05011  12.38471  20.04576  58148.62772 
    14.10213  1.60773  2.09745        1.7432         3596.51582  0.00362  0.01028     0.21593  26.55733     20.73006   6490.25728    -1.31932   0.5982  2925.41656  0.29839  58105.82068  51.61555   0.29263  20.01788  58151.26912 
    14.27554  1.71984  3.18866       1.69584         3685.51266  0.22284  0.02746     0.39898   8.90448     20.38986   7652.91242    -1.32242  0.60514  3808.85856  0.13633  58105.81758  51.75028  14.48921  20.00965  58148.62772 
    14.24312  1.51213  2.69295       1.31316          3487.9693  0.00665  0.01624     0.02915   19.6234     20.54102   3498.50133    -1.43405  0.44503  5390.83414  0.19308  58105.70595  52.12231   0.50842  20.02207  58148.62772 
    14.33406  1.88675  3.44681       1.59871         3468.11724  0.45757  0.07034     0.05726   5.22043     20.45452   8853.40707    -1.49061  0.55484  5268.98936  0.15822  58105.64939  51.97723   26.2183  19.92937  58156.55193 
    13.94591  1.65087  2.70549       1.63716          3317.5772  0.15875  0.05026     0.10561   7.44535     20.64769   3751.10378    -1.27646  1.42976  5161.63602  0.24684  58105.86354  51.99662   9.91114   19.9586  58159.19333 
    13.91225  1.36748   2.5139       3.35515         3281.70368  0.00229  0.04735     0.08625   9.59696     20.29961   9447.99933    -1.50547  0.96189  3713.76653  0.11075  58105.63453  51.73549   0.15152  20.00071  58148.62772 
    14.08956  1.80381  3.48214       4.45581         3142.14559  0.00114  0.07991     0.01408   8.21164     18.97292   4897.66561    -1.46471  1.23379  5213.13075  0.00522  58105.67529  52.01499   0.07263  20.00427  58148.62772 
     14.2459  1.72538  3.09164       1.88395         3493.58676  0.48292  0.01982     0.03581  14.69978     20.49455   7716.04366    -1.05383  0.79071  3702.68754  0.17349  58106.08617  51.77163  34.90135  19.98622     58154.08 
    14.10067  1.86661  2.78001       1.60839         3407.31737  0.00336  0.03123     0.37812  14.22139     20.56684   8460.62674    -1.24859  0.91947  4840.05511  0.20491  58105.89141  52.00141   0.24155  19.95119  58151.26912 
    14.16509  1.70697  3.11845       1.71221         3474.23765  0.48714  0.01957     0.04392  14.86112     20.61619   9835.21636    -1.34618  0.83433  4246.80403  0.22957  58105.79382  51.89167  35.28291  19.96017  58153.91053 
    13.87084  1.21338  2.74881       3.41283         3201.42133  0.03873  0.03607     0.05849   8.27297     20.42361   9886.77175    -1.55016  0.95711  4114.29247  0.14734  58105.58984  51.81011   2.47679  19.95969     58153.08 
     14.1222  1.60986  2.89194       4.92489         3006.03902  0.01623  0.08424     0.01126   6.49547     20.56985   4302.07112    -1.49175  0.72451  4650.99275  0.20634  58105.64825  51.89219   0.98124  19.92208  58164.47614 
    13.95693  1.77241  2.46308       1.63389         3497.36033  0.00832   0.0356     0.01065   9.42284     20.71497    9615.6417    -1.32694  1.29991  3937.03121   0.2882  58105.81306  51.78446   0.54774  19.95999  58156.55193 
     14.0789  1.97312  2.71138        0.8512         3434.53293  0.00969  0.06597     0.16339   7.78956     20.55035   5369.67833    -1.26311  1.35758  6303.43727  0.19728  58105.87689  52.17472   0.61121  19.98428  58151.26912 
    14.14091  1.97144  3.27117       4.88307         3031.00412  0.14827   0.0529     0.23476  11.87533     20.51036   6664.14413    -1.17212  1.23908  4603.63986  0.17992  58105.96788  51.94185   10.2579  20.00032  58151.26912 
    13.86124  1.35913  2.44538       4.28672         3044.11723  0.21352  0.07189     0.02218  10.15927     20.30538   3782.98379    -1.48265  1.49066  4741.16214  0.11223  58105.65735  51.95301  14.29048    19.979     58154.08 
    13.94663  1.35783  2.96933       4.91726         2985.27302  0.17636  0.06181     0.03437    6.8012     20.55485   8769.89346    -1.57027  0.92608  5038.74256  0.19933  58105.56973  51.96649  10.77984  19.99269     58154.08 
    14.02995  1.71547  2.69076       1.54457          3403.0025  0.04121  0.01097     0.02267  41.24034     20.54367   9220.41123    -1.36645  1.03805   5019.6793  0.19427  58105.77355  52.11745   3.59295  19.96887     58154.08 
    14.36813  1.80517  3.81625       4.14637         3120.23413  0.18421  0.08972     0.04209   4.63513     20.36766   4018.58005     -1.5171  0.50953  5137.88441  0.12954   58105.6229  51.94211  10.23855  19.99983  58151.26912 
    14.21589  1.50313  3.02308        4.5501         3178.85382  0.02392  0.03744      0.0387  11.78576     20.09453   3161.34868    -1.30422  0.58474  3800.80987  0.06907  58105.83578  51.77471   1.65224  19.92539  58156.55193 
    14.09757   1.6219  3.08751       4.34084         3079.97754  0.17794  0.07274     0.34094   5.72311     20.62538   7629.24221    -1.61682  0.80804  4407.91613  0.23448  58105.52318  51.83221  10.43227  19.99145  58151.26912 
    14.04373  1.87545  3.19739       4.82771         3053.34443  0.01428  0.05514     0.46671   7.00245     20.72383   4114.79684    -1.40395  1.30897  3827.24185  0.29414  58105.73605   51.7306   0.87879  20.02058  58148.62772 
    14.32663  1.29076   3.0243       2.36446         3333.49614  0.23521  0.01812     0.47133  17.12858     20.36217   5503.11164    -1.39612  0.37538  4510.39599  0.12791  58105.74388  51.95611  17.51896  19.92328  58156.55193 
    14.47958  1.95269  3.47669       4.87521         3047.96004   0.1736  0.10504     0.03702   4.89092     20.53693   6216.50388    -1.42943  0.41441  4567.82026  0.19128  58105.71057  51.84599   9.78379  19.97876     58153.08 
    14.11319  1.87428  3.33702       4.90113         2993.33899  0.08168   0.0848     0.05315   5.28102     20.67376   6700.89731    -1.57322  0.96813  4573.98432  0.26211  58105.56678  51.85563   4.69411  19.94441     58153.08 
    13.99729  1.65422  2.81256       1.28744         3368.28982  0.08088  0.09157     0.04387   3.73498     20.59847   6712.97019    -1.23215  1.20487  5723.15086  0.22039  58105.90785   52.0107   4.24288   19.9637     58154.08 
     14.1463  2.10941  3.26457       2.42796         3331.00516  0.02077  0.03397     0.14314  13.43819     20.50273   7100.86338    -1.30351  1.19908  4239.29024  0.17679  58105.83649  51.88131   1.47425  20.03741  58151.26912 
     14.2823  1.87492  3.38108       1.60112          3295.1258  0.45112  0.03731      0.1513   7.32952     20.68921   9271.43245    -1.74214  0.51678  5422.00672   0.2716  58105.39786  52.03779  28.06265  19.99631     58153.08 
    14.13021  2.04084  3.35518       2.84351          3123.3703  0.01032  0.02396     0.22982  27.76659     20.37502   7776.84143    -1.30991  1.24824  5483.86282  0.13175  58105.83009  52.16479   0.84064  19.97054  58151.26912 
    14.18757  1.97625  3.32571       4.66253         3116.78399  0.01406  0.04124     0.47311  10.38685     20.50316   7598.89814    -1.35802  0.92305  3499.84545  0.17696  58105.78198  51.69141   0.94555  19.93854  58156.55193 
    14.05028   1.8753  2.29064       4.22023         2923.83632  0.00285  0.02754     0.02295  33.61579     20.55686    7115.5018    -1.20457  0.99667  4134.49795  0.20026  58105.93543  51.93396   0.23993  20.05068  58151.26912 
    13.95062   1.5766  2.86215       4.56152         3106.00922  0.01475  0.05107     0.07658   9.54951     20.59071   5588.41703    -1.46032   1.2346  4363.44221  0.21649  58105.67968  51.87505   0.97412  19.96984  58151.26912 
    14.06962  1.94218  3.02752       1.34589         3741.66836  0.00283  0.02843     0.31861   9.66155       20.431   8087.72922    -1.43017  1.28166  4002.84582  0.14988  58105.70983  51.80124   0.18752  19.95917     58153.08 
    14.10814  1.57822  2.28326       1.61913         3358.55796  0.07568  0.04634     0.18832  10.62965     20.61481   7376.41077    -1.05775  0.76323    4882.121  0.22884  58106.08225  51.98268   5.11466  19.88955  58167.11754 
    14.08326   1.7861  3.31851         3.232         3251.54258  0.08693  0.02086     0.02499  16.13399     20.50523   5629.61084    -1.18232  1.17414  3780.59873  0.17781  58105.95768  51.79773   6.39992  20.02116  58148.62772 
    14.12075  2.06162  4.24242       0.84226         3489.84543  0.01383  0.14451     0.03993   2.48797     20.05426   3942.69184    -1.44441  1.33854  8228.89513  0.06295  58105.69559  52.27453   0.64441  19.94798  58156.55193 
      13.913  1.67384  2.47168       1.47161         3546.18327  0.01028   0.0483     0.01044   6.44155     20.65749   6587.56751    -1.37688  1.43581  4179.07971  0.25247  58105.76312  51.79839   0.62004  19.98867     58153.08 
    14.12027  1.63292  3.27818       1.11402         3594.22023  0.33826  0.04398     0.18002   8.68164     20.11898   3155.44798    -1.32828   0.9792  6074.72179  0.07306  58105.81172  52.15328  21.87019  19.98543  58151.26912 
    14.25349  2.00971  3.12247       1.87545         3552.56504  0.21615  0.02391     0.07289  10.45094     20.61671   8651.94681    -1.17171  0.77871  3385.39446  0.22985  58105.96829  51.66311  14.55538  20.00057     58153.08 
    14.09402   1.5761  3.09253       2.24847         3411.43263  0.04027   0.0198     0.01541  15.37353     20.42624   3257.40162    -1.39424  0.78891  4279.38556  0.14824  58105.74576  51.90123   2.93646  20.01316  58151.26912 
    14.20455  2.00003  3.95939       4.66256         3113.88093  0.14288  0.03058     0.09954  13.95989     20.44338   5148.57666    -1.51364  0.97665  4481.78594  0.15421  58105.62636  51.93298   10.2196  20.00037  58151.26912 
    14.26396  1.73988  2.83094       1.55212         3520.65222  0.30317  0.01801     0.03453  19.02076     20.54641   7067.11778    -1.27365  0.63835  4156.76529  0.19549  58105.86635  51.89394  23.04019  19.96813  58156.55193 
    13.87184  1.48896  2.78273       2.68297           3188.963  0.19303  0.05923      0.1896   5.56577      20.6723   8311.64957    -1.46854  1.43916  4487.01708  0.26123  58105.67146  51.84466  11.23916  20.02022  58151.26912 
    13.93056  1.56023  2.43467       1.98137          3051.4666  0.13072  0.05072     0.20013  11.27854     20.65214   9254.91891    -1.26124  1.32853  5688.40971  0.24938  58105.87876  52.12092    8.9464  20.02316  58145.98632 
    14.06009  1.58647  2.39283       1.12929         3514.14134   0.1445  0.02275     0.07565  17.78464     20.62613   5123.29383    -1.36135  0.81387  5199.07035  0.23489  58105.77865  52.08269  10.84151  19.95194     58153.08 
     14.1424  1.84926   2.5262        1.5486         3503.40133  0.02971  0.01658     0.06556  18.60326     20.68347   8410.88073    -1.35946  0.76168  3757.87965  0.26804  58105.78054  51.80448    2.2487  20.05186  58148.62772 
    14.22631  2.07948  3.41096       1.31984         3517.25651  0.00109  0.07065     0.07221   4.25144     20.62977   7164.70701     -1.2199  0.85888  5448.13583  0.23686   58105.9201  51.98316   0.05918  19.93522  58156.55193 
    14.33994  1.89215  3.96459       4.62136         2909.41216  0.10057  0.12348     0.02646   3.88009     20.22024   9567.32266     -1.4217  0.60725  5898.73957  0.09225   58105.7183  52.04149    5.3311  19.99304     58153.08 
    14.29947  2.14185   3.8445       4.73078         3101.59423  0.01444  0.06585     0.05958   6.41682     20.41924   9833.40478    -1.55947  0.75267  4013.30501  0.14587  58105.58053  51.76283   0.87059  19.94794  58156.55193 
    14.21673   2.0609  3.84641       1.89673         3358.69227   0.1536  0.04014     0.03781   9.33496     20.31528   6197.09965     -1.5564  0.86254  5200.21022  0.11482   58105.5836  52.02527  10.09248   19.9463     58154.08 
    14.04198  1.69726  3.13697        4.9833         3113.15226  0.13747  0.05948     0.04517   7.60897     20.51525   8566.54864    -1.41559  1.18809  3931.74354  0.18196  58105.72441   51.7624   8.62606  19.97436  58148.62772 
    14.02599  1.63808  3.34841       4.31912         2921.79961  0.33565  0.04928     0.03182   5.86815     20.73077    6932.8018    -1.70295  0.85366  4802.81616  0.29888  58105.43705  51.90941  19.80056  20.01342     58153.08 
    14.44314  1.96271  3.47716       1.78712         3560.23624  0.15083  0.03842     0.40945   8.34953     20.24885   4006.43848    -1.24513  0.47946  4200.78143  0.09853  58105.89487  51.82909   9.66694  19.92918  58156.55193 
    14.29657   1.9101  4.37409       4.63641         3079.96122  0.07206  0.02041      0.0272  15.32206     20.24284   9674.69385     -1.5617  0.73372  4516.16391  0.09718   58105.5783  51.94772   5.25078  20.05424  58148.62772 
    14.07907   1.8509  3.43593       1.80652         3343.11656  0.00103  0.08157     0.01773   4.13771     20.45761   9735.59977    -1.36959  1.24826  5275.47412  0.15935  58105.77041  51.95205   0.05571  20.03006  58148.62772 
    14.08954  1.84017  4.21391       4.84534         3165.66095  0.19598  0.02147     0.07637  18.64638      20.4161   3343.98577    -1.74437  1.33801  4891.88316  0.14482  58105.39563  52.03374   14.8378  20.00142  58148.62772 
    14.10138  1.59587  2.37963       1.08294         3495.11038  0.36605  0.01601     0.16978  16.75893     20.73048   5143.60706    -1.22606  0.70288  4746.48936  0.29868  58105.91394  51.99859  27.14907  19.95869  58156.55193 
    14.06836  1.67366  2.22421       1.30284         3273.97199  0.00622  0.05623     0.01772  13.90737     20.55292   9888.15219    -1.11873  0.89142  6061.59524  0.19845  58106.02127  52.19493   0.44477  19.94956     58154.08 
    14.50612  2.10278  3.62514       2.19298         3369.53758  0.01548  0.01436     0.04794  16.17798     20.67061   9347.24421    -1.58131  0.36598  4052.28873  0.26022  58105.55869  51.85824   1.14029   19.9903  58151.26912 
    14.09227  1.73637  2.85735       1.47158         3620.49701  0.11106  0.01733     0.01324   13.5452     20.58157   3710.72104    -1.14648  0.96839  3906.80594  0.21198  58105.99352  51.81107   7.89486  19.96573     58153.08 
     14.1409  1.97399  2.77267       1.64013         3423.07521  0.02497  0.01239     0.27511  36.44586      20.5734   9626.40054    -1.25183  0.98283  4495.63756  0.20803  58105.88817  52.01268   2.13238  19.98019  58151.26912 
     14.2448  2.01535  3.11209       4.65772         2985.74615   0.1093  0.06484     0.11706  12.61696     20.52874   5202.08008    -1.32848  0.80245  5296.82229   0.1877  58105.81152  52.06914   7.65768  19.89867  58156.55193 
    14.05312  1.84716  3.72501       2.14312         3233.77989  0.02661   0.0915     0.04679   3.43104     20.47658   7479.62852    -1.51268  1.10767   6018.2886  0.16646  58105.62732  52.04409   1.36318  19.91711  58156.55193 
    14.17695  1.54642   2.8701       1.47898         3623.52735  0.11594  0.01234     0.02293  17.52927     20.41052   4356.07189    -1.27182   0.6178  3889.58952  0.14297  58105.86818  51.82944    8.6746  19.97419     58153.08 
    14.14605  1.72231  3.45794       4.18762         3095.28259    0.033  0.01244     0.05888  45.99784     20.35342   9261.90034    -1.55868  0.87518  5490.71098  0.12536  58105.58132  52.20315   2.92932  19.92611  58156.55193 
    14.29384  1.92588  3.39425       1.52677         3487.52504  0.00751  0.01604     0.02289  17.20357     20.47228   4207.15364     -1.5773  0.53569  4995.93421  0.16482   58105.5627  52.04529   0.56019  19.97832     58153.08 
    14.07564  1.80697  3.44002       4.76777         3091.42078  0.06414  0.02772     0.03595   14.7947     20.46905   6736.80417    -1.58305  1.12114  4066.39258   0.1636  58105.55695  51.85357   4.64119  20.02429  58148.62772 
    13.82758  1.36926  2.37644       1.76853         3565.30454  0.00862  0.02311     0.01844  13.90655     20.52958   7010.96784    -1.41689  1.53452   4010.6311  0.18806  58105.72311  51.83617   0.61628  19.99932  58156.55193 
    13.97583  1.48566   2.6001       4.99671         3006.40393  0.33748  0.04103     0.40715  20.33825     20.49141   5960.04351     -1.3347  1.25176  4889.11728  0.17224   58105.8053  52.04039  25.97467  19.94557     58154.08 
    13.99476  1.61053  2.81351       4.96673         3075.64284  0.05368  0.03895     0.02889  10.60415     20.67297   7335.68025    -1.57182  0.97057  3636.90375  0.26163  58105.56818  51.72671   3.62589  19.95432     58154.08 
    14.00078  1.38362  2.78005       2.36937          3456.1049  0.03748  0.01393     0.06689  18.66765     20.37801   5847.08072    -1.47352  0.81741  3475.77598  0.13266  58105.66648  51.73698   2.83844  19.97717  58156.55193 
    14.07566  1.60897  3.41911       4.74155         3051.85353  0.00898  0.09458     0.31315   4.43868     20.37933     8846.411    -1.52564  0.90294  5070.21174  0.13306  58105.61436  51.92568   0.49334  19.93005     58160.04 
    14.08979  1.83624  3.26909       4.97597         3036.59203   0.0115  0.06829     0.40666   7.52566     20.50936   8066.52787    -1.44518  1.08681  4487.24343  0.17951  58105.69482  51.87608    0.7198  20.03456  58151.26912 
    14.09736  1.63321   3.1306       4.13631         3019.48309  0.00926  0.04126     0.19052  12.15748     20.56153   8995.27681    -1.52423  0.83056  5411.58212  0.20242  58105.61577  52.08442   0.64364  19.97854  58151.26912 
    14.30226  1.92762  3.23808        4.6205         3040.99628  0.01064  0.05707     0.02013   8.80501     20.64807   7679.15121     -1.4747  0.60284  4518.01151  0.24706   58105.6653   51.8975    0.6903  19.96413  58151.26912 
    14.15882  1.68843  3.36231       2.73289         3312.84654  0.01088  0.01183     0.01324  19.77417     20.50938   9413.20889    -1.26593  0.77405  3636.94781  0.17952  58105.87407   51.7811   0.83305  19.90967  58156.55193 
    14.09056  1.80446  3.47359       4.94215          3054.2828  0.03108  0.02172     0.04085  20.44605     20.56937   6672.92592    -1.52966  1.05018  4700.80776  0.20611  58105.61034  52.00671   2.39454  19.95203  58156.55193 
    14.24176  1.73196  3.10898       4.81025         2897.20348  0.07851  0.05894     0.35062   9.26362     20.62122   9698.31027    -1.38137  0.65153  5188.63208  0.23225  58105.75863   52.0226   5.14963  19.98215  58151.26912 
     13.9015  1.46781  2.79549       1.86681         3299.12479  0.00444  0.04184     0.06466   8.58827     20.41631   5748.89475    -1.46681  1.10073  5174.32418  0.14489  58105.67319  52.01289   0.28606  20.01349  58148.62772 
    14.11494  1.83234  3.30821        4.6091         3186.32859  0.10958  0.04623     0.14106  12.11441     20.36298    9669.5722    -1.38282  1.13115  4295.38711  0.12815  58105.75718  51.88345   7.61291  20.01646  58148.62772 
    14.08019   1.8326  3.16006       1.47976         3424.51595   0.0284  0.07532     0.02158   4.76097     20.51417    5016.6064    -1.51154  0.95815  5426.00636  0.18151  58105.62846  51.99252   1.58963  19.91951  58159.19333 
    14.11464  1.73645  2.56138       1.75571         3400.75537  0.01758  0.01884     0.32403  14.28473     20.76555   4896.89409    -1.39607  0.66909  3947.58002   0.3238  58105.74393  51.82476   1.26312   19.9867     58153.08 
    14.16507  2.00284  2.97492       2.47417         3452.15843  0.01278  0.01708     0.01548  24.14844     20.36162   3047.62972    -1.32644  0.97774  3230.94111  0.12775  58105.81356  51.69438   1.01561  19.93915  58159.19333 
     14.0081  1.40277  3.17884       4.96812         3130.36141  0.00469  0.03108     0.20864  11.09747     20.27401   9617.97963    -1.41995  0.95588  3997.42527  0.10441  58105.72005  51.81301   0.31997  19.98829  58148.62772 
    14.19193  1.95811  3.23779       4.35415         3024.74004  0.02179  0.08758     0.02916   7.42537     20.43386   9095.07867    -1.42232  0.85925   4912.5351  0.15087  58105.71768  51.95339   1.35984  19.98165     58153.08 
    13.87115  1.31971   2.5452       1.60108          3464.8972  0.00113  0.05764     0.45504   6.92252      20.3689    7899.7157    -1.28445  1.29639  5392.68432  0.12991  58105.85555  52.02727   0.06916   19.9699     58154.08 
    14.04004  1.39467   2.6967        2.9845         3229.48357   0.0516   0.0627     0.07327   8.54349      20.3163   9994.15857    -1.27408  0.83762  4957.12699  0.11509  58105.86592  51.97513    3.3242  19.98039     58153.08 
    14.45391  1.93555  3.47124       4.40352         3075.88866  0.01474  0.08621      0.1022   6.11714     20.52879   7165.21415    -1.61757  0.41504  5028.17045  0.18772  58105.52243  51.95364   0.87815  20.02894  58151.26912 
    14.22498  1.78313  3.39102       4.99665         3035.14177  0.49703  0.07057     0.11669   7.99861     20.35531   4037.07501    -1.50612  0.73622  4476.84768   0.1259  58105.63388  51.88014  31.54647  19.99304      58153.1 
    14.17952  1.41412  2.17127       1.05491         3505.85407   0.0261  0.01554     0.01988     14.84     20.74075   9874.11639    -1.45507  0.36016  4964.30057  0.30583  58105.68493  52.02713   1.88974  19.92781  58156.55193 
    14.05948  1.74542  3.71182       4.96089         3138.28293  0.01102  0.01691     0.01533  21.64906     20.25071   9425.84992    -1.52693  1.09693  4299.01035  0.09895  58105.61307  51.93373   0.85815   19.9985     58154.08 
    14.19525  2.18655  2.99395       1.41241         3573.35214  0.02862  0.01456     0.43499  18.33366     20.71148   4563.27574    -1.18855  0.99299  4029.34263  0.28589  58105.95145  51.86385   2.16011  19.96327  58156.55193 
    14.29835   2.0235  3.66002        1.8265         3378.09434  0.25401  0.02172     0.01429  11.18302     20.59443   4453.76552    -1.48178  0.62438   4414.4518  0.21835  58105.65822  51.89991  17.35351  19.94246     58153.08 
    13.92753  1.41905  2.84768       4.74621         3108.97408  0.15815  0.05572      0.3897   8.59746        20.51   9764.98033    -1.48872  1.12464  4493.37007  0.17978  58105.65128  51.89043  10.20298  19.96806     58154.08 
