 log(Bfield)      Mns    Pspin  cutoff_power  cutoff_wavelength  fnickel    kappa  kappagamma  mejecta  log(nhhost)  temperature  texplosion  thetaPB     vejecta      A_V        MJD_0   log(KE)      M_Ni  Peak_mag     Peak_MJD 
    14.17579  1.94034  2.07406       0.23449         2447.75783  0.00215  0.29415     0.01092  7.60895     16.07534   8526.95578   -18.33985  1.00726  4920.49094    1e-05  58896.18015  51.95724   0.13513  19.75374  58976.67155 
    14.20982  1.68272  3.17783       0.06231         3620.64027  0.00655  0.23912     0.01019  5.25096     19.08615   6337.85989   -18.91375  0.31998  5086.56471  0.00677  58895.60625  51.94727   0.37583  19.76233  58979.72093 
    14.42925  2.06793  2.52574       0.13501         2099.78336  0.09258  0.33427     0.01171  6.54077     16.11015   5932.71961   -17.44348  0.50149  5113.59323    1e-05  58897.07652  51.97527   5.60674  19.77361  58979.72093 
    13.85892  1.68138  2.89028       0.12316         2087.08249  0.00502  0.19898     0.01111  6.95257     20.39741   6524.22718   -24.02756  0.80057  5256.65631  0.13872  58890.49244  52.00552   0.30845  19.77337  58979.72093 
    14.35006  1.99844  1.70025       0.00999         2448.22079  0.07476  0.32203     0.01543  6.65295     16.25366   4227.65719   -15.32968  0.80994  4795.90209    1e-05  58899.19032  51.92132   4.54561  19.76732   58982.7703 
    14.22187  1.87211  2.66598       0.28385         2127.62774  0.48777  0.33842     0.01569   5.1796       20.083   7176.19267   -19.70944  0.68257  5164.20165  0.06726  58894.81056  51.95892  27.89342  19.78282     58978.14 
     14.0104  1.88192  3.38211       0.03426         5302.49161  0.04643  0.23549     0.01017  6.56699     16.03446   9752.64054   -21.83463  0.81016  4956.25973    1e-05  58892.68537  51.94854   2.81477  19.77817   58982.7703 
    14.41914  1.64165  3.09116       0.09897         2637.27137  0.01915  0.27226     0.01166  5.08376     16.03104    6801.0647   -19.66947  0.20366  5082.44988    1e-05  58894.85053  51.94301   1.09004  19.75883  58979.72093 
    14.96408  2.13357  2.35633       0.02856         3568.08027  0.02827  0.33496     0.01408  7.00765     17.75574   5412.63024   -18.22289  0.15539  5429.74609  0.00032  58896.29711  52.03447   1.74041  19.77555  58979.72093 
    14.32727  1.67345  3.01266       0.01037          3201.7721  0.02172  0.26911        0.01  4.93639     18.21569   3551.68112    -18.6014  0.26758  4894.86039  0.00091   58895.9186  51.90708   1.22705  19.79101  58979.72093 
    14.23599  1.62779  3.16483       0.04902         2254.26712  0.04882  0.22482     0.01183  4.94304     18.25961   7076.09054   -20.48606  0.25883  5170.99012  0.00101  58894.03394   51.9549   2.75887  19.74133  58979.72093 
    14.45738  1.39898  2.69093       0.02068         2455.37253  0.00907  0.22136     0.01039  5.94794     19.47967   7173.81693   -16.43052  0.15854   5199.4324  0.01676  58898.08948  51.97976   0.53676  19.81416   58982.7703 
    14.75135  1.84112   2.8852        0.0709         2054.88426  0.00146  0.28234     0.01021  6.68848      17.4895   8179.13501   -19.73239  0.14997  5116.29971  0.00017  58894.78761  51.97804   0.08896  19.78717  58979.72093 
    14.34454  1.64875  3.20619       0.07201         4584.43061   0.0038  0.25189     0.01216  4.47863      16.3723   9439.35178   -19.11211  0.21698  4962.55112    1e-05  58895.40789  51.90806   0.20915  19.74269  58979.72093 
    14.25151  1.85225  3.21488       0.00021          3409.5302  0.00999  0.31183     0.01224  4.86724     16.53961   7941.08957   -17.22584  0.43468  5116.53287    2e-05  58897.29416  51.94398   0.56215  19.74133  58979.72093 
    14.16723   1.6878  3.24138       0.18468         2049.54357  0.08282  0.27898     0.01175  4.62219     18.09823   9295.20785     -17.287  0.36552  5192.52568   0.0007    58897.233  51.95099   4.60004  19.74187  58979.72093 
    14.48888  1.76803  3.10712       0.17646         2517.70422  0.06161  0.24923     0.01127  6.11277      17.6802   7218.31291   -19.39522  0.23116  5230.71403  0.00027  58895.12478  51.98786   3.67103  19.76947  58979.72093 
    14.23849  1.65427  3.01129       0.00192         5289.33387   0.0049  0.27957     0.01011  4.72818     19.44728   8846.16213   -22.68644  0.26222  4964.80382  0.01556  58891.83356  51.91459   0.27391  19.81026  58979.72093 
    14.68196  1.93028   2.9249       0.01107         3493.67678  0.00115  0.25636      0.0127   5.9118     20.61808   3574.46277   -19.55257  0.14381  5418.68321  0.23057  58894.96743  52.01499   0.06769  19.80913  58979.72093 
    14.24042  1.32569  2.19806       0.15473         2238.53359  0.09585   0.2962     0.01035   5.6135     20.52059   3574.84344   -21.45699  0.22731  5128.13602  0.18421  58893.06301  51.96158   5.59307  19.81053     58978.14 
    14.32193  1.61314  2.14651       0.01239         5790.02609  0.29494  0.28724     0.01141  6.49921     16.83013     8038.341   -16.68069    0.474  4968.68768    4e-05  58897.83931  51.94964  17.83438  19.74316  58979.72093 
     14.5395  1.94112  3.57432       0.16758         3205.13485  0.01279  0.22976     0.01018  5.41672     16.10218   9884.68603   -19.63442  0.18366  5044.85811    1e-05  58894.88558   51.9435   0.73976  19.76003  58979.72093 
    14.51041  1.91597  3.36816       0.02284         3458.35836  0.00338  0.22873     0.01002  6.02405     16.93794   7937.01786   -20.68759  0.21871  5025.19473    5e-05  58893.83241   51.9515   0.20067  19.78238  58979.72093 
    14.50308  2.09193  3.69074       0.04994         3509.60421  0.00419  0.27667     0.01026  4.61118     17.44736   9577.55286   -17.34586  0.22173  5097.06558  0.00016  58897.17414   51.9346   0.23262  19.76149  58979.72093 
    13.89509  1.62625  3.15333       0.00396         3346.09836  0.01883  0.23152      0.0117   5.1083     16.29402   9668.90724   -21.13493  0.65198  4977.66661    1e-05  58893.38507  51.92544   1.07291  19.74949     58978.14 
     14.1507   1.9683  2.59116        0.0154         5815.28411  0.01362  0.31696     0.01016   6.8591     16.17988    8509.4884   -18.76317  0.85376  5122.61036    1e-05  58895.75683   51.9817   0.83408  19.79498     58973.37 
    14.55729  1.92362  3.47315       0.12583         3219.37467  0.00175  0.26501     0.01005  4.61837     17.77241    3078.5769   -15.06123   0.1739  5087.55889  0.00033  58899.45877  51.93315   0.09713  19.77165  58979.72093 
    13.95883  1.53622  2.86996       0.40133         2192.57804  0.00198  0.30484      0.0115  4.75129     16.56388   9509.06401   -18.27429   0.6038  5021.81112    2e-05  58896.24571  51.92505   0.11096  19.76285  58979.72093 
    14.22462  1.56786  3.03388       0.07882         2045.52693  0.00111  0.23797     0.01096  5.16136     17.37831   5559.80284   -22.09208  0.26765  4980.37423  0.00013  58892.42792  51.92705   0.06357  19.76477  58979.72093 
     14.5862  1.85667   3.4355       0.16173         2645.68389  0.03286  0.22335     0.01109  5.81413     18.84883   3340.22581   -16.72207  0.18324  5191.43973  0.00392  58897.79793    51.976   1.93404   19.7979   58982.7703 
    14.38548  1.84687  3.50484        0.1891         2502.03882  0.01373  0.16306     0.01065  6.25962     17.69449   4648.80841   -21.90391  0.27466  4602.90734  0.00027  58892.61609   51.8793    0.8226  19.76928  58979.72093 
    14.59696  1.83708  3.39875       0.05678         2962.91083  0.00595  0.23853     0.01005  4.77565     16.65384   7450.01556   -21.50781  0.13655  4790.28989    3e-05  58893.01219  51.88463   0.33346   19.7991   58982.7703 
    14.42982   1.9331  3.51796       0.02685         3960.26569  0.00157   0.2194     0.01022  4.98997     16.73327   4784.33351   -19.12669  0.20868  5123.89099    3e-05  58895.39331    51.948   0.08869   19.7713  58979.72093 
    14.56974  1.71165  3.28128        0.0123          5074.8111  0.02666  0.24367     0.01292  5.18885     18.52764   8637.71283    -20.7257  0.15031   5078.7255  0.00187   58893.7943  51.94462   1.52544  19.78207  58979.72093 
    14.34311  2.04591  3.67668       0.00612          4166.2425  0.00648  0.29182     0.01417   4.0515      16.9793   6423.87939   -18.19668  0.33951  5008.13681    5e-05  58896.32332  51.90442   0.34758  19.79595   58982.7703 
    14.06925  1.67677  3.08467       0.12879          2825.8551  0.01078  0.27809     0.01057  5.38394     17.05186   8956.81708   -19.07128  0.47308  5294.78302    6e-05  58895.44872  51.98484   0.62227  19.74733     58978.14 
    14.06062  1.88726  3.58598       0.23493         2938.22772  0.01428   0.2124     0.01057  5.22335     18.88376   4269.48996   -17.42351  0.50702  5237.21961  0.00425  58897.09649  51.97204    0.8185  19.77676   58982.7703 
    14.05098  1.42543  2.85811       0.02568         2321.90347  0.03571  0.23674     0.01158   5.3277     16.15923   7137.60909   -16.49758  0.40266  5229.51597    1e-05  58898.02242  51.97293   2.05647  19.77121  58979.72093 
    14.60493  2.07281  3.10766       0.00851         3065.88324  0.00377  0.28415      0.0108  5.47323     20.33414   8063.69597   -21.35671  0.19394  5133.32019  0.11991  58893.16329  51.95973   0.21832   19.7724   58982.7703 
    13.64021  1.43299  2.69524       0.00344         3609.51033  0.00424  0.26139     0.01058  6.15273     16.22565    7690.5528   -27.40648  1.35933  4960.61788    1e-05  58887.11352   51.9425   0.25318  19.79786   58982.7703 
    13.77323  1.53991  2.88404        0.4893         2149.65833  0.14487  0.31509     0.01026  4.51214      18.7229   4194.52637   -17.91593  1.07832  4924.05156  0.00294  58896.60407  51.90214   7.99541  19.76327     58978.14 
    14.01865  1.68049  3.11648       0.52811         2449.86236  0.02834   0.2663     0.01028  5.40834     17.95358   4687.06456   -15.91773   0.6256  5047.14318   0.0005  58898.60227  51.94373   1.63855  19.75594  58979.72093 
    13.89752  1.77764  3.31276       0.01307         5027.87418  0.00832  0.19079     0.01029  5.64416     18.26696   7561.19796    -22.7168  0.73728   4971.1966  0.00103   58891.8032  51.93517   0.48584  19.77311     58978.14 
    14.46986  1.74069   3.2302       0.00992         2694.45151  0.00781  0.20161      0.0102  6.54322      17.4054   7580.23232   -21.19827  0.22605  4749.67851  0.00014  58893.32173  51.91118   0.47322  19.79552  58976.67155 
    14.31035  1.74953   1.7075       0.27755         2589.57281  0.21727  0.21709     0.01003  7.63495     16.17244   9533.90625   -16.48385  0.67522  4365.28207    1e-05  58898.03615  51.85359  13.64396  19.77938  58979.72093 
    13.89507  1.73805  3.22295       0.00094         5914.07886  0.06423  0.21943     0.01066  5.82757     18.97933   9899.55431   -22.49232  0.83317  5013.66574   0.0053  58892.02768  51.94598   3.78264  19.72303     58978.14 
    14.19531  1.94101  3.34583         0.083         3588.42681  0.00149  0.26858     0.01083  5.05299     19.64327   6151.87956   -20.27199  0.44476  5040.55667  0.02443  58894.24801  51.93515   0.08467  19.74677  58979.72093 
    14.61307  1.91299  3.09925       0.02133         3470.80058   0.0013  0.26911     0.01032   5.0709     20.28072    5235.5071   -14.63232  0.17449  5069.88304  0.10603  58899.88768  51.94058   0.07401   19.7578   58982.7703 
    14.19732   1.8335   1.8813       0.02591         3077.63021  0.02416  0.30042     0.01146   7.4572     16.05959   4213.81073   -19.53906  0.86303  4800.73217    1e-05  58894.98094  51.93382   1.50891   19.7436  58973.62218 
    14.10076  1.66084  2.84375       0.00586         3488.20843   0.0144  0.27358     0.01132  5.60141     19.40659   9073.88895   -21.04952  0.52784  4956.80674  0.01417  58893.47048  51.93184   0.83983  19.74796  58979.72093 
    14.34365  2.04073  2.59862       0.01677         3655.23898  0.03602   0.2785     0.01024  7.41442     16.16489   7626.83479   -21.85776  0.57641  4822.78471    1e-05  58892.66224  51.93722   2.24672  19.79339  58979.72093 
    14.58522  1.22763  2.12075        0.5121         2131.22076  0.02959  0.27999     0.01109  5.46139     20.38529   3824.19947   -13.78878  0.10305  5288.02258   0.1349  58900.73122  51.98528   1.71487  19.75731  58979.72093 
    14.14285  2.06999  2.40244       1.43487         2016.58775  0.01047  0.29274     0.01281  7.03486     20.49394   5739.00759   -21.16871  0.92535  4986.55045  0.17325  58893.35129   51.9609   0.64508  19.78004     58978.14 
    14.38442  1.58366  2.99563       0.01638         3891.62261  0.01865  0.22531     0.01043  6.40958     18.82605   6857.41951   -19.89956  0.22072   5206.6453  0.00372  58894.62044  51.98883   1.12391  19.78807   58982.7703 
     14.2343  1.76884  3.01984       0.08196         2753.32563  0.00111  0.21767     0.01071  5.86894     20.37641   3001.37581   -20.08619  0.31584  5224.70237  0.13217  58894.43381  51.98255   0.06574  19.74509  58979.72093 
    13.96086   1.6618  3.09081       0.13924         2982.73227  0.03523  0.24278     0.01107  5.81398     17.55721   9326.97727   -21.21779  0.70185  5001.70391   0.0002  58893.30221  51.94366   2.07335  19.76899     58973.37 
     14.2268  1.78278  3.28214       0.07563         2116.86484  0.04644  0.25558     0.01111  5.18978     17.37594    5167.1126   -15.39584  0.39729  5244.58234  0.00013  58899.12416  51.97255   2.65701  19.77619   58982.7703 
     14.3598  1.71227  3.17972       0.01239         2560.70792  0.01924  0.22438     0.01015  4.95351     18.58598   8552.51954   -19.75359  0.22261  4924.01556  0.00214  58894.76641  51.91263    1.0881  19.77591  58979.72093 
    14.88985  2.08153  2.51746       0.01651         5123.28508  0.00463  0.32501     0.01094  7.13063     16.24032   9550.39436   -20.21075  0.16259  5045.55619    1e-05  58894.30925   51.9725   0.28598  19.76384  58979.72093 
     14.2939  1.55873  3.28346       0.12699          2602.9343  0.28206   0.1986     0.01151  6.50972     18.22649   9247.19873   -21.55694  0.25749  5280.58988  0.00094  58892.96306  52.00269  17.06214  19.78521   58982.7703 
     14.6384  1.54918  2.82354       0.02058         5520.50509  0.05668   0.2423     0.01154  5.94435     19.50645   9272.52531   -18.90907  0.14004  4907.15872  0.01783  58895.61093  51.92945   3.35428  19.74706  58979.72093 
    14.25715  1.67792  3.32771       0.15762         2083.52581   0.0928  0.16857     0.01031  5.48495     16.03725   4194.83891   -18.22698  0.29052  4842.40735    1e-05  58896.29302  51.90929   5.38368  19.80519  58976.67155 
    13.96315  1.51881  2.84381       0.38267         2504.62283  0.00344  0.32603     0.01168  4.68804       16.411   9673.95074   -18.47661  0.60253  4960.99467    1e-05  58896.04339  51.91296   0.19192  19.72936     58978.14 
    14.47299  1.40117  1.44669       0.07495          5717.5861  0.39557  0.26903     0.01112  7.36572     17.63734   5324.30659   -17.41343  0.32329  4941.86422  0.00024  58897.10657  51.95775  24.63546  19.76523  58979.72093 
    13.98653  1.74571   3.2605       0.05509         2305.40025  0.01063  0.20668     0.01044  6.01444     16.73494    8155.8972   -19.99564  0.64839    5044.574    3e-05  58894.52436  51.95468   0.63085  19.77905  58979.72093 
    14.43229   2.0323  3.68674        0.0156         5859.31302   0.0037  0.26089     0.01131  4.84849     16.81154   9520.45738   -21.66907  0.24102  5017.54408    4e-05  58892.85093  51.92658    0.2081  19.78102  58979.72093 
    14.36702  1.33084  2.67129       0.44965         2005.32221  0.00346  0.26402      0.0122  4.73392      18.1187   3096.05622   -20.12449  0.15922  5039.48548  0.00073  58894.39551  51.92769   0.19356  19.76229     58978.14 
    14.37616  2.13374  2.84526       0.11993         3376.33438  0.02968  0.33275     0.01002  6.17921     17.33005   4726.20529   -20.82555  0.52017  4793.14381  0.00012  58893.69445  51.91312   1.77314  19.76144  58979.72093 
    14.02847  1.61279  2.96726        0.3439         2074.51613  0.04007  0.29744     0.01011  4.75737      19.0078   9293.81957    -18.6048  0.53057  4830.05917  0.00566   58895.9152  51.89138   2.24192  19.77003  58979.72093 
    14.31512  1.58236  2.95333       0.22664         2150.86445  0.00916  0.23902     0.01003  5.19402     19.72332   7359.87807   -18.55092  0.21264  5166.35623  0.02938  58895.96908  51.95959   0.52405  19.76058     58978.14 
     14.1771  1.77815  3.40388       0.13783         2791.83917  0.01759  0.16293     0.01012  5.24003     17.55059   5715.02452   -18.41756  0.34494  4915.25156   0.0002  58896.10244  51.91728   1.00894  19.80323  58979.72093 
    14.56113  1.99547  3.61843       0.07165         2466.28979  0.00569  0.23014     0.01064  5.45774     17.05267   7453.20862   -18.75389  0.18655  5149.74206    6e-05  58895.76611   51.9622   0.32947  19.77715  58976.67155 
    13.91587  1.34955  2.45845       0.00443         3528.86076  0.00986  0.20696     0.01159  8.32519     16.00756   7219.41717   -17.45546  0.73049  5253.32466    1e-05  58897.06454  52.02301   0.63133  19.78202   58982.7703 
    14.20278  1.94932  2.01858       0.04326         3473.70464  0.12184  0.21224     0.01099  10.0853      20.1121   6736.49568    -9.12851  1.06523  5657.91915  0.07192  58905.39149  52.10587   8.14144  19.76083  58979.72093 
    14.01697  1.74595  3.26686       0.10421         2017.65437  0.00137  0.24102     0.01144  4.70304     16.67161    4194.1469   -19.08549  0.50622   5174.8847    3e-05  58895.43451  51.94999   0.07655  19.75069  58979.72093 
    14.57829  1.94794  3.37186       0.02391         3254.16682  0.01933  0.24532     0.01064  5.29704     19.93292   5434.44045   -20.81207  0.17089  5046.99094   0.0476  58893.70793  51.94144   1.11158  19.74612  58979.72093 
    13.99071  1.62383  2.98301       0.02733         5826.68428  0.02818  0.27214     0.01027  5.58503     17.90218   8812.10151   -19.60952  0.57266  5213.54885  0.00044  58894.91048  51.97538   1.64213  19.75231     58978.14 
     14.3151  2.13328  2.10298       0.00138         5991.15458  0.01119  0.25005     0.01239  8.27398     16.33197   4783.25399   -15.23324   0.9043   4869.7662    1e-05  58899.28676  51.95655     0.716  19.77033  58979.72093 
    14.26913  1.76944  3.34209         0.185         2149.28268   0.0095  0.24643     0.01306  4.09462     18.53125   3207.18782   -16.26518  0.27081  5287.79654  0.00189  58898.25482  51.95285   0.51119  19.74355  58979.72093 
    14.43287  1.70152  3.14661       0.05415          3467.5147  0.02667  0.24896     0.01022  4.83555     17.06072   5819.27004   -22.52378  0.18218  4853.75872    6e-05  58891.99622  51.89746   1.49858  19.76609   58982.7703 
    13.74256  1.37044  2.50839       0.02183         3641.34717  0.00802  0.28622     0.01008  5.94019     19.31826   8986.16205   -24.67369  0.92669  4873.20849  0.01156  58889.84631  51.92334    0.4746  19.79473  58979.72093 
    14.21172  1.70245   3.2346        0.0413         2918.96229   0.0797  0.29437     0.01366  4.51795     17.01237   9117.31418   -18.23478  0.36159  5272.54703    6e-05  58896.28522  51.96168    4.4002  19.72023     58978.14 
    14.26348  2.03622   2.2384       0.00835         5400.91564  0.33905  0.24513     0.01049  8.43598     20.30563   9390.28487   -14.80279  0.86354  5545.90624  0.11229  58899.71721  52.07138   21.7807  19.75272   58982.7703 
    14.57875  1.65881  1.05527       0.10258         3148.22411  0.48266  0.32841     0.01345  7.20153     16.44264   6614.50089   -18.76255  0.39939  4996.88382    2e-05  58895.75745  51.96508  29.90189  19.76867  58979.72093 
    14.02082  1.95669   3.6576       0.02278         4485.43837  0.05881  0.19157     0.01079  5.12744      17.7718    6041.4692   -20.23472  0.56173  5100.64459  0.00033  58894.28528  51.94705   3.35455  19.79132  58979.72093 
    14.26016  1.78249  3.30617       0.35781         2127.05518  0.00441  0.23723     0.01092  4.75626     17.35345   7300.75933   -19.64685   0.3042  4889.18122  0.00013  58894.87315  51.90192   0.24657  19.76657  58979.72093 
    14.50244  1.87301  3.27909        0.1738          2025.4562   0.0445  0.27702     0.01159  5.55375     17.37688    3634.9041   -18.34754  0.24455  5134.47292  0.00013  58896.17246   51.9615   2.58968  19.81697     58978.14 
    14.42309  2.09152  3.87062       0.14352         2771.29251  0.01159  0.27409      0.0134   4.3597     16.16248   7227.47841   -17.49749  0.28158  5128.81596    1e-05  58897.02251   51.9336   0.63386  19.80012  58979.72093 
    14.05154  1.88057  3.42609       0.00236         5272.65954  0.00145  0.25943     0.01089  4.23008     18.81147   8621.84603   -17.02294  0.47387  5196.61754   0.0036  58897.49706  51.94153   0.07844  19.75295  58979.72093 
    14.60946  1.57834  2.90763       0.08818         2036.10728  0.00155  0.27044     0.01013  6.20346     19.42145   6278.86594   -17.67428  0.13567  5245.74666  0.01466  58896.84572   51.9919   0.09264  19.78986  58979.72093 
    14.22793  1.48723  2.86978       0.00797         5872.56573  0.00287  0.20912     0.01106  5.80613     17.57061   6415.47043   -20.12807  0.29904  4953.57206  0.00021  58894.39193  51.93512   0.16894   19.7678  58979.72093 
    14.56716  1.23624  2.43258        0.0005         4499.13122  0.00314  0.20531        0.01  6.22632     16.79842    5864.8429   -22.25918  0.10408  4722.21335    3e-05  58892.26082  51.90097   0.18818  19.78927  58979.72093 
    14.67879  2.09924  3.71915       0.01332         3010.99027  0.03014    0.223     0.01059  5.26494      19.9027   6343.64186    -20.8903  0.14266  4984.72953   0.0444   58893.6297  51.92999   1.73058  19.74294  58979.72093 
    14.10438  1.70098  3.37576       0.19491         3174.71717  0.03041  0.19654     0.01243  5.41816     16.89994   6006.50592   -21.73852  0.44062  4815.89523    4e-05  58892.78148  51.90319   1.75909  19.79573  58979.72093 
    14.09742  1.70967  3.06924       0.04651         3266.16754  0.00101  0.23535     0.01025  5.50316     20.05903   7083.49085   -19.57715  0.40583  5202.69533  0.06364  58894.94285  51.97198   0.05841  19.72058     58978.14 
    14.22952  1.57987  3.11145        0.2446         2056.03265   0.1056  0.22171     0.01099  5.09672     17.43532   9019.16716   -18.14788  0.24724  5340.80063  0.00015  58896.37212  51.98635   6.01426  19.77552  58979.72093 
    14.68903  2.13716  3.27939       0.02021         3018.42489   0.0017  0.17944     0.01125  6.84418      20.4172   3696.35576   -19.20525  0.17901  5052.57416  0.14519  58895.31475  51.96952   0.10386  19.74635     58978.14 
    13.92412  1.41628    2.803       0.10616         2414.24398  0.00247  0.21115     0.01058  5.43121      17.8904   7778.52606   -19.02753  0.51209  4918.80309  0.00043  58895.49247  51.92181   0.14288  19.78194     58978.14 
     14.0969  1.54953  2.80959       0.04407         3935.29292  0.00121  0.22501     0.01171   5.5937     20.29827    3315.4252   -19.56709   0.3693  5291.69857  0.11041  58894.95291  51.98847   0.07045  19.83464  58976.67155 
    13.94582  1.86224   3.4148       0.09579         3096.30257  0.00166  0.27037     0.01129    4.326     16.68013   6298.32797   -18.15034  0.63277  5096.90414    3e-05  58896.36966  51.92729   0.09043  19.74345  58976.67155 
    14.46609   1.6086  3.21349       0.07732         3482.85763  0.06621  0.16698     0.01034  5.43709     18.31705    8062.0999   -20.00188  0.14948  4985.91228  0.00115  58894.51812   51.9337     3.833  19.80239  58979.72093 
    14.42287  1.39478  2.63289       0.05194         3935.68272  0.00304  0.30964     0.01026  5.26686     16.68009   8032.50979   -19.19082  0.16595  5054.46718    3e-05  58895.32918   51.9421   0.17469  19.77269   58982.7703 
    13.64092   1.4905  2.91814       0.26485         2505.68512   0.0017  0.25426     0.01145  4.69959     16.24617   8235.99733   -21.38471   1.0224   5088.2835    1e-05  58893.13529  51.93525   0.09486  19.70712  58976.67155 
     14.4349   2.1114   2.7672       0.23206         2298.99772  0.31657  0.25435     0.01353   7.9459     16.50577   7468.79332   -12.06973  0.60479  5677.00076    2e-05  58902.45027  52.08578  20.06259  19.75041  58979.72093 
    14.25882  1.83052  3.45673       0.01021         3900.27205  0.00476  0.20275      0.0105  5.25997     17.54608   4769.83796   -19.65057  0.30714  4970.59911   0.0002  58894.86943  51.92742   0.27319  19.77139  58979.72093 
    14.46967  1.92932  3.34444       0.06652          2416.5995  0.00834  0.27516     0.01144  5.34557     16.31682   5345.40018   -18.19385  0.25896  5143.51379    1e-05  58896.32615  51.95889   0.48049  19.75628   58982.7703 
    13.91279  1.74779  3.35449       0.27972         2193.81374  0.01652  0.22201     0.01043  4.99526     17.44127   7296.57682   -20.00356  0.63943  4911.41264  0.00015  58894.51644  51.91133   0.93626  19.74762  58979.72093 
    14.01537  1.70888  3.26988       0.00602         2633.04024  0.01452  0.18772     0.01008  5.76792     18.56543   7025.10038   -20.52451  0.51887  4926.14412  0.00204  58893.99549  51.92959   0.85316  19.78731   58982.7703 
    14.37858  1.70791  3.13692       0.08061         3755.17364  0.00126  0.25677     0.01254  4.91552     19.84861   6745.60314   -18.38442  0.22801  5273.46499   0.0392  58896.13558  51.97132   0.07136  19.76242  58979.72093 
    14.41273  1.73633  3.29777       0.04916         5348.43706  0.00853  0.17248     0.01052   5.5837     16.55771   7155.00701   -19.46038  0.19984  4975.87318    2e-05  58895.05962  51.93483   0.49679  19.78471   58982.7703 
    14.28645  1.63802  3.04487       0.11113          2554.1274  0.00573  0.28212     0.01282  4.54369     19.88428   9509.82429    -18.8968  0.27287  5028.77109  0.04256   58895.6232  51.92121   0.31684  19.77352  58979.72093 
    14.06852  1.86545  3.18317       0.02691         3406.24913  0.00256  0.21368     0.01109   5.7938     20.24688   7967.24827    -21.9083  0.51604  5209.99305  0.09809   58892.6117  51.97873    0.1506   19.7579  58979.72093 
    14.92582  2.15121  3.32572        0.0641         3038.05983  0.00247  0.26908     0.01019  6.17153     19.95144   3425.37311   -15.82139  0.12093  5097.05601  0.04968  58898.69861  51.96639   0.14735  19.78112  58979.72093 
    14.09916  1.85888  3.31592       0.12901         3156.88533    0.002  0.24934      0.0119  5.04797     19.78814   7301.70289   -21.67766  0.52889  4879.32414  0.03411  58892.84234   51.9068   0.11388  19.72517  58979.72093 
    14.35901  1.85922  3.37109       0.00379         5976.98388  0.00123   0.2313     0.01012  5.94299     18.04871   5174.35906   -21.12987  0.28778  5038.20357  0.00062  58893.39013  51.95231   0.07296  19.75669     58978.14 
    14.10687  1.84345  3.39077       0.03057         4203.67214  0.00224  0.33302     0.01442  3.83779     17.56231   8134.18459   -18.92648  0.47855  5118.78403   0.0002  58895.59352    51.917   0.11819  19.79874  58979.72093 
    14.46158  1.62633  2.90392       0.22907         2014.09977  0.00113  0.31545     0.01074  5.12707      19.1689   3347.90682    -18.4784  0.20195  4996.31185   0.0082   58896.0416   51.9291    0.0642  19.79751  58979.72093 
    14.58745  1.73482  2.98811       0.19689         2543.77566  0.06406  0.27767     0.01174  5.02632     20.20075   9042.51872   -20.93427  0.14455  5162.21104   0.0882  58893.58573  51.95528   3.63537  19.79754  58979.72093 
    14.38917  2.19059  2.19119       0.12241         2319.98967  0.33131  0.32756     0.01391  5.96252     16.16177   6803.04273   -17.25783  0.81017  4777.73703    1e-05  58897.26217  51.90655   19.6208   19.7866  58979.72093 
    14.55605  1.87685   2.5915       0.00837         5105.32868  0.00111  0.32519     0.01272  6.29398     16.28038   6061.58258      -18.15  0.28636  5242.93491    1e-05     58896.37  51.99296   0.06645  19.73508  58973.62218 
    14.33934  1.93388  3.39008       0.03351         4923.09268  0.01175  0.24606     0.01023  5.23144     17.20833   3012.01037   -21.51753  0.33229  4713.15977    9e-05  58893.00247  51.88063   0.67357  19.76446  58979.72093 
    14.43575  1.95938  3.59951       0.02254         3442.17909  0.01213  0.24003     0.01091  4.93079     17.58628   3313.54027    -19.6971  0.22228  5124.66912  0.00021   58894.8229  51.94681   0.68515  19.79615  58979.72093 
    14.33201  1.68612  3.22857       0.12439         2899.77331  0.00985   0.2154     0.01004  5.47628     16.02622   5685.58219   -19.79172  0.23669  5006.72589    1e-05  58894.72828   51.9381    0.5711  19.77116  58979.72093 
    13.91103  1.75405  3.35593       0.24771         2588.60709  0.00294  0.19302     0.01124  4.79977     16.41459   6358.07645   -20.21291  0.65364  4963.46974    1e-05  58894.30709  51.91604   0.16502  19.75278     58978.14 
    14.56255  1.89986  3.36036       0.00879         5455.98172  0.00318  0.30621     0.01102  4.47289     16.45952   7408.94833   -20.20091  0.17016   4990.3845    2e-05  58894.31909  51.91277   0.17528  19.79214   58982.7703 
    14.40864  1.86412  3.32933       0.33538         2499.68109  0.02925   0.2723     0.01022  5.51929     17.38702    8426.0284   -20.75551  0.27159  5009.79997  0.00014  58893.76449  51.93948   1.69939  19.75968  58979.72093 
    13.89636  1.65253  2.73601       0.22876         2686.61472  0.01919   0.3198     0.01167  5.21955     20.19916   5705.76654   -24.14828  0.80162  4989.18752  0.08788  58890.37172  51.92982   1.09953  19.76616     58978.14 
    14.24752  1.43541  2.61591        0.0808         3259.94853  0.00129  0.15019     0.01138   6.1614     20.39595   3454.02757   -17.10984  0.25388  4838.21891  0.13825  58897.41016  51.92095   0.07704  19.76463  58979.72093 
    14.03267  1.71778  2.36796       0.00351         4831.27575  0.00109   0.2467      0.0109  8.41528     17.30193   8294.80744   -19.88105   1.0527  5072.32746  0.00011  58894.63895  51.99361   0.07024   19.7897   58982.7703 
    14.69974   2.0336  3.22499       0.14521          2857.5275  0.00303  0.29603     0.01064  5.39243     20.29375   5366.45839    -17.9396   0.1551  5182.61034  0.10926   58896.5804  51.96641   0.17501  19.75687  58979.72093 
    14.52896  1.88043  3.20738       0.10951         3241.50596  0.01249  0.26915     0.01083  5.37754     20.11827    7934.2646   -18.56074  0.20171  5061.79643  0.07295  58895.95926  51.94563   0.72107  19.77767   58982.7703 
    14.28883  2.11351  1.84217       0.00483         5092.05611  0.00758  0.33507     0.02628  6.38751      17.0079    7205.5249   -20.22779  0.99876   4887.5528    6e-05  58894.29221  51.93353   0.45674  19.75333   58982.7703 
    14.38371  1.60024  2.64872       0.01008         4595.76434  0.00126  0.22469     0.01139  5.73232     20.50554   6215.95562   -16.85115  0.21942  5165.55658  0.17794  58897.66885  51.97015   0.07365  19.77473  58979.72093 
    14.57553  1.77484  3.30845       0.03348          4740.5336  0.00146  0.24791     0.01125  5.33645     18.27024   8324.99838   -18.01366  0.16068  5123.54646  0.00104  58896.50634  51.95532   0.08388  19.77237     58978.14 
    14.22486  1.52743  3.01439       0.24957          2530.1383  0.00717  0.24656     0.01079  5.25067     16.85412   5964.29695   -18.41417  0.26358  5101.97865    4e-05  58896.10583  51.94989   0.41168  19.77509  58979.72093 
    13.78807  1.80856  3.31928       0.22975         2173.67499  0.01863  0.21969     0.01045   6.3684     16.84491    5245.1278   -26.46071  1.14632  5034.08826    4e-05  58888.05929  51.95888   1.12129  19.77115   58982.7703 
    14.49235  1.96343  3.55588       0.04325         2737.36199  0.01321  0.22647     0.01228  5.43264     16.27027   3822.96726   -19.42141  0.23572  5071.05301    1e-05  58895.09859  51.94832   0.76434  19.75168     58978.14 
    14.16709  1.85577  2.28375       0.06287         2577.61314  0.01929  0.29551     0.01057  6.42111     16.02297   9612.08562   -18.83196   0.8435  4651.76178    1e-05  58895.68804  51.89113   1.16333  19.82503  58979.72093 
    14.30816  2.08966  1.94947       0.07216         5951.37536   0.0068  0.26925     0.01309  7.72892     16.44963   4442.53792   -15.61113  0.90742  4760.19417    2e-05  58898.90887  51.93004   0.42822  19.78592  58976.67155 
    14.37185  1.89939  3.53748       0.00159         5235.12006  0.00254  0.19881     0.01006  5.45197     17.23843   6556.85077   -18.10545  0.25963  5039.24599   0.0001  58896.41455  51.94324    0.1473  19.75947     58978.14 
    14.20765  2.13617  2.69223       0.14582         2426.01221  0.07406  0.23958     0.01168  8.17723     20.34911   7759.14621   -15.84695  0.83109  5554.52111  0.12412  58898.67305  52.06967   4.72433  19.73163  58979.72093 
    14.05311  1.77927  2.64387       0.00453         4462.99634  0.00644  0.28345     0.01181  7.28609     16.46962   8545.44893   -20.79885  0.87954  5167.48432    2e-05  58893.72115  51.99542    0.4003  19.77433   58982.7703 
    14.08038  1.78732   3.2369       0.05046         5873.60156  0.00765  0.27921      0.0111  4.82626     17.46285   9239.10645   -16.79159  0.56549  5034.78248  0.00016  58897.72841  51.92905   0.42983  19.77099  58976.67155 
    14.09083  1.86782  2.16625        0.0162         4874.29433  0.09969  0.20103     0.01478  7.97239     20.20694   6347.12458   -21.28633  1.07828  4743.14266  0.08947  58893.23367  51.93001   6.32267  19.74278  58979.72093 
    14.44508   1.7602  3.08246       0.01098          2236.9527  0.00112   0.2384     0.01015  6.48936     16.27306   7379.12182   -17.71449  0.25616  5226.76471    1e-05  58896.80551  51.99346   0.06747  19.77132  58976.67155 
    14.38357  1.70603  3.28436       0.10052         2576.24455  0.00103  0.22572     0.01215  5.16538     18.62759   3966.01502   -19.85952  0.22897  4998.37099  0.00236  58894.66048  51.93027   0.05889  19.74878   58982.7703 
    13.98333  1.67049  3.17571       0.05115         3483.67768   0.0106  0.25823     0.01259  4.84783     17.91156   4175.84505   -21.32008   0.5403  5165.30842  0.00045  58893.19992  51.95178   0.59623  19.78383  58976.67155 
    14.21169  1.60015  1.71002       0.06543         3087.78501  0.36225  0.31788     0.01305  6.26047     16.13706   4994.62706   -13.76126  0.77386  5002.52547    1e-05  58900.75874  51.95163  21.70875  19.76738  58979.72093 
    13.76447  1.64117  3.07001       0.01044         3403.91947  0.00103   0.2846     0.01208  4.49319     16.77387   7733.81553   -22.21343  0.78984   5265.4276    3e-05  58892.30657  51.95988   0.05675   19.7667  58979.72093 
    13.93236  1.57643  3.00503       0.45493         2192.25979  0.00998  0.30307     0.01202    4.431     18.02672   9902.35503   -19.87114  0.60228  4946.50832  0.00059  58894.64886  51.90402   0.54813  19.78543  58979.72093 
