# Wavelength Flux
# STATUS = PUBLIC
# OBJECT = 
# TELESCOPE = 
# INSTRUMENT = 
# DATE-OBS = 
# MJD = 
# EXPTIME = 
# SLIT = 
# DISPERSER = 
# SOURCE = 
# FILTER = 
# FLUX_STANDARD = 
# EXTINCTION_CORRECTED = 
# PHOTOMETRY_CALIBRATED = 
# FLUX_UNITS = 
# QUALITY = 
# MIN_WAVE = 
# MAX_WAVE = 
# COMMENT = 
3600.0 2.5846e-16
3601.525 2.8702e-16
3603.05 2.8968e-16
3604.575 3.1612e-16
3606.1 2.9748e-16
3607.625 2.6741e-16
3609.15 2.748e-16
3610.675 3.0829e-16
3612.2 2.5172e-16
3613.725 2.5362e-16
3615.25 2.4753e-16
3616.775 3.025e-16
3618.3 2.7711e-16
3619.825 2.735e-16
3621.35 2.5712e-16
3622.875 2.4341e-16
3624.4 2.8623e-16
3625.925 2.962e-16
3627.45 2.9502e-16
3628.975 3.0514e-16
3630.5 2.7572e-16
3632.025 2.571e-16
3633.55 2.9046e-16
3635.075 2.7447e-16
3636.6 2.7632e-16
3638.125 2.7945e-16
3639.65 2.6528e-16
3641.175 2.4756e-16
3642.7 2.8419e-16
3644.225 2.6365e-16
3645.75 2.4402e-16
3647.275 2.7266e-16
3648.8 2.5725e-16
3650.325 2.9344e-16
3651.85 2.8608e-16
3653.375 2.3461e-16
3654.9 2.544e-16
3656.425 2.7031e-16
3657.95 2.74e-16
3659.475 2.6684e-16
3661.0 2.6414e-16
3662.525 2.4508e-16
3664.05 3.2664e-16
3665.575 2.8689e-16
3667.1 2.3976e-16
3668.625 2.5714e-16
3670.15 2.7531e-16
3671.675 2.5163e-16
3673.2 2.4664e-16
3674.725 2.2306e-16
3676.25 2.6111e-16
3677.775 2.4039e-16
3679.3 2.5441e-16
3680.825 2.6273e-16
3682.35 2.654e-16
3683.875 2.6322e-16
3685.4 2.5039e-16
3686.925 2.0542e-16
3688.45 2.2896e-16
3689.975 2.4061e-16
3691.5 2.2727e-16
3693.025 2.4103e-16
3694.55 2.3332e-16
3696.075 2.2791e-16
3697.6 2.1733e-16
3699.125 2.158e-16
3700.65 2.1901e-16
3702.175 2.2955e-16
3703.7 2.3879e-16
3705.225 2.3667e-16
3706.75 2.4202e-16
3708.275 2.6662e-16
3709.8 2.6042e-16
3711.325 2.3658e-16
3712.85 2.2433e-16
3714.375 2.4106e-16
3715.9 2.4347e-16
3717.425 2.599e-16
3718.95 2.4625e-16
3720.475 2.4699e-16
3722.0 2.4927e-16
3723.525 2.4035e-16
3725.05 2.5429e-16
3726.575 2.4534e-16
3728.1 2.4046e-16
3729.625 2.7019e-16
3731.15 2.8051e-16
3732.675 2.3444e-16
3734.2 2.4881e-16
3735.725 2.6933e-16
3737.25 2.4563e-16
3738.775 2.3128e-16
3740.3 2.195e-16
3741.825 2.6482e-16
3743.35 2.315e-16
3744.875 2.5671e-16
3746.4 2.4311e-16
3747.925 2.4374e-16
3749.45 2.5318e-16
3750.975 2.5146e-16
3752.5 2.5006e-16
3754.025 2.3134e-16
3755.55 2.5624e-16
3757.075 2.6549e-16
3758.6 2.4273e-16
3760.125 2.4764e-16
3761.65 2.4853e-16
3763.175 2.3641e-16
3764.7 2.2995e-16
3766.225 2.3178e-16
3767.75 2.3382e-16
3769.275 2.4223e-16
3770.8 2.5056e-16
3772.325 2.4936e-16
3773.85 2.2933e-16
3775.375 2.2946e-16
3776.9 2.2885e-16
3778.425 2.3381e-16
3779.95 2.4068e-16
3781.475 2.324e-16
3783.0 2.3637e-16
3784.525 2.5132e-16
3786.05 2.284e-16
3787.575 2.3829e-16
3789.1 2.6356e-16
3790.625 2.5017e-16
3792.15 2.7712e-16
3793.675 2.5423e-16
3795.2 2.4138e-16
3796.725 2.4344e-16
3798.25 2.5669e-16
3799.775 2.4098e-16
3801.3 2.4219e-16
3802.825 2.5358e-16
3804.35 2.4226e-16
3805.875 2.4615e-16
3807.4 2.3753e-16
3808.925 2.4299e-16
3810.45 2.4906e-16
3811.975 2.5075e-16
3813.5 2.4618e-16
3815.025 2.5294e-16
3816.55 2.4946e-16
3818.075 2.5818e-16
3819.6 2.4443e-16
3821.125 2.392e-16
3822.65 2.6727e-16
3824.175 2.5649e-16
3825.7 2.5504e-16
3827.225 2.6948e-16
3828.75 2.7546e-16
3830.275 2.6224e-16
3831.8 2.4252e-16
3833.325 2.4385e-16
3834.85 2.4938e-16
3836.375 2.468e-16
3837.9 2.3792e-16
3839.425 2.2392e-16
3840.95 2.548e-16
3842.475 2.2632e-16
3844.0 2.0727e-16
3845.525 2.2094e-16
3847.05 2.3978e-16
3848.575 2.5352e-16
3850.1 2.4782e-16
3851.625 2.449e-16
3853.15 2.4115e-16
3854.675 2.2842e-16
3856.2 2.3903e-16
3857.725 2.4019e-16
3859.25 2.5171e-16
3860.775 2.4241e-16
3862.3 2.3352e-16
3863.825 2.4056e-16
3865.35 2.327e-16
3866.875 2.1646e-16
3868.4 2.3925e-16
3869.925 2.481e-16
3871.45 2.4689e-16
3872.975 2.2807e-16
3874.5 1.9768e-16
3876.025 2.3542e-16
3877.55 2.4029e-16
3879.075 2.6033e-16
3880.6 2.3719e-16
3882.125 2.3659e-16
3883.65 2.4856e-16
3885.175 2.2689e-16
3886.7 2.308e-16
3888.225 2.4698e-16
3889.75 2.4175e-16
3891.275 2.2644e-16
3892.8 2.1639e-16
3894.325 2.1234e-16
3895.85 2.2056e-16
3897.375 2.1676e-16
3898.9 2.1817e-16
3900.425 2.0536e-16
3901.95 2.1663e-16
3903.475 2.337e-16
3905.0 2.2191e-16
3906.525 2.2769e-16
3908.05 2.1399e-16
3909.575 2.1517e-16
3911.1 2.2769e-16
3912.625 2.0716e-16
3914.15 2.1368e-16
3915.675 2.0889e-16
3917.2 2.197e-16
3918.725 2.1855e-16
3920.25 2.2707e-16
3921.775 2.2774e-16
3923.3 2.1185e-16
3924.825 2.3541e-16
3926.35 2.244e-16
3927.875 2.1479e-16
3929.4 2.1815e-16
3930.925 2.0269e-16
3932.45 2.1651e-16
3933.975 2.2502e-16
3935.5 1.9974e-16
3937.025 2.1093e-16
3938.55 2.3671e-16
3940.075 2.1425e-16
3941.6 1.9473e-16
3943.125 2.2047e-16
3944.65 2.2438e-16
3946.175 2.0937e-16
3947.7 2.1322e-16
3949.225 2.2831e-16
3950.75 2.2818e-16
3952.275 2.0917e-16
3953.8 2.2227e-16
3955.325 2.1242e-16
3956.85 2.1225e-16
3958.375 2.1127e-16
3959.9 2.0321e-16
3961.425 2.1081e-16
3962.95 2.3476e-16
3964.475 2.0921e-16
3966.0 2.0221e-16
3967.525 2.0411e-16
3969.05 2.0984e-16
3970.575 2.0622e-16
3972.1 2.059e-16
3973.625 2.104e-16
3975.15 2.0379e-16
3976.675 2.11e-16
3978.2 2.0638e-16
3979.725 1.9958e-16
3981.25 2.1538e-16
3982.775 2.1664e-16
3984.3 2.0352e-16
3985.825 2.098e-16
3987.35 2.0259e-16
3988.875 2.1174e-16
3990.4 2.1317e-16
3991.925 2.1192e-16
3993.45 2.1158e-16
3994.975 2.0646e-16
3996.5 1.9895e-16
3998.025 2.0039e-16
3999.55 1.9637e-16
4001.075 1.9766e-16
4002.6 1.8862e-16
4004.125 1.9905e-16
4005.65 2.0531e-16
4007.175 2.1627e-16
4008.7 2.1561e-16
4010.225 2.1881e-16
4011.75 2.268e-16
4013.275 2.1462e-16
4014.8 2.0728e-16
4016.325 2.1427e-16
4017.85 2.1676e-16
4019.375 2.3433e-16
4020.9 2.2596e-16
4022.425 2.272e-16
4023.95 2.3521e-16
4025.475 2.1841e-16
4027.0 2.1416e-16
4028.525 2.2805e-16
4030.05 2.2733e-16
4031.575 2.2081e-16
4033.1 2.2112e-16
4034.625 2.138e-16
4036.15 2.2386e-16
4037.675 2.0799e-16
4039.2 1.9771e-16
4040.725 2.1569e-16
4042.25 2.1442e-16
4043.775 2.1108e-16
4045.3 2.1499e-16
4046.825 2.3244e-16
4048.35 2.1558e-16
4049.875 2.2055e-16
4051.4 2.2024e-16
4052.925 2.2687e-16
4054.45 2.3436e-16
4055.975 2.296e-16
4057.5 2.3153e-16
4059.025 2.2592e-16
4060.55 2.0897e-16
4062.075 2.3269e-16
4063.6 2.3324e-16
4065.125 2.22e-16
4066.65 2.3653e-16
4068.175 2.2345e-16
4069.7 2.1266e-16
4071.225 2.1188e-16
4072.75 2.1898e-16
4074.275 2.2547e-16
4075.8 2.1609e-16
4077.325 2.359e-16
4078.85 2.4453e-16
4080.375 2.3741e-16
4081.9 2.5134e-16
4083.425 2.4192e-16
4084.95 2.348e-16
4086.475 2.5695e-16
4088.0 2.5251e-16
4089.525 2.4656e-16
4091.05 2.489e-16
4092.575 2.5626e-16
4094.1 2.4741e-16
4095.625 2.3502e-16
4097.15 2.3985e-16
4098.675 2.4455e-16
4100.2 2.7228e-16
4101.725 2.7223e-16
4103.25 2.6717e-16
4104.775 2.4803e-16
4106.3 2.5766e-16
4107.825 2.6364e-16
4109.35 2.5039e-16
4110.875 2.4114e-16
4112.4 2.3781e-16
4113.925 2.5273e-16
4115.45 2.378e-16
4116.975 2.3014e-16
4118.5 2.2743e-16
4120.025 2.3086e-16
4121.55 2.4428e-16
4123.075 2.2992e-16
4124.6 2.3376e-16
4126.125 2.1831e-16
4127.65 2.1939e-16
4129.175 2.2089e-16
4130.7 2.2478e-16
4132.225 2.3815e-16
4133.75 2.3186e-16
4135.275 2.0675e-16
4136.8 2.0903e-16
4138.325 2.2148e-16
4139.85 2.1207e-16
4141.375 2.1549e-16
4142.9 2.039e-16
4144.425 1.941e-16
4145.95 2.097e-16
4147.475 2.1689e-16
4149.0 2.1181e-16
4150.525 2.1152e-16
4152.05 2.1175e-16
4153.575 2.2002e-16
4155.1 2.1663e-16
4156.625 2.0688e-16
4158.15 2.1795e-16
4159.675 2.0566e-16
4161.2 2.0171e-16
4162.725 1.9454e-16
4164.25 1.9737e-16
4165.775 1.8937e-16
4167.3 2.1483e-16
4168.825 2.0565e-16
4170.35 1.9624e-16
4171.875 1.9126e-16
4173.4 1.8577e-16
4174.925 2.1007e-16
4176.45 2.1453e-16
4177.975 2.3068e-16
4179.5 1.9407e-16
4181.025 2.0734e-16
4182.55 2.164e-16
4184.075 2.0868e-16
4185.6 2.0522e-16
4187.125 2.0849e-16
4188.65 2.2056e-16
4190.175 2.1893e-16
4191.7 2.1752e-16
4193.225 2.2886e-16
4194.75 2.2631e-16
4196.275 2.2504e-16
4197.8 2.2964e-16
4199.325 2.238e-16
4200.85 2.2516e-16
4202.375 2.1131e-16
4203.9 2.2532e-16
4205.425 2.3198e-16
4206.95 2.1645e-16
4208.475 2.2361e-16
4210.0 2.32e-16
4211.525 2.1726e-16
4213.05 2.1373e-16
4214.575 2.227e-16
4216.1 2.2809e-16
4217.625 2.219e-16
4219.15 2.1014e-16
4220.675 2.1296e-16
4222.2 2.3239e-16
4223.725 2.1116e-16
4225.25 1.9886e-16
4226.775 2.1898e-16
4228.3 2.2654e-16
4229.825 2.3472e-16
4231.35 2.2784e-16
4232.875 2.1542e-16
4234.4 2.3126e-16
4235.925 2.1694e-16
4237.45 2.2507e-16
4238.975 2.3648e-16
4240.5 2.2267e-16
4242.025 2.2224e-16
4243.55 2.0561e-16
4245.075 2.0515e-16
4246.6 2.2656e-16
4248.125 2.0431e-16
4249.65 2.0176e-16
4251.175 2.1048e-16
4252.7 2.0946e-16
4254.225 2.1477e-16
4255.75 2.0603e-16
4257.275 2.1328e-16
4258.8 2.0193e-16
4260.325 1.8631e-16
4261.85 1.9747e-16
4263.375 1.9357e-16
4264.9 2.012e-16
4266.425 2.0587e-16
4267.95 2.0249e-16
4269.475 2.0102e-16
4271.0 2.1174e-16
4272.525 1.9342e-16
4274.05 1.9003e-16
4275.575 1.9077e-16
4277.1 1.947e-16
4278.625 1.9338e-16
4280.15 1.9186e-16
4281.675 1.8131e-16
4283.2 1.9925e-16
4284.725 1.9583e-16
4286.25 1.8205e-16
4287.775 1.8661e-16
4289.3 1.9549e-16
4290.825 1.9725e-16
4292.35 1.9205e-16
4293.875 1.9275e-16
4295.4 1.8359e-16
4296.925 1.8874e-16
4298.45 1.8721e-16
4299.975 1.9706e-16
4301.5 1.9939e-16
4303.025 1.8594e-16
4304.55 1.8987e-16
4306.075 1.8685e-16
4307.6 1.9945e-16
4309.125 2.0148e-16
4310.65 2.055e-16
4312.175 1.9059e-16
4313.7 1.9452e-16
4315.225 2.0649e-16
4316.75 1.9466e-16
4318.275 1.9858e-16
4319.8 2.0124e-16
4321.325 1.9538e-16
4322.85 1.9349e-16
4324.375 1.8889e-16
4325.9 1.9628e-16
4327.425 2.1236e-16
4328.95 2.2074e-16
4330.475 2.2377e-16
4332.0 1.9292e-16
4333.525 1.9479e-16
4335.05 2.0525e-16
4336.575 1.9676e-16
4338.1 2.0782e-16
4339.625 2.0519e-16
4341.15 2.1348e-16
4342.675 1.9996e-16
4344.2 1.9205e-16
4345.725 1.9573e-16
4347.25 2.0175e-16
4348.775 2.0669e-16
4350.3 1.9791e-16
4351.825 1.985e-16
4353.35 1.8602e-16
4354.875 1.8714e-16
4356.4 1.964e-16
4357.925 2.117e-16
4359.45 2.1825e-16
4360.975 1.7818e-16
4362.5 1.8384e-16
4364.025 2.099e-16
4365.55 2.0628e-16
4367.075 2.0926e-16
4368.6 1.9795e-16
4370.125 1.956e-16
4371.65 2.0539e-16
4373.175 1.9828e-16
4374.7 1.8666e-16
4376.225 2.0809e-16
4377.75 2.0238e-16
4379.275 1.925e-16
4380.8 1.9479e-16
4382.325 1.9172e-16
4383.85 1.8997e-16
4385.375 1.9007e-16
4386.9 1.9236e-16
4388.425 1.9389e-16
4389.95 1.9287e-16
4391.475 1.8584e-16
4393.0 1.8151e-16
4394.525 1.8214e-16
4396.05 1.8332e-16
4397.575 1.7511e-16
4399.1 1.8664e-16
4400.625 1.8648e-16
4402.15 1.8546e-16
4403.675 1.7786e-16
4405.2 1.689e-16
4406.725 1.884e-16
4408.25 1.8799e-16
4409.775 1.748e-16
4411.3 1.7369e-16
4412.825 1.5949e-16
4414.35 1.7206e-16
4415.875 1.6031e-16
4417.4 1.5139e-16
4418.925 1.6093e-16
4420.45 1.7467e-16
4421.975 1.7797e-16
4423.5 1.6998e-16
4425.025 1.6167e-16
4426.55 1.5587e-16
4428.075 1.7064e-16
4429.6 1.832e-16
4431.125 1.6114e-16
4432.65 1.5058e-16
4434.175 1.5438e-16
4435.7 1.5351e-16
4437.225 1.515e-16
4438.75 1.6935e-16
4440.275 1.7109e-16
4441.8 1.6468e-16
4443.325 1.655e-16
4444.85 1.6839e-16
4446.375 1.7223e-16
4447.9 1.6144e-16
4449.425 1.7255e-16
4450.95 1.668e-16
4452.475 1.6966e-16
4454.0 1.7211e-16
4455.525 1.5133e-16
4457.05 1.5409e-16
4458.575 1.7481e-16
4460.1 1.6536e-16
4461.625 1.7442e-16
4463.15 1.6406e-16
4464.675 1.6784e-16
4466.2 1.7659e-16
4467.725 1.659e-16
4469.25 1.6562e-16
4470.775 1.5756e-16
4472.3 1.4803e-16
4473.825 1.6006e-16
4475.35 1.845e-16
4476.875 1.8744e-16
4478.4 1.7909e-16
4479.925 1.8334e-16
4481.45 1.6716e-16
4482.975 1.673e-16
4484.5 1.614e-16
4486.025 1.6621e-16
4487.55 1.8032e-16
4489.075 1.8899e-16
4490.6 1.9814e-16
4492.125 1.8227e-16
4493.65 1.7137e-16
4495.175 1.674e-16
4496.7 1.7034e-16
4498.225 1.715e-16
4499.75 1.7854e-16
4501.275 1.8232e-16
4502.8 1.7352e-16
4504.325 1.7395e-16
4505.85 1.7803e-16
4507.375 1.617e-16
4508.9 1.7187e-16
4510.425 1.8118e-16
4511.95 1.7322e-16
4513.475 1.8904e-16
4515.0 1.9461e-16
4516.525 1.7939e-16
4518.05 1.7961e-16
4519.575 1.7167e-16
4521.1 1.787e-16
4522.625 1.784e-16
4524.15 1.8213e-16
4525.675 1.7573e-16
4527.2 1.831e-16
4528.725 1.6978e-16
4530.25 1.9865e-16
4531.775 1.9352e-16
4533.3 1.7336e-16
4534.825 1.8218e-16
4536.35 1.7628e-16
4537.875 1.7692e-16
4539.4 1.8635e-16
4540.925 1.7995e-16
4542.45 1.9089e-16
4543.975 1.857e-16
4545.5 1.7485e-16
4547.025 1.8003e-16
4548.55 1.9551e-16
4550.075 1.8173e-16
4551.6 1.8017e-16
4553.125 1.8699e-16
4554.65 1.9365e-16
4556.175 2.0184e-16
4557.7 1.9409e-16
4559.225 1.802e-16
4560.75 1.9392e-16
4562.275 1.8972e-16
4563.8 2.0222e-16
4565.325 1.828e-16
4566.85 1.7445e-16
4568.375 1.8038e-16
4569.9 1.8779e-16
4571.425 1.918e-16
4572.95 1.7958e-16
4574.475 1.645e-16
4576.0 1.7269e-16
4577.525 1.7651e-16
4579.05 1.6346e-16
4580.575 1.6417e-16
4582.1 1.8392e-16
4583.625 1.9269e-16
4585.15 1.7386e-16
4586.675 1.7998e-16
4588.2 1.7971e-16
4589.725 1.7902e-16
4591.25 1.8188e-16
4592.775 1.7631e-16
4594.3 1.8154e-16
4595.825 1.8084e-16
4597.35 1.7019e-16
4598.875 1.6966e-16
4600.4 1.7345e-16
4601.925 1.8519e-16
4603.45 1.9771e-16
4604.975 2.001e-16
4606.5 1.6223e-16
4608.025 1.6323e-16
4609.55 1.6849e-16
4611.075 1.8541e-16
4612.6 1.8271e-16
4614.125 1.7596e-16
4615.65 1.7721e-16
4617.175 1.7849e-16
4618.7 1.7706e-16
4620.225 1.864e-16
4621.75 1.7542e-16
4623.275 1.7673e-16
4624.8 1.7359e-16
4626.325 1.6981e-16
4627.85 1.6648e-16
4629.375 1.6091e-16
4630.9 1.5649e-16
4632.425 1.7944e-16
4633.95 1.8099e-16
4635.475 1.8094e-16
4637.0 1.7664e-16
4638.525 1.7441e-16
4640.05 1.7464e-16
4641.575 1.6672e-16
4643.1 1.6277e-16
4644.625 1.5886e-16
4646.15 1.6534e-16
4647.675 1.6231e-16
4649.2 1.6627e-16
4650.725 1.6909e-16
4652.25 1.6334e-16
4653.775 1.6993e-16
4655.3 1.6397e-16
4656.825 1.6348e-16
4658.35 1.652e-16
4659.875 1.7131e-16
4661.4 1.7238e-16
4662.925 1.5234e-16
4664.45 1.5732e-16
4665.975 1.5465e-16
4667.5 1.5148e-16
4669.025 1.5431e-16
4670.55 1.4335e-16
4672.075 1.4752e-16
4673.6 1.4822e-16
4675.125 1.65e-16
4676.65 1.5236e-16
4678.175 1.4362e-16
4679.7 1.4003e-16
4681.225 1.466e-16
4682.75 1.4721e-16
4684.275 1.4276e-16
4685.8 1.6122e-16
4687.325 1.5684e-16
4688.85 1.545e-16
4690.375 1.5301e-16
4691.9 1.4308e-16
4693.425 1.4717e-16
4694.95 1.5481e-16
4696.475 1.5307e-16
4698.0 1.4804e-16
4699.525 1.4924e-16
4701.05 1.4548e-16
4702.575 1.4886e-16
4704.1 1.4894e-16
4705.625 1.4281e-16
4707.15 1.4775e-16
4708.675 1.4481e-16
4710.2 1.3919e-16
4711.725 1.4941e-16
4713.25 1.473e-16
4714.775 1.5121e-16
4716.3 1.5368e-16
4717.825 1.479e-16
4719.35 1.4266e-16
4720.875 1.3696e-16
4722.4 1.3861e-16
4723.925 1.4416e-16
4725.45 1.422e-16
4726.975 1.4798e-16
4728.5 1.5996e-16
4730.025 1.5864e-16
4731.55 1.6294e-16
4733.075 1.5033e-16
4734.6 1.4418e-16
4736.125 1.6364e-16
4737.65 1.5978e-16
4739.175 1.4908e-16
4740.7 1.4938e-16
4742.225 1.4853e-16
4743.75 1.4855e-16
4745.275 1.3964e-16
4746.8 1.4743e-16
4748.325 1.5784e-16
4749.85 1.5553e-16
4751.375 1.6767e-16
4752.9 1.6593e-16
4754.425 1.7737e-16
4755.95 1.5925e-16
4757.475 1.6225e-16
4759.0 1.5524e-16
4760.525 1.4798e-16
4762.05 1.7058e-16
4763.575 1.7786e-16
4765.1 1.704e-16
4766.625 1.7092e-16
4768.15 1.6341e-16
4769.675 1.7593e-16
4771.2 1.6673e-16
4772.725 1.7099e-16
4774.25 1.8026e-16
4775.775 1.6761e-16
4777.3 1.7011e-16
4778.825 1.6989e-16
4780.35 1.6551e-16
4781.875 1.8038e-16
4783.4 1.6333e-16
4784.925 1.6915e-16
4786.45 1.6328e-16
4787.975 1.7276e-16
4789.5 1.7063e-16
4791.025 1.9153e-16
4792.55 1.849e-16
4794.075 1.7487e-16
4795.6 1.8189e-16
4797.125 1.7044e-16
4798.65 1.6014e-16
4800.175 1.4989e-16
4801.7 1.5571e-16
4803.225 1.6354e-16
4804.75 1.5686e-16
4806.275 1.544e-16
4807.8 1.5355e-16
4809.325 1.7116e-16
4810.85 1.6933e-16
4812.375 1.6088e-16
4813.9 1.6222e-16
4815.425 1.5447e-16
4816.95 1.4802e-16
4818.475 1.5606e-16
4820.0 1.4828e-16
4821.525 1.482e-16
4823.05 1.5885e-16
4824.575 1.4979e-16
4826.1 1.4048e-16
4827.625 1.4379e-16
4829.15 1.5797e-16
4830.675 1.55e-16
4832.2 1.578e-16
4833.725 1.5116e-16
4835.25 1.3178e-16
4836.775 1.2649e-16
4838.3 1.3138e-16
4839.825 1.3697e-16
4841.35 1.3197e-16
4842.875 1.3937e-16
4844.4 1.3845e-16
4845.925 1.4576e-16
4847.45 1.2938e-16
4848.975 1.1896e-16
4850.5 1.3226e-16
4852.025 1.357e-16
4853.55 1.3405e-16
4855.075 1.2937e-16
4856.6 1.2691e-16
4858.125 1.2762e-16
4859.65 1.2492e-16
4861.175 1.2897e-16
4862.7 1.2899e-16
4864.225 1.1049e-16
4865.75 1.2366e-16
4867.275 1.2741e-16
4868.8 1.3309e-16
4870.325 1.2664e-16
4871.85 1.2519e-16
4873.375 1.3322e-16
4874.9 1.3636e-16
4876.425 1.2007e-16
4877.95 1.3286e-16
4879.475 1.3239e-16
4881.0 1.2991e-16
4882.525 1.3676e-16
4884.05 1.3153e-16
4885.575 1.1123e-16
4887.1 1.2782e-16
4888.625 1.432e-16
4890.15 1.1427e-16
4891.675 1.3468e-16
4893.2 1.2336e-16
4894.725 1.2882e-16
4896.25 1.3489e-16
4897.775 1.3837e-16
4899.3 1.4202e-16
4900.825 1.4796e-16
4902.35 1.4655e-16
4903.875 1.2717e-16
4905.4 1.235e-16
4906.925 1.3344e-16
4908.45 1.3823e-16
4909.975 1.3781e-16
4911.5 1.4226e-16
4913.025 1.3022e-16
4914.55 1.4777e-16
4916.075 1.3344e-16
4917.6 1.3988e-16
4919.125 1.5552e-16
4920.65 1.4547e-16
4922.175 1.4355e-16
4923.7 1.5602e-16
4925.225 1.5342e-16
4926.75 1.3523e-16
4928.275 1.4133e-16
4929.8 1.3895e-16
4931.325 1.486e-16
4932.85 1.4266e-16
4934.375 1.3323e-16
4935.9 1.4205e-16
4937.425 1.4569e-16
4938.95 1.358e-16
4940.475 1.5443e-16
4942.0 1.4337e-16
4943.525 1.3531e-16
4945.05 1.4015e-16
4946.575 1.4592e-16
4948.1 1.463e-16
4949.625 1.5094e-16
4951.15 1.4867e-16
4952.675 1.4244e-16
4954.2 1.425e-16
4955.725 1.3893e-16
4957.25 1.4062e-16
4958.775 1.4573e-16
4960.3 1.3673e-16
4961.825 1.3681e-16
4963.35 1.5356e-16
4964.875 1.5347e-16
4966.4 1.3726e-16
4967.925 1.5134e-16
4969.45 1.4604e-16
4970.975 1.531e-16
4972.5 1.4172e-16
4974.025 1.4899e-16
4975.55 1.5258e-16
4977.075 1.3879e-16
4978.6 1.3542e-16
4980.125 1.3908e-16
4981.65 1.4296e-16
4983.175 1.3575e-16
4984.7 1.45e-16
4986.225 1.5658e-16
4987.75 1.5699e-16
4989.275 1.578e-16
4990.8 1.3994e-16
4992.325 1.6391e-16
4993.85 1.6272e-16
4995.375 1.4661e-16
4996.9 1.5571e-16
4998.425 1.4596e-16
4999.95 1.6193e-16
5001.475 1.5744e-16
5003.0 1.4947e-16
5004.525 1.4421e-16
5006.05 1.4419e-16
5007.575 1.3758e-16
5009.1 1.4855e-16
5010.625 1.5711e-16
5012.15 1.4616e-16
5013.675 1.4611e-16
5015.2 1.4689e-16
5016.725 1.4827e-16
5018.25 1.5272e-16
5019.775 1.4929e-16
5021.3 1.4466e-16
5022.825 1.4859e-16
5024.35 1.4594e-16
5025.875 1.4141e-16
5027.4 1.4721e-16
5028.925 1.4885e-16
5030.45 1.3954e-16
5031.975 1.4324e-16
5033.5 1.3937e-16
5035.025 1.4016e-16
5036.55 1.3269e-16
5038.075 1.3892e-16
5039.6 1.3282e-16
5041.125 1.4232e-16
5042.65 1.4112e-16
5044.175 1.4711e-16
5045.7 1.3866e-16
5047.225 1.444e-16
5048.75 1.3656e-16
5050.275 1.4767e-16
5051.8 1.4382e-16
5053.325 1.3834e-16
5054.85 1.424e-16
5056.375 1.3949e-16
5057.9 1.3388e-16
5059.425 1.3981e-16
5060.95 1.3732e-16
5062.475 1.4388e-16
5064.0 1.3459e-16
5065.525 1.2767e-16
5067.05 1.155e-16
5068.575 1.3046e-16
5070.1 1.3738e-16
5071.625 1.3126e-16
5073.15 1.2778e-16
5074.675 1.3552e-16
5076.2 1.4093e-16
5077.725 1.2867e-16
5079.25 1.3418e-16
5080.775 1.3616e-16
5082.3 1.4438e-16
5083.825 1.4496e-16
5085.35 1.3987e-16
5086.875 1.5418e-16
5088.4 1.3058e-16
5089.925 1.2094e-16
5091.45 1.3609e-16
5092.975 1.1673e-16
5094.5 1.1883e-16
5096.025 1.3569e-16
5097.55 1.3175e-16
5099.075 1.2215e-16
5100.6 1.132e-16
5102.125 1.1835e-16
5103.65 1.1592e-16
5105.175 1.2773e-16
5106.7 1.1712e-16
5108.225 1.1842e-16
5109.75 1.2252e-16
5111.275 1.2526e-16
5112.8 1.2396e-16
5114.325 1.1325e-16
5115.85 1.0418e-16
5117.375 1.0891e-16
5118.9 1.2037e-16
5120.425 1.1503e-16
5121.95 1.0482e-16
5123.475 1.1131e-16
5125.0 1.1504e-16
5126.525 1.102e-16
5128.05 1.1238e-16
5129.575 1.2405e-16
5131.1 1.1808e-16
5132.625 1.0075e-16
5134.15 1.0304e-16
5135.675 9.6997e-17
5137.2 9.6105e-17
5138.725 1.0266e-16
5140.25 1.0745e-16
5141.775 1.0453e-16
5143.3 1.083e-16
5144.825 1.0116e-16
5146.35 9.3644e-17
5147.875 1.0377e-16
5149.4 9.821e-17
5150.925 9.2643e-17
5152.45 9.5667e-17
5153.975 8.9721e-17
5155.5 9.8596e-17
5157.025 9.9151e-17
5158.55 8.8773e-17
5160.075 9.6935e-17
5161.6 1.1585e-16
5163.125 1.0284e-16
5164.65 1.0036e-16
5166.175 9.1901e-17
5167.7 1.0018e-16
5169.225 1.0566e-16
5170.75 1.0402e-16
5172.275 1.0119e-16
5173.8 9.8407e-17
5175.325 1.1683e-16
5176.85 1.1731e-16
5178.375 1.0985e-16
5179.9 1.059e-16
5181.425 9.7532e-17
5182.95 1.0616e-16
5184.475 1.1012e-16
5186.0 1.0335e-16
5187.525 1.0678e-16
5189.05 1.0317e-16
5190.575 1.0868e-16
5192.1 1.0601e-16
5193.625 9.7031e-17
5195.15 9.293e-17
5196.675 9.1258e-17
5198.2 1.0641e-16
5199.725 1.0856e-16
5201.25 9.2711e-17
5202.775 9.2187e-17
5204.3 1.1339e-16
5205.825 1.0651e-16
5207.35 1.0454e-16
5208.875 1.0997e-16
5210.4 1.0296e-16
5211.925 9.7068e-17
5213.45 9.669e-17
5214.975 1.034e-16
5216.5 1.046e-16
5218.025 1.0707e-16
5219.55 1.0743e-16
5221.075 1.0608e-16
5222.6 1.118e-16
5224.125 1.1474e-16
5225.65 1.1287e-16
5227.175 1.1366e-16
5228.7 9.6652e-17
5230.225 8.8723e-17
5231.75 1.1156e-16
5233.275 1.1092e-16
5234.8 1.1492e-16
5236.325 1.1877e-16
5237.85 1.2561e-16
5239.375 1.1467e-16
5240.9 9.8531e-17
5242.425 9.3992e-17
5243.95 1.0244e-16
5245.475 1.0987e-16
5247.0 1.1816e-16
5248.525 1.1395e-16
5250.05 1.2099e-16
5251.575 1.1908e-16
5253.1 1.1504e-16
5254.625 1.1007e-16
5256.15 1.1973e-16
5257.675 1.0989e-16
5259.2 1.0987e-16
5260.725 1.1474e-16
5262.25 1.1019e-16
5263.775 1.142e-16
5265.3 1.0462e-16
5266.825 1.1435e-16
5268.35 1.1649e-16
5269.875 1.0232e-16
5271.4 1.0921e-16
5272.925 1.1285e-16
5274.45 1.154e-16
5275.975 1.0529e-16
5277.5 1.0681e-16
5279.025 1.1046e-16
5280.55 1.0301e-16
5282.075 1.0884e-16
5283.6 1.165e-16
5285.125 1.1575e-16
5286.65 1.1547e-16
5288.175 1.1632e-16
5289.7 1.158e-16
5291.225 1.0845e-16
5292.75 1.1109e-16
5294.275 1.1613e-16
5295.8 1.1298e-16
5297.325 1.1108e-16
5298.85 1.2073e-16
5300.375 1.1582e-16
5301.9 1.0129e-16
5303.425 1.1538e-16
5304.95 1.1892e-16
5306.475 1.152e-16
5308.0 1.2078e-16
5309.525 1.2545e-16
5311.05 1.1854e-16
5312.575 1.1669e-16
5314.1 1.1869e-16
5315.625 1.0477e-16
5317.15 1.0132e-16
5318.675 1.2436e-16
5320.2 1.2009e-16
5321.725 1.1597e-16
5323.25 9.9929e-17
5324.775 1.2237e-16
5326.3 1.1671e-16
5327.825 1.0182e-16
5329.35 1.0825e-16
5330.875 1.2004e-16
5332.4 1.1997e-16
5333.925 1.1657e-16
5335.45 1.1299e-16
5336.975 1.3662e-16
5338.5 1.2706e-16
5340.025 1.1675e-16
5341.55 1.1502e-16
5343.075 1.1926e-16
5344.6 1.3207e-16
5346.125 1.32e-16
5347.65 1.1473e-16
5349.175 1.1431e-16
5350.7 1.1293e-16
5352.225 1.2666e-16
5353.75 1.2498e-16
5355.275 1.2201e-16
5356.8 1.4229e-16
5358.325 1.2268e-16
5359.85 1.1167e-16
5361.375 1.1769e-16
5362.9 1.2647e-16
5364.425 1.076e-16
5365.95 1.2167e-16
5367.475 1.214e-16
5369.0 1.3273e-16
5370.525 1.2979e-16
5372.05 1.2074e-16
5373.575 1.1141e-16
5375.1 1.1089e-16
5376.625 1.2097e-16
5378.15 1.1746e-16
5379.675 1.2162e-16
5381.2 1.3133e-16
5382.725 1.2464e-16
5384.25 1.1709e-16
5385.775 1.1744e-16
5387.3 1.3169e-16
5388.825 1.2468e-16
5390.35 1.2977e-16
5391.875 1.2777e-16
5393.4 1.1339e-16
5394.925 1.197e-16
5396.45 1.4075e-16
5397.975 1.4044e-16
5399.5 1.2083e-16
5401.025 1.0341e-16
5402.55 1.1552e-16
5404.075 1.2426e-16
5405.6 1.2504e-16
5407.125 1.1429e-16
5408.65 1.3079e-16
5410.175 1.2637e-16
5411.7 1.066e-16
5413.225 1.0812e-16
5414.75 1.0766e-16
5416.275 1.1272e-16
5417.8 1.0573e-16
5419.325 1.081e-16
5420.85 1.2078e-16
5422.375 1.0855e-16
5423.9 1.2509e-16
5425.425 1.4101e-16
5426.95 1.1813e-16
5428.475 1.2308e-16
5430.0 1.2622e-16
5431.525 1.1912e-16
5433.05 9.7901e-17
5434.575 1.0709e-16
5436.1 1.1544e-16
5437.625 1.3033e-16
5439.15 1.2217e-16
5440.675 9.6542e-17
5442.2 9.4548e-17
5443.725 9.0611e-17
5445.25 1.0359e-16
5446.775 9.8736e-17
5448.3 9.5828e-17
5449.825 1.1988e-16
5451.35 1.3296e-16
5452.875 1.0224e-16
5454.4 1.2188e-16
5455.925 1.1942e-16
5457.45 1.0821e-16
5458.975 1.1353e-16
5460.5 9.9081e-17
5462.025 9.1273e-17
5463.55 1.0207e-16
5465.075 9.0953e-17
5466.6 1.1166e-16
5468.125 1.1593e-16
5469.65 1.0155e-16
5471.175 9.5895e-17
5472.7 8.8455e-17
5474.225 8.43e-17
5475.75 1.038e-16
5477.275 1.0452e-16
5478.8 8.5806e-17
5480.325 1.0029e-16
5481.85 9.6499e-17
5483.375 6.6574e-17
5484.9 6.1143e-17
5486.425 7.3391e-17
5487.95 8.1123e-17
5489.475 8.277e-17
5491.0 7.9723e-17
5492.525 7.7857e-17
5494.05 8.32e-17
5495.575 5.9515e-17
5497.1 6.9372e-17
5498.625 1.0007e-16
5500.15 9.0243e-17
5501.675 9.8955e-17
5503.2 8.8564e-17
5504.725 7.5995e-17
5506.25 8.4236e-17
5507.775 9.1512e-17
5509.3 7.8234e-17
5510.825 7.2957e-17
5512.35 8.4425e-17
5513.875 8.1913e-17
5515.4 8.8703e-17
5516.925 9.4664e-17
5518.45 1.0516e-16
5519.975 7.2772e-17
5521.5 8.3837e-17
5523.025 1.0056e-16
5524.55 1.0764e-16
5526.075 8.6222e-17
5527.6 8.8734e-17
5529.125 9.5862e-17
5530.65 9.0801e-17
5532.175 9.6701e-17
5533.7 9.3178e-17
5535.225 9.7666e-17
5536.75 8.543e-17
5538.275 6.7912e-17
5539.8 7.094e-17
5541.325 8.2117e-17
5542.85 9.1257e-17
5544.375 8.4756e-17
5545.9 7.1556e-17
5547.425 7.2685e-17
5548.95 7.9516e-17
5550.475 8.1111e-17
5552.0 8.9184e-17
5553.525 8.9067e-17
5555.05 8.9525e-17
5556.575 9.1559e-17
5558.1 9.7246e-17
5559.625 9.8615e-17
5561.15 8.7983e-17
5562.675 7.3435e-17
5564.2 9.9305e-17
5565.725 1.2357e-16
5567.25 1.0525e-16
5568.775 9.3838e-17
5570.3 9.7684e-17
5571.825 1.0412e-16
5573.35 1.0944e-16
5574.875 1.1111e-16
5576.4 1.3577e-16
5577.925 1.575e-16
5579.45 1.0921e-16
5580.975 1.1013e-16
5582.5 8.0677e-17
5584.025 1.035e-16
5585.55 1.1189e-16
5587.075 1.0941e-16
5588.6 1.1246e-16
5590.125 9.3303e-17
5591.65 1.153e-16
5593.175 1.3111e-16
5594.7 1.0404e-16
5596.225 8.8012e-17
5597.75 8.7306e-17
5599.275 9.2248e-17
5600.8 1.0114e-16
5602.325 1.0476e-16
5603.85 9.8991e-17
5605.375 8.929e-17
5606.9 9.5533e-17
5608.425 1.0923e-16
5609.95 1.1517e-16
5611.475 1.0335e-16
5613.0 1.1196e-16
5614.525 1.1662e-16
5616.05 1.2566e-16
5617.575 1.1039e-16
5619.1 1.0175e-16
5620.625 1.0556e-16
5622.15 1.0425e-16
5623.675 1.0628e-16
5625.2 1.0955e-16
5626.725 1.1145e-16
5628.25 1.1795e-16
5629.775 1.153e-16
5631.3 9.5879e-17
5632.825 1.0262e-16
5634.35 9.7278e-17
5635.875 1.013e-16
5637.4 1.2363e-16
5638.925 1.2859e-16
5640.45 1.1565e-16
5641.975 9.5381e-17
5643.5 1.0262e-16
5645.025 1.081e-16
5646.55 9.5304e-17
5648.075 9.7118e-17
5649.6 1.127e-16
5651.125 1.2051e-16
5652.65 1.0526e-16
5654.175 8.7431e-17
5655.7 9.7737e-17
5657.225 1.1134e-16
5658.75 1.1247e-16
5660.275 1.0668e-16
5661.8 9.1304e-17
5663.325 8.5162e-17
5664.85 1.0083e-16
5666.375 1.1333e-16
5667.9 1.1176e-16
5669.425 9.3156e-17
5670.95 8.8822e-17
5672.475 9.0738e-17
5674.0 1.0568e-16
5675.525 1.1547e-16
5677.05 9.5435e-17
5678.575 8.049e-17
5680.1 1.017e-16
5681.625 1.117e-16
5683.15 1.0517e-16
5684.675 1.2154e-16
5686.2 1.2071e-16
5687.725 1.0288e-16
5689.25 8.8383e-17
5690.775 9.006e-17
5692.3 1.0326e-16
5693.825 1.155e-16
5695.35 1.2643e-16
5696.875 1.3751e-16
5698.4 1.2819e-16
5699.925 1.1295e-16
5701.45 1.0308e-16
5702.975 1.0185e-16
5704.5 1.0738e-16
5706.025 1.1152e-16
5707.55 1.1532e-16
5709.075 1.0919e-16
5710.6 9.9819e-17
5712.125 9.9155e-17
5713.65 9.7392e-17
5715.175 9.4887e-17
5716.7 1.07e-16
5718.225 1.154e-16
5719.75 1.0824e-16
5721.275 1.0963e-16
5722.8 1.1293e-16
5724.325 1.026e-16
5725.85 1.0771e-16
5727.375 1.1797e-16
5728.9 1.0038e-16
5730.425 9.3561e-17
5731.95 1.0463e-16
5733.475 1.0976e-16
5735.0 1.0615e-16
5736.525 9.5479e-17
5738.05 9.9179e-17
5739.575 9.1509e-17
5741.1 7.98e-17
5742.625 8.6242e-17
5744.15 9.2891e-17
5745.675 9.2624e-17
5747.2 8.8913e-17
5748.725 8.4019e-17
5750.25 8.0376e-17
5751.775 9.0451e-17
5753.3 9.924e-17
5754.825 9.8608e-17
5756.35 9.471e-17
5757.875 8.5605e-17
5759.4 9.616e-17
5760.925 9.818e-17
5762.45 8.8377e-17
5763.975 9.8764e-17
5765.5 1.0755e-16
5767.025 9.8279e-17
5768.55 8.1589e-17
5770.075 7.5398e-17
5771.6 8.7898e-17
5773.125 1.0088e-16
5774.65 8.7909e-17
5776.175 8.3738e-17
5777.7 8.8865e-17
5779.225 8.8061e-17
5780.75 8.0011e-17
5782.275 7.4514e-17
5783.8 7.8428e-17
5785.325 7.8642e-17
5786.85 8.9235e-17
5788.375 9.8322e-17
5789.9 1.0748e-16
5791.425 1.0587e-16
5792.95 8.5728e-17
5794.475 7.3788e-17
5796.0 7.0115e-17
5797.525 8.0049e-17
5799.05 8.6824e-17
5800.575 7.7694e-17
5802.1 8.2682e-17
5803.625 8.5757e-17
5805.15 7.8428e-17
5806.675 7.3914e-17
5808.2 5.9692e-17
5809.725 6.0313e-17
5811.25 8.1927e-17
5812.775 9.0215e-17
5814.3 7.1439e-17
5815.825 8.1013e-17
5817.35 9.7826e-17
5818.875 8.9036e-17
5820.4 7.2529e-17
5821.925 7.7346e-17
5823.45 8.4005e-17
5824.975 8.2886e-17
5826.5 8.4525e-17
5828.025 8.9843e-17
5829.55 8.0643e-17
5831.075 8.2417e-17
5832.6 9.3615e-17
5834.125 8.1929e-17
5835.65 7.1037e-17
5837.175 8.2237e-17
5838.7 8.5235e-17
5840.225 7.5693e-17
5841.75 8.4801e-17
5843.275 9.0617e-17
5844.8 8.0638e-17
5846.325 8.2342e-17
5847.85 8.6714e-17
5849.375 9.0172e-17
5850.9 7.9382e-17
5852.425 7.4067e-17
5853.95 9.2342e-17
5855.475 1.038e-16
5857.0 8.9567e-17
5858.525 8.3456e-17
5860.05 7.5985e-17
5861.575 7.4782e-17
5863.1 8.8458e-17
5864.625 9.9626e-17
5866.15 1.0532e-16
5867.675 1.0787e-16
5869.2 9.7076e-17
5870.725 8.9219e-17
5872.25 9.0703e-17
5873.775 9.3194e-17
5875.3 9.4968e-17
5876.825 9.6315e-17
5878.35 9.3071e-17
5879.875 8.123e-17
5881.4 8.2125e-17
5882.925 8.359e-17
5884.45 9.7464e-17
5885.975 1.0116e-16
5887.5 1.071e-16
5889.025 9.904e-17
5890.55 1.199e-16
5892.075 1.1291e-16
5893.6 9.5876e-17
5895.125 1.1867e-16
5896.65 1.1734e-16
5898.175 7.9615e-17
5899.7 6.1974e-17
5901.225 8.7333e-17
5902.75 1.0971e-16
5904.275 1.0326e-16
5905.8 9.7135e-17
5907.325 8.9095e-17
5908.85 9.4844e-17
5910.375 9.4775e-17
5911.9 9.2104e-17
5913.425 9.2766e-17
5914.95 9.4451e-17
5916.475 9.8943e-17
5918.0 9.9407e-17
5919.525 8.8517e-17
5921.05 8.7646e-17
5922.575 8.9792e-17
5924.1 1.0668e-16
5925.625 1.0581e-16
5927.15 9.6655e-17
5928.675 9.8295e-17
5930.2 9.4445e-17
5931.725 8.8319e-17
5933.25 9.3604e-17
5934.775 1.0877e-16
5936.3 1.0224e-16
5937.825 8.0807e-17
5939.35 8.4924e-17
5940.875 1.0172e-16
5942.4 9.3968e-17
5943.925 9.2374e-17
5945.45 9.2474e-17
5946.975 9.0379e-17
5948.5 9.2549e-17
5950.025 9.3529e-17
5951.55 8.2004e-17
5953.075 7.3033e-17
5954.6 8.3647e-17
5956.125 8.714e-17
5957.65 8.5605e-17
5959.175 9.1177e-17
5960.7 8.2213e-17
5962.225 7.9449e-17
5963.75 7.8642e-17
5965.275 8.5474e-17
5966.8 9.2123e-17
5968.325 1.0656e-16
5969.85 1.0089e-16
5971.375 7.9585e-17
5972.9 6.648e-17
5974.425 7.5843e-17
5975.95 8.3076e-17
5977.475 8.3703e-17
5979.0 8.2886e-17
5980.525 8.0882e-17
5982.05 9.0628e-17
5983.575 9.3834e-17
5985.1 8.8404e-17
5986.625 8.0952e-17
5988.15 8.4177e-17
5989.675 9.0392e-17
5991.2 8.8375e-17
5992.725 8.0051e-17
5994.25 6.6084e-17
5995.775 5.7187e-17
5997.3 6.2638e-17
5998.825 8.7461e-17
6000.35 8.3499e-17
6001.875 8.3073e-17
6003.4 9.8782e-17
6004.925 8.6154e-17
6006.45 8.7266e-17
6007.975 1.0311e-16
6009.5 9.2806e-17
6011.025 7.4953e-17
6012.55 6.7375e-17
6014.075 8.4236e-17
6015.6 8.8203e-17
6017.125 8.3872e-17
6018.65 9.3221e-17
6020.175 8.1683e-17
6021.7 7.1058e-17
6023.225 8.6092e-17
6024.75 9.4544e-17
6026.275 7.5152e-17
6027.8 7.0991e-17
6029.325 7.9682e-17
6030.85 8.6288e-17
6032.375 8.6564e-17
6033.9 8.3847e-17
6035.425 8.9347e-17
6036.95 8.4461e-17
6038.475 7.9047e-17
6040.0 8.392e-17
6041.525 8.789e-17
6043.05 7.8841e-17
6044.575 8.2069e-17
6046.1 8.4378e-17
6047.625 8.4715e-17
6049.15 8.3955e-17
6050.675 7.6823e-17
6052.2 6.6716e-17
6053.725 7.3019e-17
6055.25 8.0735e-17
6056.775 7.0938e-17
6058.3 8.1771e-17
6059.825 8.2414e-17
6061.35 8.1388e-17
6062.875 8.5532e-17
6064.4 7.9108e-17
6065.925 7.2044e-17
6067.45 7.2001e-17
6068.975 7.9888e-17
6070.5 7.7855e-17
6072.025 6.6381e-17
6073.55 5.8875e-17
6075.075 6.9981e-17
6076.6 8.1388e-17
6078.125 8.0041e-17
6079.65 7.5476e-17
6081.175 7.5036e-17
6082.7 7.8002e-17
6084.225 7.1069e-17
6085.75 6.973e-17
6087.275 6.8248e-17
6088.8 6.487e-17
6090.325 7.2473e-17
6091.85 7.1774e-17
6093.375 6.6933e-17
6094.9 6.9119e-17
6096.425 7.0113e-17
6097.95 7.4174e-17
6099.475 8.2173e-17
6101.0 7.7592e-17
6102.525 6.3943e-17
6104.05 6.7541e-17
6105.575 7.6162e-17
6107.1 6.3364e-17
6108.625 6.3273e-17
6110.15 6.8961e-17
6111.675 6.2271e-17
6113.2 5.8968e-17
6114.725 5.4599e-17
6116.25 6.1371e-17
6117.775 7.3603e-17
6119.3 6.4519e-17
6120.825 6.4388e-17
6122.35 7.6759e-17
6123.875 8.3609e-17
6125.4 6.7873e-17
6126.925 5.4197e-17
6128.45 5.9973e-17
6129.975 6.0104e-17
6131.5 5.6884e-17
6133.025 5.7629e-17
6134.55 6.3394e-17
6136.075 5.1808e-17
6137.6 4.6407e-17
6139.125 5.0471e-17
6140.65 5.6533e-17
6142.175 5.5521e-17
6143.7 6.4128e-17
6145.225 7.2936e-17
6146.75 7.412e-17
6148.275 6.4763e-17
6149.8 7.0378e-17
6151.325 6.4149e-17
6152.85 5.9362e-17
6154.375 6.1744e-17
6155.9 5.514e-17
6157.425 4.8156e-17
6158.95 6.0597e-17
6160.475 6.5925e-17
6162.0 6.9062e-17
6163.525 6.7359e-17
6165.05 5.4934e-17
6166.575 5.8861e-17
6168.1 7.7338e-17
6169.625 7.9007e-17
6171.15 7.0469e-17
6172.675 5.9954e-17
6174.2 6.4275e-17
6175.725 6.0329e-17
6177.25 5.8181e-17
6178.775 6.5687e-17
6180.3 6.7418e-17
6181.825 6.086e-17
6183.35 5.7441e-17
6184.875 6.4741e-17
6186.4 6.8811e-17
6187.925 7.6612e-17
6189.45 7.2631e-17
6190.975 6.9017e-17
6192.5 7.6689e-17
6194.025 6.0126e-17
6195.55 5.3235e-17
6197.075 6.7313e-17
6198.6 7.7405e-17
6200.125 7.5704e-17
6201.65 7.6095e-17
6203.175 7.9575e-17
6204.7 6.9949e-17
6206.225 6.1575e-17
6207.75 5.8459e-17
6209.275 6.2869e-17
6210.8 6.7043e-17
6212.325 7.0423e-17
6213.85 6.8752e-17
6215.375 6.45e-17
6216.9 6.2151e-17
6218.425 6.0147e-17
6219.95 5.6123e-17
6221.475 6.731e-17
6223.0 6.8028e-17
6224.525 6.0477e-17
6226.05 5.6531e-17
6227.575 6.2371e-17
6229.1 6.4846e-17
6230.625 5.9917e-17
6232.15 5.2828e-17
6233.675 5.7934e-17
6235.2 6.3279e-17
6236.725 5.5389e-17
6238.25 5.2046e-17
6239.775 5.5071e-17
6241.3 5.2534e-17
6242.825 5.1341e-17
6244.35 6.4567e-17
6245.875 8.0475e-17
6247.4 7.5216e-17
6248.925 6.7182e-17
6250.45 6.4184e-17
6251.975 6.9764e-17
6253.5 7.1098e-17
6255.025 6.8157e-17
6256.55 7.1822e-17
6258.075 7.1259e-17
6259.6 6.2663e-17
6261.125 5.9622e-17
6262.65 5.8845e-17
6264.175 6.1803e-17
6265.7 6.7426e-17
6267.225 5.7573e-17
6268.75 4.8689e-17
6270.275 5.8513e-17
6271.8 5.5826e-17
6273.325 5.7827e-17
6274.85 6.6654e-17
6276.375 7.4043e-17
6277.9 7.284e-17
6279.425 6.2855e-17
6280.95 6.5256e-17
6282.475 6.6828e-17
6284.0 6.397e-17
6285.525 6.9936e-17
6287.05 7.1787e-17
6288.575 6.4425e-17
6290.1 7.0619e-17
6291.625 8.1404e-17
6293.15 6.7619e-17
6294.675 6.3236e-17
6296.2 7.3978e-17
6297.725 7.0212e-17
6299.25 5.8116e-17
6300.775 5.8221e-17
6302.3 7.1755e-17
6303.825 7.5261e-17
6305.35 6.4463e-17
6306.875 6.1867e-17
6308.4 6.2419e-17
6309.925 5.7792e-17
6311.45 5.9089e-17
6312.975 7.0236e-17
6314.5 7.8605e-17
6316.025 7.0113e-17
6317.55 5.8339e-17
6319.075 6.3064e-17
6320.6 6.8888e-17
6322.125 6.558e-17
6323.65 6.9408e-17
6325.175 7.1846e-17
6326.7 6.9649e-17
6328.225 7.1294e-17
6329.75 7.4683e-17
6331.275 7.9567e-17
6332.8 8.7357e-17
6334.325 7.8042e-17
6335.85 6.9695e-17
6337.375 6.5995e-17
6338.9 6.2721e-17
6340.425 7.7386e-17
6341.95 8.973e-17
6343.475 8.6915e-17
6345.0 8.3467e-17
6346.525 8.8329e-17
6348.05 8.1672e-17
6349.575 7.1377e-17
6351.1 7.1281e-17
6352.625 7.2379e-17
6354.15 7.7699e-17
6355.675 8.5361e-17
6357.2 8.1945e-17
6358.725 7.8999e-17
6360.25 7.808e-17
6361.775 7.0643e-17
6363.3 7.2647e-17
6364.825 7.9258e-17
6366.35 8.2382e-17
6367.875 8.1316e-17
6369.4 6.8939e-17
6370.925 6.701e-17
6372.45 7.5077e-17
6373.975 6.6989e-17
6375.5 6.5443e-17
6377.025 7.479e-17
6378.55 7.6046e-17
6380.075 7.333e-17
6381.6 7.0107e-17
6383.125 7.385e-17
6384.65 8.3213e-17
6386.175 8.781e-17
6387.7 9.3245e-17
6389.225 8.04e-17
6390.75 6.7351e-17
6392.275 7.8961e-17
6393.8 9.1946e-17
6395.325 8.924e-17
6396.85 7.9521e-17
6398.375 7.6427e-17
6399.9 8.4769e-17
6401.425 9.3368e-17
6402.95 8.8412e-17
6404.475 7.3767e-17
6406.0 6.6893e-17
6407.525 8.063e-17
6409.05 8.0598e-17
6410.575 7.5213e-17
6412.1 7.4988e-17
6413.625 6.7404e-17
6415.15 6.2965e-17
6416.675 6.8792e-17
6418.2 6.85e-17
6419.725 7.2617e-17
6421.25 8.5905e-17
6422.775 8.3178e-17
6424.3 6.4559e-17
6425.825 5.8082e-17
6427.35 6.5063e-17
6428.875 5.8007e-17
6430.4 5.5596e-17
6431.925 6.9963e-17
6433.45 7.1956e-17
6434.975 6.9325e-17
6436.5 6.6614e-17
6438.025 6.4299e-17
6439.55 6.1811e-17
6441.075 6.3431e-17
6442.6 6.4934e-17
6444.125 7.1398e-17
6445.65 7.5478e-17
6447.175 6.9561e-17
6448.7 6.5033e-17
6450.225 6.3378e-17
6451.75 6.4224e-17
6453.275 7.217e-17
6454.8 7.2966e-17
6456.325 7.2931e-17
6457.85 7.2714e-17
6459.375 6.6686e-17
6460.9 6.382e-17
6462.425 6.5328e-17
6463.95 6.4674e-17
6465.475 6.8232e-17
6467.0 7.3113e-17
6468.525 7.0335e-17
6470.05 7.1246e-17
6471.575 6.9376e-17
6473.1 6.465e-17
6474.625 7.1693e-17
6476.15 8.0743e-17
6477.675 8.6901e-17
6479.2 8.0389e-17
6480.725 7.8966e-17
6482.25 7.4233e-17
6483.775 6.3581e-17
6485.3 6.3935e-17
6486.825 7.7614e-17
6488.35 7.3306e-17
6489.875 7.0038e-17
6491.4 7.1131e-17
6492.925 7.0236e-17
6494.45 6.9379e-17
6495.975 7.733e-17
6497.5 7.9569e-17
6499.025 8.2661e-17
6500.55 8.5275e-17
6502.075 7.6526e-17
6503.6 7.782e-17
6505.125 8.4131e-17
6506.65 7.2296e-17
6508.175 6.7131e-17
6509.7 6.9748e-17
6511.225 7.8005e-17
6512.75 8.8943e-17
6514.275 8.8407e-17
6515.8 8.156e-17
6517.325 7.6657e-17
6518.85 8.3764e-17
6520.375 8.145e-17
6521.9 7.2607e-17
6523.425 7.1372e-17
6524.95 6.7329e-17
6526.475 7.643e-17
6528.0 7.3298e-17
6529.525 7.4308e-17
6531.05 7.9124e-17
6532.575 7.1902e-17
6534.1 6.5328e-17
6535.625 6.2547e-17
6537.15 7.7592e-17
6538.675 8.3724e-17
6540.2 7.2133e-17
6541.725 7.2781e-17
6543.25 6.4037e-17
6544.775 6.4666e-17
6546.3 6.9172e-17
6547.825 6.4626e-17
6549.35 7.5154e-17
6550.875 8.5902e-17
6552.4 6.8602e-17
6553.925 7.1125e-17
6555.45 7.3625e-17
6556.975 7.6451e-17
6558.5 7.8736e-17
6560.025 7.4964e-17
6561.55 8.1509e-17
6563.075 9.0491e-17
6564.6 8.3346e-17
6566.125 7.2087e-17
6567.65 7.1307e-17
6569.175 7.1366e-17
6570.7 6.9405e-17
6572.225 7.341e-17
6573.75 7.9671e-17
6575.275 7.5961e-17
6576.8 7.5369e-17
6578.325 8.066e-17
6579.85 8.1592e-17
6581.375 7.0898e-17
6582.9 6.8205e-17
6584.425 7.0667e-17
6585.95 6.6951e-17
6587.475 6.147e-17
6589.0 6.0265e-17
6590.525 6.7142e-17
6592.05 7.1123e-17
6593.575 7.1294e-17
6595.1 6.3485e-17
6596.625 6.1725e-17
6598.15 6.5076e-17
6599.675 6.5425e-17
6601.2 7.18e-17
6602.725 7.8187e-17
6604.25 6.9708e-17
6605.775 6.5936e-17
6607.3 6.5159e-17
6608.825 6.2172e-17
6610.35 6.5816e-17
6611.875 7.1307e-17
6613.4 6.9896e-17
6614.925 5.8679e-17
6616.45 5.6024e-17
6617.975 6.3268e-17
6619.5 6.6842e-17
6621.025 6.6258e-17
6622.55 6.8878e-17
6624.075 7.3868e-17
6625.6 7.6609e-17
6627.125 6.981e-17
6628.65 6.7594e-17
6630.175 7.079e-17
6631.7 7.1353e-17
6633.225 6.4463e-17
6634.75 6.9129e-17
6636.275 6.9237e-17
6637.8 6.0763e-17
6639.325 6.6279e-17
6640.85 7.018e-17
6642.375 6.8556e-17
6643.9 7.3097e-17
6645.425 6.7503e-17
6646.95 7.2719e-17
6648.475 8.5032e-17
6650.0 7.876e-17
6651.525 7.4696e-17
6653.05 7.3303e-17
6654.575 6.4712e-17
6656.1 6.5111e-17
6657.625 7.3033e-17
6659.15 6.899e-17
6660.675 6.7517e-17
6662.2 7.3571e-17
6663.725 7.4597e-17
6665.25 8.112e-17
6666.775 9.1919e-17
6668.3 8.7215e-17
6669.825 7.1891e-17
6671.35 6.7021e-17
6672.875 6.4184e-17
6674.4 7.1398e-17
6675.925 7.5674e-17
6677.45 7.9449e-17
6678.975 8.2181e-17
6680.5 6.6855e-17
6682.025 5.7388e-17
6683.55 7.2012e-17
6685.075 7.6539e-17
6686.6 6.8891e-17
6688.125 7.3397e-17
6689.65 8.1576e-17
6691.175 7.7745e-17
6692.7 7.2199e-17
6694.225 7.3298e-17
6695.75 7.7113e-17
6697.275 7.8415e-17
6698.8 7.966e-17
6700.325 8.856e-17
6701.85 8.5053e-17
6703.375 7.0951e-17
6704.9 6.4562e-17
6706.425 5.9268e-17
6707.95 6.6394e-17
6709.475 7.3381e-17
6711.0 7.2237e-17
6712.525 7.0946e-17
6714.05 6.4155e-17
6715.575 6.7707e-17
6717.1 6.9869e-17
6718.625 6.5312e-17
6720.15 6.9421e-17
6721.675 7.7892e-17
6723.2 8.509e-17
6724.725 8.2109e-17
6726.25 7.1369e-17
6727.775 7.2076e-17
6729.3 7.9901e-17
6730.825 7.7879e-17
6732.35 6.7431e-17
6733.875 6.7002e-17
6735.4 7.3965e-17
6736.925 6.6067e-17
6738.45 5.9834e-17
6739.975 6.5473e-17
6741.5 6.8371e-17
6743.025 7.6885e-17
6744.55 7.5138e-17
6746.075 7.1985e-17
6747.6 7.5243e-17
6749.125 7.913e-17
6750.65 7.7681e-17
6752.175 7.2888e-17
6753.7 6.1401e-17
6755.225 5.8968e-17
6756.75 6.0343e-17
6758.275 5.787e-17
6759.8 5.8741e-17
6761.325 5.9552e-17
6762.85 5.465e-17
6764.375 5.2574e-17
6765.9 5.9984e-17
6767.425 6.4666e-17
6768.95 6.8353e-17
6770.475 6.9821e-17
6772.0 6.1912e-17
6773.525 6.5451e-17
6775.05 6.869e-17
6776.575 6.9089e-17
6778.1 6.7142e-17
6779.625 6.5781e-17
6781.15 6.4417e-17
6782.675 6.3083e-17
6784.2 6.1436e-17
6785.725 6.1197e-17
6787.25 6.2772e-17
6788.775 6.6788e-17
6790.3 6.3654e-17
6791.825 5.7508e-17
6793.35 5.188e-17
6794.875 6.0404e-17
6796.4 6.4674e-17
6797.925 6.5896e-17
6799.45 6.988e-17
6800.975 6.629e-17
6802.5 6.9614e-17
6804.025 7.2821e-17
6805.55 6.7206e-17
6807.075 6.0686e-17
6808.6 5.618e-17
6810.125 5.6619e-17
6811.65 6.0185e-17
6813.175 6.3887e-17
6814.7 6.1294e-17
6816.225 5.3795e-17
6817.75 6.1141e-17
6819.275 6.3389e-17
6820.8 6.2132e-17
6822.325 5.4537e-17
6823.85 5.6311e-17
6825.375 6.9713e-17
6826.9 6.4286e-17
6828.425 5.2911e-17
6829.95 6.2861e-17
6831.475 6.431e-17
6833.0 5.7816e-17
6834.525 6.0335e-17
6836.05 5.9534e-17
6837.575 5.2951e-17
6839.1 4.8202e-17
6840.625 4.7816e-17
6842.15 5.1995e-17
6843.675 5.8205e-17
6845.2 6.3094e-17
6846.725 6.6986e-17
6848.25 6.1864e-17
6849.775 5.2199e-17
6851.3 5.9228e-17
6852.825 6.1685e-17
6854.35 5.7026e-17
6855.875 4.9289e-17
6857.4 4.8191e-17
6858.925 5.3669e-17
6860.45 6.1787e-17
6861.975 6.6223e-17
6863.5 6.0436e-17
6865.025 4.8521e-17
6866.55 4.4783e-17
6868.075 4.0963e-17
6869.6 4.2056e-17
6871.125 5.1524e-17
6872.65 6.1757e-17
6874.175 6.0439e-17
6875.7 5.5478e-17
6877.225 5.7476e-17
6878.75 5.5073e-17
6880.275 5.1352e-17
6881.8 5.5628e-17
6883.325 6.2413e-17
6884.85 6.1379e-17
6886.375 6.1117e-17
6887.9 6.0043e-17
6889.425 5.7562e-17
6890.95 4.7473e-17
6892.475 4.9873e-17
6894.0 6.1894e-17
6895.525 6.229e-17
6897.05 5.7305e-17
6898.575 5.5847e-17
6900.1 6.0442e-17
6901.625 6.146e-17
6903.15 5.8451e-17
6904.675 5.8478e-17
6906.2 5.6742e-17
6907.725 4.9871e-17
6909.25 5.2828e-17
6910.775 6.4243e-17
6912.3 6.9175e-17
6913.825 6.6965e-17
6915.35 6.0466e-17
6916.875 5.2303e-17
6918.4 5.6046e-17
6919.925 6.2137e-17
6921.45 5.9092e-17
6922.975 5.9389e-17
6924.5 5.8516e-17
6926.025 5.577e-17
6927.55 6.15e-17
6929.075 6.746e-17
6930.6 6.3131e-17
6932.125 5.4366e-17
6933.65 5.6247e-17
6935.175 5.9946e-17
6936.7 5.4497e-17
6938.225 5.8856e-17
6939.75 6.3801e-17
6941.275 6.4348e-17
6942.8 6.88e-17
6944.325 6.3852e-17
6945.85 5.9946e-17
6947.375 6.5936e-17
6948.9 6.9783e-17
6950.425 6.6935e-17
6951.95 5.6147e-17
6953.475 4.8234e-17
6955.0 5.2236e-17
6956.525 5.4808e-17
6958.05 5.5794e-17
6959.575 5.8079e-17
6961.1 5.9027e-17
6962.625 6.0002e-17
6964.15 5.8293e-17
6965.675 6.5047e-17
6967.2 7.206e-17
6968.725 6.2462e-17
6970.25 5.2595e-17
6971.775 4.8609e-17
6973.3 5.0715e-17
6974.825 5.5397e-17
6976.35 5.7865e-17
6977.875 5.4666e-17
6979.4 4.9032e-17
6980.925 5.1888e-17
6982.45 5.5909e-17
6983.975 5.2651e-17
6985.5 5.5676e-17
6987.025 6.1969e-17
6988.55 6.4482e-17
6990.075 6.5333e-17
6991.6 6.9298e-17
6993.125 6.4581e-17
6994.65 5.1122e-17
6996.175 5.2011e-17
6997.7 5.1004e-17
6999.225 5.3592e-17
7000.75 6.0064e-17
7002.275 5.3916e-17
7003.8 5.5494e-17
7005.325 5.6083e-17
7006.85 5.4154e-17
7008.375 5.1041e-17
7009.9 5.4355e-17
7011.425 5.8433e-17
7012.95 6.5928e-17
7014.475 6.685e-17
7016.0 6.4629e-17
7017.525 6.2735e-17
7019.05 5.9065e-17
7020.575 5.9172e-17
7022.1 6.2346e-17
7023.625 5.8205e-17
7025.15 5.4945e-17
7026.675 5.012e-17
7028.2 5.8556e-17
7029.725 6.083e-17
7031.25 6.0302e-17
7032.775 6.7913e-17
7034.3 7.2135e-17
7035.825 6.2478e-17
7037.35 5.5716e-17
7038.875 5.3431e-17
7040.4 5.5207e-17
7041.925 4.8403e-17
7043.45 4.9788e-17
7044.975 5.3356e-17
7046.5 5.6694e-17
7048.025 6.4208e-17
7049.55 5.986e-17
7051.075 4.803e-17
7052.6 5.0929e-17
7054.125 5.8684e-17
7055.65 6.0171e-17
7057.175 5.8478e-17
7058.7 6.128e-17
7060.225 6.3008e-17
7061.75 5.9215e-17
7063.275 6.1736e-17
7064.8 5.6137e-17
7066.325 4.8009e-17
7067.85 5.3632e-17
7069.375 5.3552e-17
7070.9 5.0039e-17
7072.425 5.1033e-17
7073.95 5.4862e-17
7075.475 6.6587e-17
7077.0 6.6973e-17
7078.525 5.0372e-17
7080.05 5.2946e-17
7081.575 6.1012e-17
7083.1 5.2726e-17
7084.625 4.8558e-17
7086.15 5.5979e-17
7087.675 5.9659e-17
7089.2 5.503e-17
7090.725 5.716e-17
7092.25 5.7056e-17
7093.775 5.6659e-17
7095.3 5.611e-17
7096.825 5.7741e-17
7098.35 6.0035e-17
7099.875 5.839e-17
7101.4 5.9244e-17
7102.925 5.5119e-17
7104.45 5.1141e-17
7105.975 5.5253e-17
7107.5 5.462e-17
7109.025 5.6311e-17
7110.55 6.1505e-17
7112.075 6.2365e-17
7113.6 5.6038e-17
7115.125 4.8928e-17
7116.65 4.9571e-17
7118.175 5.3469e-17
7119.7 5.2276e-17
7121.225 5.3919e-17
7122.75 5.8041e-17
7124.275 5.3155e-17
7125.8 5.6375e-17
7127.325 5.7457e-17
7128.85 5.6389e-17
7130.375 5.8481e-17
7131.9 5.8738e-17
7133.425 5.4985e-17
7134.95 4.8172e-17
7136.475 4.7489e-17
7138.0 4.7473e-17
7139.525 5.0141e-17
7141.05 5.6847e-17
7142.575 5.9542e-17
7144.1 5.4103e-17
7145.625 4.5499e-17
7147.15 4.5172e-17
7148.675 5.0889e-17
7150.2 5.5087e-17
7151.725 5.9148e-17
7153.25 6.1623e-17
7154.775 5.723e-17
7156.3 5.1952e-17
7157.825 4.9766e-17
7159.35 5.0248e-17
7160.875 5.1877e-17
7162.4 4.9129e-17
7163.925 5.0709e-17
7165.45 5.1098e-17
7166.975 5.0281e-17
7168.5 4.8467e-17
7170.025 5.02e-17
7171.55 5.4015e-17
7173.075 5.2499e-17
7174.6 5.4556e-17
7176.125 5.3734e-17
7177.65 4.6372e-17
7179.175 4.4384e-17
7180.7 4.7974e-17
7182.225 5.21e-17
7183.75 5.4162e-17
7185.275 5.6713e-17
7186.8 5.6817e-17
7188.325 5.008e-17
7189.85 3.9967e-17
7191.375 4.4387e-17
7192.9 5.5089e-17
7194.425 6.7892e-17
7195.95 7.5053e-17
7197.475 6.7439e-17
7199.0 5.4267e-17
7200.525 5.1221e-17
7202.05 5.1652e-17
7203.575 5.7385e-17
7205.1 5.2909e-17
7206.625 4.5279e-17
7208.15 5.2394e-17
7209.675 5.862e-17
7211.2 5.3501e-17
7212.725 4.8215e-17
7214.25 5.1387e-17
7215.775 5.3099e-17
7217.3 4.728e-17
7218.825 4.6286e-17
7220.35 4.0446e-17
7221.875 3.8496e-17
7223.4 4.361e-17
7224.925 4.5027e-17
7226.45 4.8802e-17
7227.975 4.6656e-17
7229.5 4.3966e-17
7231.025 4.8764e-17
7232.55 5.7267e-17
7234.075 6.723e-17
7235.6 8.1648e-17
7237.125 6.3729e-17
7238.65 4.1204e-17
7240.175 5.7281e-17
7241.7 6.1835e-17
7243.225 5.3795e-17
7244.75 5.4256e-17
7246.275 5.4926e-17
7247.8 5.0238e-17
7249.325 4.2273e-17
7250.85 4.8239e-17
7252.375 5.4055e-17
7253.9 5.311e-17
7255.425 4.9389e-17
7256.95 5.3886e-17
7258.475 5.6324e-17
7260.0 5.3554e-17
7261.525 4.6554e-17
7263.05 4.7827e-17
7264.575 5.0267e-17
7266.1 4.3709e-17
7267.625 3.6977e-17
7269.15 3.8475e-17
7270.675 4.0283e-17
7272.2 4.3942e-17
7273.725 4.9233e-17
7275.25 6.1527e-17
7276.775 6.0163e-17
7278.3 5.8076e-17
7279.825 5.9968e-17
7281.35 6.2368e-17
7282.875 6.1162e-17
7284.4 5.2041e-17
7285.925 4.1989e-17
7287.45 3.9913e-17
7288.975 4.7995e-17
7290.5 5.5529e-17
7292.025 5.5837e-17
7293.55 5.9812e-17
7295.075 5.69e-17
7296.6 4.6951e-17
7298.125 4.3128e-17
7299.65 4.9796e-17
7301.175 6.21e-17
7302.7 6.7945e-17
7304.225 6.2684e-17
7305.75 5.8425e-17
7307.275 5.3458e-17
7308.8 4.907e-17
7310.325 4.9019e-17
7311.85 4.6278e-17
7313.375 4.997e-17
7314.9 6.3715e-17
7316.425 7.3579e-17
7317.95 6.5387e-17
7319.475 4.5949e-17
7321.0 3.8161e-17
7322.525 4.6013e-17
7324.05 4.9643e-17
7325.575 5.4261e-17
7327.1 5.8433e-17
7328.625 5.1658e-17
7330.15 5.2951e-17
7331.675 5.4219e-17
7333.2 5.237e-17
7334.725 4.3642e-17
7336.25 4.7141e-17
7337.775 5.9544e-17
7339.3 5.8119e-17
7340.825 6.0466e-17
7342.35 5.1896e-17
7343.875 3.788e-17
7345.4 4.829e-17
7346.925 5.9405e-17
7348.45 6.6501e-17
7349.975 6.423e-17
7351.5 5.6718e-17
7353.025 5.6635e-17
7354.55 5.3635e-17
7356.075 5.2175e-17
7357.6 4.9999e-17
7359.125 4.6005e-17
7360.65 4.3747e-17
7362.175 4.7478e-17
7363.7 5.465e-17
7365.225 5.6268e-17
7366.75 5.7498e-17
7368.275 6.4779e-17
7369.8 6.625e-17
7371.325 5.8157e-17
7372.85 5.5274e-17
7374.375 5.4886e-17
7375.9 5.3222e-17
7377.425 5.8904e-17
7378.95 6.4747e-17
7380.475 6.3555e-17
7382.0 5.3442e-17
7383.525 5.1395e-17
7385.05 5.1422e-17
7386.575 4.6774e-17
7388.1 5.0707e-17
7389.625 6.1109e-17
7391.15 6.4527e-17
7392.675 5.7144e-17
7394.2 6.0364e-17
7395.725 5.4417e-17
7397.25 5.6391e-17
7398.775 7.3748e-17
7400.3 7.2687e-17
7401.825 6.8559e-17
7403.35 7.0646e-17
7404.875 6.3e-17
7406.4 5.9426e-17
7407.925 5.8733e-17
7409.45 5.6536e-17
7410.975 6.049e-17
7412.5 5.8266e-17
7414.025 4.9624e-17
7415.55 5.3383e-17
7417.075 5.3158e-17
7418.6 5.1202e-17
7420.125 5.0492e-17
7421.65 5.0747e-17
7423.175 5.3739e-17
7424.7 5.3953e-17
7426.225 5.5105e-17
7427.75 5.8031e-17
7429.275 5.6437e-17
7430.8 5.7305e-17
7432.325 5.6801e-17
7433.85 5.5435e-17
7435.375 5.4028e-17
7436.9 5.3645e-17
7438.425 5.3131e-17
7439.95 4.9713e-17
7441.475 4.6956e-17
7443.0 4.8009e-17
7444.525 4.8692e-17
7446.05 4.7478e-17
7447.575 4.7607e-17
7449.1 5.0064e-17
7450.625 5.533e-17
7452.15 5.4663e-17
7453.675 4.8754e-17
7455.2 4.9121e-17
7456.725 5.1475e-17
7458.25 5.3024e-17
7459.775 5.5253e-17
7461.3 5.3377e-17
7462.825 4.9086e-17
7464.35 4.5941e-17
7465.875 4.6653e-17
7467.4 5.604e-17
7468.925 6.3817e-17
7470.45 6.0016e-17
7471.975 5.6659e-17
7473.5 6.3847e-17
7475.025 6.9368e-17
7476.55 5.9764e-17
7478.075 5.0634e-17
7479.6 4.611e-17
7481.125 3.7127e-17
7482.65 4.1507e-17
7484.175 4.6771e-17
7485.7 4.1721e-17
7487.225 4.6881e-17
7488.75 5.3902e-17
7490.275 5.87e-17
7491.8 5.757e-17
7493.325 4.9367e-17
7494.85 4.5175e-17
7496.375 4.4808e-17
7497.9 5.0243e-17
7499.425 5.2625e-17
7500.95 5.1655e-17
7502.475 5.0672e-17
7504.0 5.8304e-17
7505.525 5.4588e-17
7507.05 4.7564e-17
7508.575 5.0578e-17
7510.1 5.3795e-17
7511.625 5.053e-17
7513.15 5.1719e-17
7514.675 5.7337e-17
7516.2 5.3769e-17
7517.725 5.6895e-17
7519.25 6.0686e-17
7520.775 6.4522e-17
7522.3 6.124e-17
7523.825 6.0822e-17
7525.35 6.011e-17
7526.875 5.4805e-17
7528.4 5.0093e-17
7529.925 5.2951e-17
7531.45 5.4495e-17
7532.975 5.7932e-17
7534.5 6.0763e-17
7536.025 5.8119e-17
7537.55 4.9898e-17
7539.075 4.5799e-17
7540.6 4.5306e-17
7542.125 4.7476e-17
7543.65 4.9346e-17
7545.175 5.4738e-17
7546.7 5.2445e-17
7548.225 4.6434e-17
7549.75 4.6651e-17
7551.275 5.3525e-17
7552.8 5.3736e-17
7554.325 5.3691e-17
7555.85 4.7661e-17
7557.375 4.8001e-17
7558.9 5.8395e-17
7560.425 5.4776e-17
7561.95 4.8322e-17
7563.475 4.7835e-17
7565.0 4.5595e-17
7566.525 4.7671e-17
7568.05 5.8066e-17
7569.575 6.5433e-17
7571.1 5.8518e-17
7572.625 5.1778e-17
7574.15 4.8711e-17
7575.675 4.5335e-17
7577.2 4.9279e-17
7578.725 5.0747e-17
7580.25 5.0637e-17
7581.775 5.2684e-17
7583.3 5.1813e-17
7584.825 5.2871e-17
7586.35 4.615e-17
7587.875 4.002e-17
7589.4 4.2694e-17
7590.925 4.2482e-17
7592.45 3.5589e-17
7593.975 2.6851e-17
7595.5 3.1868e-17
7597.025 3.9557e-17
7598.55 3.4558e-17
7600.075 4.6519e-17
7601.6 5.0157e-17
7603.125 3.0917e-17
7604.65 2.8525e-17
7606.175 3.8718e-17
7607.7 5.0139e-17
7609.225 5.548e-17
7610.75 5.3107e-17
7612.275 5.1963e-17
7613.8 4.8312e-17
7615.325 5.0814e-17
7616.85 6.0857e-17
7618.375 5.6809e-17
7619.9 4.339e-17
7621.425 3.7802e-17
7622.95 3.1086e-17
7624.475 2.702e-17
7626.0 3.9857e-17
7627.525 4.9731e-17
7629.05 4.9624e-17
7630.575 4.6552e-17
7632.1 4.5539e-17
7633.625 4.9268e-17
7635.15 4.5311e-17
7636.675 4.2948e-17
7638.2 4.6527e-17
7639.725 5.1802e-17
7641.25 4.934e-17
7642.775 4.5818e-17
7644.3 5.1867e-17
7645.825 5.5036e-17
7647.35 5.038e-17
7648.875 5.3766e-17
7650.4 5.6209e-17
7651.925 4.7286e-17
7653.45 4.6434e-17
7654.975 5.2292e-17
7656.5 4.5544e-17
7658.025 4.8258e-17
7659.55 6.1687e-17
7661.075 5.5655e-17
7662.6 5.0744e-17
7664.125 4.6075e-17
7665.65 4.0706e-17
7667.175 4.6193e-17
7668.7 4.3883e-17
7670.225 4.3532e-17
7671.75 5.0589e-17
7673.275 5.0037e-17
7674.8 5.0784e-17
7676.325 4.6075e-17
7677.85 4.1724e-17
7679.375 3.7992e-17
7680.9 3.3827e-17
7682.425 4.2129e-17
7683.95 5.1542e-17
7685.475 4.9188e-17
7687.0 4.5266e-17
7688.525 4.6517e-17
7690.05 4.8041e-17
7691.575 4.847e-17
7693.1 5.1826e-17
7694.625 5.3348e-17
7696.15 4.4607e-17
7697.675 4.2721e-17
7699.2 4.2798e-17
7700.725 4.5745e-17
7702.25 5.361e-17
7703.775 4.9656e-17
7705.3 4.7961e-17
7706.825 4.6273e-17
7708.35 4.6806e-17
7709.875 4.612e-17
7711.4 5.4106e-17
7712.925 6.0222e-17
7714.45 6.1109e-17
7715.975 5.3284e-17
7717.5 4.6056e-17
7719.025 3.8483e-17
7720.55 3.5113e-17
7722.075 4.0776e-17
7723.6 4.6227e-17
7725.125 5.3648e-17
7726.65 5.4484e-17
7728.175 4.6016e-17
7729.7 3.7628e-17
7731.225 4.2879e-17
7732.75 4.6943e-17
7734.275 3.765e-17
7735.8 3.796e-17
7737.325 4.7326e-17
7738.85 5.3996e-17
7740.375 5.4353e-17
7741.9 4.9914e-17
7743.425 5.042e-17
7744.95 5.4808e-17
7746.475 5.719e-17
7748.0 5.0913e-17
7749.525 4.8938e-17
7751.05 4.2426e-17
7752.575 3.6974e-17
7754.1 3.5019e-17
7755.625 3.0757e-17
7757.15 3.8665e-17
7758.675 4.2437e-17
7760.2 4.432e-17
7761.725 3.96e-17
7763.25 3.5236e-17
7764.775 4.5234e-17
7766.3 4.3157e-17
7767.825 3.7636e-17
7769.35 4.148e-17
7770.875 4.567e-17
7772.4 4.8012e-17
7773.925 5.9298e-17
7775.45 6.9204e-17
7776.975 5.6943e-17
7778.5 3.6361e-17
7780.025 3.6305e-17
7781.55 3.9744e-17
7783.075 3.5997e-17
7784.6 3.6623e-17
7786.125 4.1384e-17
7787.65 5.4462e-17
7789.175 6.0361e-17
7790.7 5.319e-17
7792.225 4.967e-17
7793.75 5.8808e-17
7795.275 5.6287e-17
7796.8 4.511e-17
7798.325 4.3471e-17
7799.85 4.7859e-17
7801.375 3.6648e-17
7802.9 4.0441e-17
7804.425 5.1253e-17
7805.95 4.5022e-17
7807.475 2.8171e-17
7809.0 3.1475e-17
7810.525 3.193e-17
7812.05 3.691e-17
7813.575 4.0489e-17
7815.1 4.6718e-17
7816.625 5.3318e-17
7818.15 4.1834e-17
7819.675 3.3358e-17
7821.2 5.5593e-17
7822.725 4.8553e-17
7824.25 4.1593e-17
7825.775 4.41e-17
7827.3 4.5075e-17
7828.825 4.5994e-17
7830.35 4.2241e-17
7831.875 4.2627e-17
7833.4 4.2788e-17
7834.925 5.1296e-17
7836.45 5.2284e-17
7837.975 4.1558e-17
7839.5 3.5568e-17
7841.025 4.1917e-17
7842.55 4.3739e-17
7844.075 4.3163e-17
7845.6 5.0066e-17
7847.125 5.5279e-17
7848.65 4.7754e-17
7850.175 4.6517e-17
7851.7 5.4307e-17
7853.225 6.2507e-17
7854.75 5.8135e-17
7856.275 5.2145e-17
7857.8 5.5861e-17
7859.325 5.588e-17
7860.85 4.5978e-17
7862.375 3.4376e-17
7863.9 3.6757e-17
7865.425 3.3414e-17
7866.95 2.7354e-17
7868.475 4.2439e-17
7870.0 4.1917e-17
7871.525 3.5793e-17
7873.05 4.7548e-17
7874.575 5.6764e-17
7876.1 4.1349e-17
7877.625 2.9835e-17
7879.15 3.0449e-17
7880.675 3.2734e-17
7882.2 4.2836e-17
7883.725 4.5951e-17
7885.25 4.8124e-17
7886.775 5.0741e-17
7888.3 5.499e-17
7889.825 5.7982e-17
7891.35 4.7074e-17
7892.875 3.7355e-17
7894.4 3.5279e-17
7895.925 4.1419e-17
7897.45 4.2587e-17
7898.975 3.7633e-17
7900.5 4.0189e-17
7902.025 4.6969e-17
7903.55 4.6241e-17
7905.075 3.8392e-17
7906.6 4.5284e-17
7908.125 5.2834e-17
7909.65 5.0374e-17
7911.175 4.8004e-17
7912.7 4.5295e-17
7914.225 3.2707e-17
7915.75 4.4601e-17
7917.275 3.9827e-17
7918.8 3.815e-17
7920.325 3.9262e-17
7921.85 4.0219e-17
7923.375 4.7819e-17
7924.9 4.1847e-17
7926.425 3.7178e-17
7927.95 3.1989e-17
7929.475 2.9251e-17
7931.0 4.0326e-17
7932.525 5.2801e-17
7934.05 5.4229e-17
7935.575 5.0674e-17
7937.1 4.4971e-17
7938.625 4.1234e-17
7940.15 4.3733e-17
7941.675 4.088e-17
7943.2 4.3741e-17
7944.725 4.3096e-17
7946.25 3.0738e-17
7947.775 3.8949e-17
7949.3 5.0674e-17
7950.825 4.2828e-17
7952.35 3.7877e-17
7953.875 3.7288e-17
7955.4 3.3607e-17
7956.925 2.979e-17
7958.45 3.1665e-17
7959.975 4.4861e-17
7961.5 4.1756e-17
7963.025 2.5445e-17
7964.55 3.4995e-17
7966.075 4.0235e-17
7967.6 3.126e-17
7969.125 2.953e-17
7970.65 3.5501e-17
7972.175 3.78e-17
7973.7 3.2825e-17
7975.225 3.4365e-17
7976.75 4.9892e-17
7978.275 3.8989e-17
7979.8 4.0369e-17
7981.325 3.7706e-17
7982.85 3.5619e-17
7984.375 3.6096e-17
7985.9 3.0036e-17
7987.425 2.6632e-17
7988.95 2.5943e-17
7990.475 3.4486e-17
7992.0 4.1992e-17
7993.525 3.7625e-17
7995.05 2.5045e-17
7996.575 2.9661e-17
7998.1 3.5469e-17
7999.625 3.6064e-17
8001.15 4.0085e-17
8002.675 3.4475e-17
8004.2 2.823e-17
8005.725 2.8161e-17
8007.25 3.2091e-17
8008.775 3.9032e-17
8010.3 3.6361e-17
8011.825 3.4512e-17
8013.35 3.8906e-17
8014.875 3.6733e-17
8016.4 3.3586e-17
8017.925 3.938e-17
8019.45 3.9364e-17
8020.975 3.859e-17
8022.5 4.2536e-17
8024.025 4.1172e-17
8025.55 4.1405e-17
8027.075 4.84e-17
8028.6 4.8403e-17
8030.125 3.5158e-17
8031.65 3.8491e-17
8033.175 3.7411e-17
8034.7 3.7352e-17
8036.225 3.7912e-17
8037.75 3.8108e-17
8039.275 4.406e-17
8040.8 4.4901e-17
8042.325 3.949e-17
8043.85 2.7796e-17
8045.375 2.7531e-17
8046.9 3.9568e-17
8048.425 4.53e-17
8049.95 4.5485e-17
8051.475 4.574e-17
8053.0 3.5739e-17
8054.525 2.3611e-17
8056.05 3.5742e-17
8057.575 4.9823e-17
8059.1 4.301e-17
8060.625 3.4137e-17
8062.15 2.8887e-17
8063.675 2.1939e-17
8065.2 1.8107e-17
8066.725 2.6242e-17
8068.25 3.5402e-17
8069.775 3.4622e-17
8071.3 3.3599e-17
8072.825 3.6615e-17
8074.35 4.5073e-17
8075.875 4.3581e-17
8077.4 3.695e-17
8078.925 3.6664e-17
8080.45 4.2911e-17
8081.975 4.0149e-17
8083.5 2.7802e-17
8085.025 2.852e-17
8086.55 3.0074e-17
8088.075 3.0674e-17
8089.6 3.4317e-17
8091.125 3.6905e-17
8092.65 4.1826e-17
8094.175 3.7004e-17
8095.7 2.9374e-17
8097.225 2.9021e-17
8098.75 3.114e-17
8100.275 2.8914e-17
8101.8 2.6899e-17
8103.325 2.8225e-17
8104.85 2.3729e-17
8106.375 2.7888e-17
8107.9 3.2562e-17
8109.425 3.608e-17
8110.95 3.0912e-17
8112.475 3.1584e-17
8114.0 3.1619e-17
8115.525 3.4941e-17
8117.05 3.4794e-17
8118.575 3.3168e-17
8120.1 3.3211e-17
8121.625 3.6535e-17
8123.15 2.8884e-17
8124.675 1.7502e-17
8126.2 2.2886e-17
8127.725 2.6547e-17
8129.25 2.9897e-17
8130.775 3.7816e-17
8132.3 3.7733e-17
8133.825 3.6128e-17
8135.35 3.7585e-17
8136.875 3.7698e-17
8138.4 3.5868e-17
8139.925 3.5841e-17
8141.45 3.0778e-17
8142.975 2.538e-17
8144.5 3.1512e-17
8146.025 3.8341e-17
8147.55 3.8917e-17
8149.075 3.8314e-17
8150.6 3.792e-17
8152.125 3.4022e-17
8153.65 3.1231e-17
8155.175 3.3821e-17
8156.7 4.1467e-17
8158.225 4.3123e-17
8159.75 3.6503e-17
8161.275 3.1842e-17
8162.8 3.1676e-17
8164.325 3.5155e-17
8165.85 3.9956e-17
8167.375 3.4212e-17
8168.9 2.8188e-17
8170.425 3.8298e-17
8171.95 4.8137e-17
8173.475 4.0232e-17
8175.0 3.5525e-17
8176.525 3.8223e-17
8178.05 3.6696e-17
8179.575 3.575e-17
8181.1 3.9943e-17
8182.625 3.927e-17
8184.15 4.3573e-17
8185.675 5.1794e-17
8187.2 5.1553e-17
8188.725 3.8011e-17
8190.25 2.8619e-17
8191.775 3.5426e-17
8193.3 3.6747e-17
8194.825 3.5849e-17
8196.35 3.0317e-17
8197.875 2.8228e-17
8199.4 4.2506e-17
8200.925 4.013e-17
8202.45 3.0548e-17
8203.975 3.1938e-17
8205.5 3.9072e-17
8207.025 4.3291e-17
8208.55 4.1542e-17
8210.075 3.9198e-17
8211.6 3.5565e-17
8213.125 4.1079e-17
8214.65 4.0612e-17
8216.175 4.0862e-17
8217.7 4.2656e-17
8219.225 3.7596e-17
8220.75 3.4156e-17
8222.275 3.4186e-17
8223.8 2.8517e-17
8225.325 3.0941e-17
8226.85 3.4585e-17
8228.375 3.4743e-17
8229.9 4.0058e-17
8231.425 4.1593e-17
8232.95 3.1258e-17
8234.475 2.9297e-17
8236.0 3.4282e-17
8237.525 3.987e-17
8239.05 4.1796e-17
8240.575 4.3018e-17
8242.1 3.9284e-17
8243.625 4.1432e-17
8245.15 4.2177e-17
8246.675 3.6184e-17
8248.2 3.3856e-17
8249.725 3.3414e-17
8251.25 3.2099e-17
8252.775 3.2064e-17
8254.3 3.5758e-17
8255.825 3.7558e-17
8257.35 3.3963e-17
8258.875 3.2565e-17
8260.4 3.6267e-17
8261.925 3.7299e-17
8263.45 3.8116e-17
8264.975 3.8914e-17
8266.5 4.2054e-17
8268.025 4.6053e-17
8269.55 3.6637e-17
8271.075 3.137e-17
8272.6 4.069e-17
8274.125 4.2389e-17
8275.65 2.8241e-17
8277.175 2.0166e-17
8278.7 2.8512e-17
8280.225 3.9819e-17
8281.75 4.0658e-17
8283.275 4.2375e-17
8284.8 4.6506e-17
8286.325 2.9854e-17
8287.85 2.8986e-17
8289.375 2.6928e-17
8290.9 2.755e-17
8292.425 2.8903e-17
8293.95 2.9956e-17
8295.475 4.4593e-17
8297.0 5.1358e-17
8298.525 5.0163e-17
8300.05 5.1714e-17
8301.575 3.9439e-17
8303.1 3.0395e-17
8304.625 3.564e-17
8306.15 4.4987e-17
8307.675 4.4818e-17
8309.2 4.2903e-17
8310.725 3.4362e-17
8312.25 3.5595e-17
8313.775 2.8956e-17
8315.3 3.2171e-17
8316.825 3.3428e-17
8318.35 3.6404e-17
8319.875 4.511e-17
8321.4 4.1649e-17
8322.925 3.4786e-17
8324.45 3.7518e-17
8325.975 3.6538e-17
8327.5 3.3551e-17
8329.025 2.9803e-17
8330.55 3.0708e-17
8332.075 3.7098e-17
8333.6 3.7122e-17
8335.125 3.1595e-17
8336.65 2.9535e-17
8338.175 2.5643e-17
8339.7 3.1933e-17
8341.225 4.7044e-17
8342.75 5.2014e-17
8344.275 4.3039e-17
8345.8 2.3117e-17
8347.325 1.7267e-17
8348.85 3.7842e-17
8350.375 4.6085e-17
8351.9 3.4542e-17
8353.425 3.1311e-17
8354.95 3.1911e-17
8356.475 2.6104e-17
8358.0 2.9969e-17
8359.525 4.6423e-17
8361.05 3.5504e-17
8362.575 1.9314e-17
8364.1 2.8469e-17
8365.625 3.8925e-17
8367.15 3.5571e-17
8368.675 3.5043e-17
8370.2 4.4296e-17
8371.725 4.1333e-17
8373.25 3.1507e-17
8374.775 2.8828e-17
8376.3 3.2238e-17
8377.825 3.5067e-17
8379.35 3.3181e-17
8380.875 3.0893e-17
8382.4 3.6557e-17
8383.925 4.1775e-17
8385.45 3.5297e-17
8386.975 3.1925e-17
8388.5 3.3645e-17
8390.025 3.4129e-17
8391.55 2.8268e-17
8393.075 2.4823e-17
8394.6 4.5327e-17
8396.125 5.5226e-17
8397.65 4.6742e-17
8399.175 5.5531e-17
8400.7 3.9782e-17
8402.225 2.1359e-17
8403.75 3.1271e-17
8405.275 4.2959e-17
8406.8 4.5196e-17
8408.325 4.4982e-17
8409.85 4.6849e-17
8411.375 5.0385e-17
8412.9 4.451e-17
8414.425 2.9867e-17
8415.95 3.6591e-17
8417.475 4.5236e-17
8419.0 3.2948e-17
8420.525 2.5325e-17
8422.05 3.2793e-17
8423.575 3.8659e-17
8425.1 4.9686e-17
8426.625 7.2248e-17
8428.15 5.3905e-17
8429.675 4.1368e-17
8431.2 2.6239e-17
8432.725 1.1274e-17
8434.25 3.17e-17
8435.775 3.0272e-17
8437.3 3.3374e-17
8438.825 4.4057e-17
8440.35 3.9983e-17
8441.875 3.1708e-17
8443.4 3.1384e-17
8444.925 3.2367e-17
8446.45 3.4729e-17
8447.975 3.7398e-17
8449.5 2.7041e-17
8451.025 3.0617e-17
8452.55 4.7342e-17
8454.075 4.0256e-17
8455.6 3.1132e-17
8457.125 2.3287e-17
8458.65 3.0143e-17
8460.175 3.9522e-17
8461.7 3.1582e-17
8463.225 1.7022e-17
8464.75 2.8356e-17
8466.275 4.818e-17
8467.8 4.4165e-17
8469.325 2.9315e-17
8470.85 2.7783e-17
8472.375 3.332e-17
8473.9 3.3406e-17
8475.425 3.7746e-17
8476.95 3.7336e-17
8478.475 3.4968e-17
8480.0 3.7274e-17
8481.525 3.6514e-17
8483.05 3.5903e-17
8484.575 4.2255e-17
8486.1 4.0438e-17
8487.625 4.1743e-17
8489.15 4.9431e-17
8490.675 3.3454e-17
8492.2 2.8016e-17
8493.725 4.5686e-17
8495.25 4.6428e-17
8496.775 3.6739e-17
8498.3 3.0347e-17
8499.825 2.8469e-17
8501.35 3.4922e-17
8502.875 3.6382e-17
8504.4 4.0698e-17
8505.925 4.6803e-17
8507.45 3.8866e-17
8508.975 3.478e-17
8510.5 3.1113e-17
8512.025 2.792e-17
8513.55 2.8327e-17
8515.075 3.2316e-17
8516.6 3.3915e-17
8518.125 3.0585e-17
8519.65 2.4211e-17
8521.175 2.5797e-17
8522.7 3.1801e-17
8524.225 3.492e-17
8525.75 3.6096e-17
8527.275 3.4695e-17
8528.8 3.694e-17
8530.325 3.1555e-17
8531.85 3.1132e-17
8533.375 3.2013e-17
8534.9 2.5147e-17
8536.425 2.2378e-17
8537.95 3.2442e-17
8539.475 3.8132e-17
8541.0 3.5705e-17
8542.525 3.0098e-17
8544.05 3.7033e-17
8545.575 4.4805e-17
8547.1 3.915e-17
8548.625 3.5201e-17
8550.15 3.1201e-17
8551.675 2.1508e-17
8553.2 2.2771e-17
8554.725 2.6208e-17
8556.25 2.7687e-17
8557.775 3.215e-17
8559.3 3.0057e-17
8560.825 3.32e-17
8562.35 3.7296e-17
8563.875 3.6056e-17
8565.4 3.372e-17
8566.925 3.6897e-17
8568.45 3.5172e-17
8569.975 3.1981e-17
8571.5 3.3077e-17
8573.025 2.8447e-17
8574.55 2.0717e-17
8576.075 2.6534e-17
8577.6 3.4038e-17
8579.125 3.1978e-17
8580.65 2.7839e-17
8582.175 2.9873e-17
8583.7 3.2431e-17
8585.225 3.3002e-17
8586.75 3.4408e-17
8588.275 3.1488e-17
8589.8 2.9329e-17
8591.325 2.9771e-17
8592.85 3.028e-17
8594.375 3.4668e-17
8595.9 3.489e-17
8597.425 3.4456e-17
8598.95 3.3272e-17
8600.475 2.6597e-17
8602.0 2.8608e-17
8603.525 3.5509e-17
8605.05 3.4277e-17
8606.575 2.5897e-17
8608.1 2.1008e-17
8609.625 2.4076e-17
8611.15 2.7301e-17
8612.675 2.4855e-17
8614.2 2.8021e-17
8615.725 3.1901e-17
8617.25 3.0282e-17
8618.775 3.3366e-17
8620.3 3.4373e-17
8621.825 4.3313e-17
8623.35 4.4733e-17
8624.875 2.837e-17
8626.4 2.2631e-17
8627.925 2.0591e-17
8629.45 1.8673e-17
8630.975 2.2389e-17
8632.5 2.8927e-17
8634.025 3.377e-17
8635.55 4.1127e-17
8637.075 3.4523e-17
8638.6 2.1135e-17
8640.125 2.44e-17
8641.65 2.964e-17
8643.175 3.2584e-17
8644.7 4.3795e-17
8646.225 4.5201e-17
8647.75 3.6064e-17
8649.275 2.7979e-17
8650.8 3.4229e-17
8652.325 4.1231e-17
8653.85 2.5994e-17
8655.375 2.2532e-17
8656.9 4.4299e-17
8658.425 5.3477e-17
8659.95 4.6911e-17
8661.475 4.2016e-17
8663.0 2.262e-17
8664.525 2.3303e-17
8666.05 3.1807e-17
8667.575 3.2769e-17
8669.1 3.4569e-17
8670.625 3.0572e-17
8672.15 3.4247e-17
8673.675 4.0162e-17
8675.2 3.8e-17
8676.725 3.201e-17
8678.25 2.6827e-17
8679.775 3.1059e-17
8681.3 2.9575e-17
8682.825 2.8292e-17
8684.35 3.1384e-17
8685.875 2.193e-17
8687.4 3.1515e-17
8688.925 3.3768e-17
8690.45 2.9763e-17
8691.975 3.0513e-17
8693.5 3.6388e-17
8695.025 3.3018e-17
8696.55 2.916e-17
8698.075 2.1431e-17
8699.6 2.0749e-17
8701.125 2.8747e-17
8702.65 3.4346e-17
8704.175 3.1129e-17
8705.7 2.6837e-17
8707.225 2.9578e-17
8708.75 3.0947e-17
8710.275 2.6691e-17
8711.8 2.7518e-17
8713.325 3.8563e-17
8714.85 3.8006e-17
8716.375 3.0352e-17
8717.9 2.9048e-17
8719.425 2.9942e-17
8720.95 3.5903e-17
8722.475 3.7004e-17
8724.0 3.3586e-17
8725.525 3.4266e-17
8727.05 3.4285e-17
8728.575 3.3524e-17
8730.1 3.1418e-17
8731.625 2.4902e-17
8733.15 2.5474e-17
8734.675 3.533e-17
8736.2 3.552e-17
8737.725 3.0824e-17
8739.25 3.496e-17
8740.775 3.7224e-17
8742.3 2.6444e-17
8743.825 2.234e-17
8745.35 3.0357e-17
8746.875 3.8317e-17
8748.4 4.2356e-17
8749.925 3.7438e-17
8751.45 3.0082e-17
8752.975 2.601e-17
8754.5 2.5617e-17
8756.025 4.178e-17
8757.55 6.098e-17
8759.075 5.2359e-17
8760.6 1.8798e-17
8762.125 1.0395e-17
8763.65 3.5587e-17
8765.175 2.6127e-17
8766.7 2.6749e-17
8768.225 4.1459e-17
8769.75 2.2508e-17
8771.275 7.7638e-18
8772.8 4.1866e-17
8774.325 7.1615e-17
8775.85 6.5963e-17
8777.375 5.761e-17
8778.9 5.109e-17
8780.425 2.8236e-17
8781.95 1.4157e-17
8783.475 1.3539e-17
8785.0 1.5021e-17
8786.525 2.27e-17
8788.05 3.4413e-17
8789.575 4.208e-17
8791.1 3.9195e-17
8792.625 3.6481e-17
8794.15 3.6907e-17
8795.675 4.1569e-17
8797.2 3.4507e-17
8798.725 2.766e-17
8800.25 3.4671e-17
8801.775 3.7165e-17
8803.3 3.4046e-17
8804.825 3.5865e-17
8806.35 3.152e-17
8807.875 2.4937e-17
8809.4 2.5189e-17
8810.925 2.9136e-17
8812.45 2.687e-17
8813.975 2.3484e-17
8815.5 3.1432e-17
8817.025 3.1965e-17
8818.55 1.1761e-17
8820.075 -6.8484e-18
8821.6 -4.5491e-18
8823.125 4.0366e-17
8824.65 5.241e-17
8826.175 5.8427e-17
8827.7 8.8126e-17
8829.225 3.4162e-17
8830.75 3.1914e-18
8832.275 3.3599e-17
8833.8 4.1705e-17
8835.325 2.8238e-17
8836.85 1.3924e-17
8838.375 1.2386e-17
8839.9 1.4488e-17
8841.425 1.7265e-17
8842.95 2.2089e-17
8844.475 3.6881e-17
8846.0 3.4287e-17
8847.525 7.3512e-18
8849.05 4.9587e-18
8850.575 2.006e-17
8852.1 2.8801e-17
8853.625 4.0162e-17
8855.15 3.8017e-17
8856.675 3.537e-17
8858.2 3.7357e-17
8859.725 3.0773e-17
8861.25 2.8793e-17
8862.775 2.92e-17
8864.3 3.3007e-17
8865.825 3.0355e-17
8867.35 3.758e-17
8868.875 3.3385e-17
8870.4 1.4331e-17
8871.925 2.3843e-17
8873.45 2.7087e-17
8874.975 2.5262e-17
8876.5 3.1927e-17
8878.025 3.1721e-17
8879.55 2.1663e-17
8881.075 5.4942e-17
8882.6 8.1297e-17
8884.125 4.7061e-17
8885.65 5.9381e-17
8887.175 6.3139e-17
8888.7 1.608e-17
8890.225 2.0018e-17
8891.75 3.1145e-17
8893.275 3.2485e-17
8894.8 2.9865e-17
8896.325 2.4435e-17
8897.85 2.0794e-17
8899.375 2.5739e-17
8900.9 9.9573e-18
8902.425 1.2491e-17
8903.95 3.1852e-17
8905.475 2.7427e-17
8907.0 3.1544e-17
8908.525 3.4965e-17
8910.05 3.4108e-17
8911.575 2.9058e-17
8913.1 1.1918e-17
8914.625 3.1713e-17
8916.15 7.8393e-17
8917.675 6.697e-17
8919.2 6.4709e-17
8920.725 6.0214e-17
8922.25 3.0869e-17
8923.775 1.7772e-17
8925.3 2.2204e-17
8926.825 1.8566e-17
8928.35 2.6426e-17
8929.875 3.4223e-17
8931.4 2.1403e-17
8932.925 1.8696e-17
8934.45 3.0741e-17
8935.975 2.7563e-17
8937.5 2.111e-17
8939.025 2.9932e-17
8940.55 4.2482e-17
8942.075 4.9233e-17
8943.6 4.7674e-17
8945.125 3.1357e-17
8946.65 1.5747e-17
8948.175 1.9003e-17
8949.7 2.4142e-17
8951.225 1.7916e-17
8952.75 2.023e-17
8954.275 4.4277e-17
8955.8 5.7294e-17
8957.325 5.8258e-17
8958.85 5.7685e-17
8960.375 2.643e-17
8961.9 8.4289e-18
8963.425 2.6553e-17
8964.95 2.7416e-17
8966.475 2.407e-17
8968.0 2.7671e-17
8969.525 2.2959e-17
8971.05 2.7601e-17
8972.575 3.118e-17
8974.1 2.2651e-17
8975.625 2.1206e-17
8977.15 3.1697e-17
8978.675 2.6915e-17
8980.2 2.4719e-17
8981.725 3.2115e-17
8983.25 2.2644e-17
8984.775 1.849e-17
8986.3 2.0175e-17
8987.825 3.2996e-17
8989.35 3.93e-17
8990.875 3.185e-17
8992.4 3.2597e-17
8993.925 2.242e-17
8995.45 1.9601e-17
8996.975 4.3661e-17
8998.5 3.695e-17
9000.025 1.8816e-17
9001.55 4.2206e-17
9003.075 4.2892e-17
9004.6 1.7355e-17
9006.125 2.5172e-17
9007.65 3.4087e-17
9009.175 2.9717e-17
9010.7 2.7695e-17
9012.225 2.5079e-17
9013.75 2.4618e-17
9015.275 3.0607e-17
9016.8 3.9868e-17
9018.325 3.5236e-17
9019.85 2.4728e-17
9021.375 3.1734e-17
9022.9 4.0267e-17
9024.425 3.8386e-17
9025.95 3.2498e-17
9027.475 3.257e-17
9029.0 4.1129e-17
9030.525 3.5131e-17
9032.05 2.6184e-17
9033.575 3.7982e-17
9035.1 3.3942e-17
9036.625 2.9899e-17
9038.15 2.822e-17
9039.675 2.1062e-17
9041.2 2.4234e-17
9042.725 2.953e-17
9044.25 3.6862e-17
9045.775 4.7149e-17
9047.3 5.5103e-17
9048.825 4.2445e-17
9050.35 2.7681e-17
9051.875 2.393e-17
9053.4 2.1599e-17
9054.925 2.46e-17
9056.45 3.1357e-17
9057.975 3.1416e-17
9059.5 2.5284e-17
9061.025 2.9881e-17
9062.55 3.339e-17
9064.075 2.6041e-17
9065.6 2.6872e-17
9067.125 2.8986e-17
9068.65 2.3732e-17
9070.175 2.3255e-17
9071.7 2.6208e-17
9073.225 2.342e-17
9074.75 1.785e-17
9076.275 1.9384e-17
9077.8 2.5199e-17
9079.325 2.3124e-17
9080.85 2.3954e-17
9082.375 2.667e-17
9083.9 2.7483e-17
9085.425 2.9072e-17
9086.95 3.0658e-17
9088.475 2.5878e-17
9090.0 2.4497e-17
9091.525 3.4949e-17
9093.05 3.3288e-17
9094.575 3.4261e-17
9096.1 2.9945e-17
9097.625 3.0467e-17
9099.15 3.8815e-17
9100.675 4.5469e-17
9102.2 3.8512e-17
9103.725 3.4531e-17
9105.25 2.8348e-17
9106.775 2.9444e-17
9108.3 3.5654e-17
9109.825 3.2956e-17
9111.35 3.0435e-17
9112.875 2.886e-17
9114.4 2.9286e-17
9115.925 3.0516e-17
9117.45 2.7633e-17
9118.975 3.1172e-17
9120.5 3.9857e-17
9122.025 4.114e-17
9123.55 3.4046e-17
9125.075 2.4045e-17
9126.6 2.3647e-17
9128.125 3.0467e-17
9129.65 2.8565e-17
9131.175 2.6403e-17
9132.7 2.4918e-17
9134.225 2.9613e-17
9135.75 3.8949e-17
9137.275 3.0505e-17
9138.8 2.308e-17
9140.325 2.6782e-17
9141.85 2.9337e-17
9143.375 2.2563e-17
9144.9 2.2399e-17
9146.425 3.0293e-17
9147.95 3.5742e-17
9149.475 4.1151e-17
9151.0 4.0947e-17
9152.525 2.8608e-17
9154.05 2.3316e-17
9155.575 2.6683e-17
9157.1 2.416e-17
9158.625 2.3624e-17
9160.15 2.7054e-17
9161.675 2.9945e-17
9163.2 2.7515e-17
9164.725 2.6158e-17
9166.25 2.5129e-17
9167.775 1.8432e-17
9169.3 1.9059e-17
9170.825 2.5272e-17
9172.35 3.1161e-17
9173.875 3.4346e-17
9175.4 3.1083e-17
9176.925 3.2522e-17
9178.45 2.8737e-17
9179.975 2.695e-17
9181.5 3.3864e-17
9183.025 2.9406e-17
9184.55 2.257e-17
9186.075 2.0588e-17
9187.6 1.9958e-17
9189.125 2.5296e-17
9190.65 3.3878e-17
9192.175 3.4488e-17
9193.7 2.9045e-17
9195.225 2.5879e-17
9196.75 2.6616e-17
9198.275 2.664e-17
9199.8 2.4351e-17
9201.325 3.0754e-17
9202.85 3.7291e-17
9204.375 2.6669e-17
9205.9 2.0173e-17
9207.425 2.6083e-17
9208.95 2.8533e-17
9210.475 2.0581e-17
9212.0 1.8922e-17
9213.525 2.6327e-17
9215.05 3.3379e-17
9216.575 3.4062e-17
9218.1 2.8153e-17
9219.625 2.7692e-17
9221.15 3.0325e-17
9222.675 2.8707e-17
9224.2 2.9696e-17
9225.725 2.658e-17
9227.25 3.1148e-17
9228.775 3.1456e-17
9230.3 3.3141e-17
9231.825 3.6417e-17
9233.35 3.1568e-17
9234.875 3.2391e-17
9236.4 2.7751e-17
9237.925 1.5301e-17
9239.45 2.2418e-17
9240.975 3.6377e-17
9242.5 3.6765e-17
9244.025 3.6195e-17
9245.55 3.3122e-17
9247.075 2.4097e-17
9248.6 2.1788e-17
9250.125 2.9085e-17
9251.65 2.9256e-17
9253.175 2.6888e-17
9254.7 2.1801e-17
9256.225 2.0753e-17
9257.75 3.1132e-17
9259.275 3.5522e-17
9260.8 2.9337e-17
9262.325 2.6548e-17
9263.85 3.5252e-17
9265.375 3.1619e-17
9266.9 2.5614e-17
9268.425 2.9506e-17
9269.95 3.0159e-17
9271.475 3.387e-17
9273.0 3.1775e-17
9274.525 3.2752e-17
9276.05 3.6406e-17
9277.575 3.2511e-17
9279.1 3.5555e-17
9280.625 3.6889e-17
9282.15 3.1426e-17
9283.675 3.526e-17
9285.2 3.4405e-17
9286.725 2.8766e-17
9288.25 2.8142e-17
9289.775 3.5313e-17
9291.3 3.4317e-17
9292.825 2.298e-17
9294.35 3.3114e-17
9295.875 4.6302e-17
9297.4 4.1242e-17
9298.925 3.5584e-17
9300.45 3.9744e-17
9301.975 4.596e-17
9303.5 3.9535e-17
9305.025 4.338e-17
9306.55 6.0032e-17
9308.075 6.8626e-17
9309.6 7.4286e-17
9311.125 5.2322e-17
9312.65 5.2769e-17
9314.175 8.288e-17
9315.7 4.9785e-17
9317.225 -1.0463e-17
9318.75 2.9465e-17
9320.275 6.9301e-17
9321.8 6.536e-17
9323.325 6.1286e-17
9324.85 4.0219e-17
9326.375 1.3775e-17
9327.9 3.4863e-17
9329.425 3.5833e-17
9330.95 2.3541e-17
9332.475 3.7668e-17
9334.0 7.5248e-17
9335.525 7.1766e-17
9337.05 7.9462e-17
9338.575 6.7511e-17
9340.1 2.5889e-17
9341.625 2.1806e-17
9343.15 4.9013e-17
9344.675 6.7501e-17
9346.2 5.6305e-17
9347.725 4.1963e-17
9349.25 2.675e-17
9350.775 2.3919e-17
9352.3 1.8908e-17
9353.825 1.5448e-17
9355.35 2.3453e-17
9356.875 2.9934e-17
9358.4 3.1434e-17
9359.925 3.4938e-17
9361.45 3.6281e-17
9362.975 2.5074e-17
9364.5 3.1193e-17
9366.025 4.3605e-17
9367.55 2.0453e-17
9369.075 3.5046e-17
9370.6 1.307e-16
9372.125 1.6082e-16
9373.65 1.0324e-16
9375.175 1.2683e-16
9376.7 1.1635e-16
9378.225 -1.1199e-17
9379.75 -2.9002e-17
9381.275 8.0193e-18
9382.8 3.1276e-17
9384.325 4.2102e-17
9385.85 4.7781e-17
9387.375 5.0538e-17
9388.9 3.5796e-17
9390.425 2.7721e-17
9391.95 2.9307e-17
9393.475 3.6326e-17
9395.0 3.9171e-17
9396.525 4.3039e-17
9398.05 4.8721e-17
9399.575 3.287e-17
9401.1 2.1588e-17
9402.625 4.0773e-17
9404.15 3.8887e-17
9405.675 3.0722e-17
9407.2 4.3747e-17
9408.725 4.5008e-17
9410.25 3.3768e-17
9411.775 2.6056e-17
9413.3 2.7044e-17
9414.825 3.7564e-17
9416.35 5.7492e-17
9417.875 6.1862e-17
9419.4 4.2664e-17
9420.925 2.1592e-17
9422.45 1.2444e-17
9423.975 1.5231e-17
9425.5 2.8501e-17
9427.025 2.8774e-17
9428.55 2.2239e-17
9430.075 3.9919e-17
9431.6 4.6364e-17
9433.125 2.4684e-17
9434.65 5.3878e-17
9436.175 1.1928e-16
9437.7 1.0033e-16
9439.225 1.032e-16
9440.75 9.3556e-17
9442.275 -2.0429e-17
9443.8 1.7902e-17
9445.325 3.5726e-17
9446.85 3.2951e-17
9448.375 3.3808e-17
9449.9 2.6977e-17
9451.425 1.7817e-17
9452.95 3.1014e-17
9454.475 6.5092e-17
9456.0 5.9882e-17
9457.525 7.4051e-17
9459.05 7.7536e-17
9460.575 2.9782e-17
9462.1 1.3384e-17
9463.625 2.2001e-17
9465.15 2.4506e-17
9466.675 2.7831e-17
9468.2 4.3449e-17
9469.725 2.7786e-17
9471.25 2.2266e-17
9472.775 8.3577e-17
9474.3 8.8978e-17
9475.825 6.1811e-17
9477.35 2.5037e-17
9478.875 -3.7636e-17
9480.4 -1.128e-17
9481.925 2.4029e-17
9483.45 3.6597e-17
9484.975 2.4972e-17
9486.5 2.6715e-17
9488.025 3.5983e-17
9489.55 4.5199e-17
9491.075 4.4698e-17
9492.6 4.1084e-17
9494.125 4.5284e-17
9495.65 2.8897e-17
9497.175 9.0146e-18
9498.7 2.1906e-17
9500.225 5.3377e-17
9501.75 6.3922e-17
9503.275 3.4202e-17
9504.8 -1.3011e-18
9506.325 1.5696e-17
9507.85 3.2034e-17
9509.375 2.6552e-17
9510.9 2.1787e-17
9512.425 2.3309e-17
9513.95 2.9291e-17
9515.475 4.9437e-17
9517.0 8.5053e-17
9518.525 6.6552e-17
9520.05 2.1169e-17
9521.575 1.6147e-17
9523.1 2.7089e-17
9524.625 3.4204e-17
9526.15 3.0309e-17
9527.675 3.0012e-17
9529.2 3.3827e-17
9530.725 2.7893e-17
9532.25 2.4993e-17
9533.775 3.2436e-17
9535.3 3.3401e-17
9536.825 3.5225e-17
9538.35 3.4349e-17
9539.875 2.5175e-17
9541.4 2.8284e-17
9542.925 2.2301e-17
9544.45 2.9181e-17
9545.975 4.3366e-17
9547.5 4.5601e-17
9549.025 4.8137e-17
9550.55 2.9463e-17
9552.075 3.2806e-17
9553.6 3.6773e-17
9555.125 3.1935e-17
9556.65 2.9345e-17
9558.175 3.799e-17
9559.7 4.005e-17
9561.225 3.8153e-18
9562.75 -5.401e-18
9564.275 3.2961e-17
9565.8 -5.1773e-17
9567.325 -6.2582e-17
9568.85 4.6418e-17
9570.375 2.5101e-17
9571.9 1.5355e-17
9573.425 1.6551e-17
9574.95 2.7314e-17
9576.475 3.6133e-17
9578.0 2.5233e-17
9579.525 1.6996e-17
9581.05 2.1764e-17
9582.575 2.5689e-17
9584.1 2.3107e-17
9585.625 2.051e-17
9587.15 1.9828e-17
9588.675 2.9072e-17
9590.2 2.5675e-17
9591.725 2.9787e-17
9593.25 3.9048e-17
9594.775 3.1394e-17
9596.3 2.496e-17
9597.825 1.7685e-17
9599.35 1.5745e-17
9600.875 3.2037e-17
9602.4 4.5954e-17
9603.925 3.942e-17
9605.45 2.9305e-17
9606.975 2.5651e-17
9608.5 3.2367e-17
9610.025 3.2664e-17
9611.55 2.7582e-17
9613.075 2.0475e-17
9614.6 2.1808e-17
9616.125 3.3481e-17
9617.65 4.6091e-17
9619.175 3.4794e-17
9620.7 1.7051e-17
9622.225 1.756e-17
9623.75 2.0269e-17
9625.275 2.5322e-17
9626.8 2.1818e-17
9628.325 1.2256e-17
9629.85 2.01e-17
9631.375 3.7955e-17
9632.9 3.9297e-17
9634.425 2.6283e-17
9635.95 2.3828e-17
9637.475 3.4839e-17
9639.0 4.2455e-17
9640.525 3.687e-17
9642.05 1.771e-17
9643.575 1.7156e-17
9645.1 3.1175e-17
9646.625 2.4822e-17
9648.15 2.8217e-17
9649.675 3.9021e-17
9651.2 3.7513e-17
9652.725 3.4057e-17
9654.25 2.5309e-17
9655.775 1.9482e-17
9657.3 2.7633e-17
9658.825 3.1783e-17
9660.35 2.375e-17
9661.875 2.7944e-17
9663.4 2.7735e-17
9664.925 1.709e-17
9666.45 2.9216e-17
9667.975 3.1017e-17
9669.5 7.9275e-18
9671.025 1.0711e-17
9672.55 2.2945e-17
9674.075 3.2935e-17
9675.6 3.6883e-17
9677.125 4.5676e-17
9678.65 4.825e-17
9680.175 2.0713e-17
9681.7 9.2776e-18
9683.225 -8.7025e-18
9684.75 2.9232e-17
9686.275 4.2817e-17
9687.8 2.8892e-17
9689.325 3.6602e-17
9690.85 3.8303e-17
9692.375 2.5873e-17
9693.9 1.2116e-17
9695.425 3.1038e-17
9696.95 4.5775e-17
9698.475 6.2322e-17
9700.0 4.6541e-17
9701.525 2.5281e-17
9703.05 3.4036e-17
9704.575 3.7023e-17
9706.1 2.0857e-17
9707.625 2.9262e-17
9709.15 3.6198e-17
9710.675 3.8006e-17
9712.2 4.0401e-17
9713.725 2.597e-17
9715.25 5.0522e-17
9716.775 5.9611e-17
9718.3 3.4446e-17
9719.825 1.3193e-17
9721.35 -1.0893e-18
9722.875 -1.3084e-17
9724.4 6.9614e-18
9725.925 3.5429e-17
9727.45 4.4213e-17
9728.975 4.6552e-17
9730.5 3.6219e-17
9732.025 2.7823e-17
9733.55 4.9244e-17
9735.075 6.3466e-17
9736.6 4.8633e-17
9738.125 5.3471e-17
9739.65 3.7374e-17
9741.175 1.9569e-17
9742.7 1.809e-17
9744.225 4.1143e-17
9745.75 5.9408e-17
9747.275 3.6406e-17
9748.8 2.11e-17
9750.325 2.6734e-17
9751.85 2.755e-17
9753.375 3.0791e-17
9754.9 4.1657e-17
9756.425 5.1899e-17
9757.95 3.6929e-17
9759.475 1.1449e-17
9761.0 1.4281e-17
9762.525 3.1673e-17
9764.05 4.2297e-17
9765.575 3.8442e-17
9767.1 3.1954e-17
9768.625 3.8788e-17
9770.15 3.702e-17
9771.675 2.3754e-17
9773.2 1.8935e-17
9774.725 1.7693e-17
9776.25 1.9108e-17
9777.775 2.3225e-17
9779.3 2.923e-17
9780.825 2.3213e-17
9782.35 1.3803e-17
9783.875 1.0686e-17
9785.4 2.6143e-17
9786.925 4.9255e-17
9788.45 3.9964e-17
9789.975 7.7447e-17
9791.5 1.1763e-16
9793.025 6.5183e-17
9794.55 7.8999e-18
9796.075 1.4205e-17
9797.6 2.3628e-17
9799.125 4.6018e-17
9800.65 2.2868e-17
9802.175 9.1067e-18
9803.7 3.0722e-17
9805.225 2.0907e-17
9806.75 2.3799e-17
9808.275 2.3079e-17
9809.8 2.5547e-17
9811.325 5.1636e-17
9812.85 4.3045e-17
9814.375 2.1852e-17
9815.9 1.9467e-17
9817.425 2.8035e-17
9818.95 2.5349e-17
9820.475 1.749e-17
9822.0 2.1343e-17
9823.525 2.522e-17
9825.05 1.3513e-17
9826.575 -1.57e-18
9828.1 1.3613e-17
9829.625 4.9316e-17
9831.15 4.7385e-17
9832.675 3.6495e-17
9834.2 3.0218e-17
9835.725 3.4285e-17
9837.25 4.7028e-17
9838.775 4.5217e-17
9840.3 2.1644e-17
9841.825 2.7132e-17
9843.35 5.1861e-17
9844.875 5.7101e-17
9846.4 5.3356e-17
9847.925 5.5949e-17
9849.45 7.6421e-17
9850.975 4.6913e-17
9852.5 1.8729e-17
9854.025 1.6244e-17
9855.55 2.0948e-17
9857.075 3.3623e-17
9858.6 3.144e-17
9860.125 2.2181e-17
9861.65 3.5129e-17
9863.175 3.294e-17
9864.7 2.2055e-18
9866.225 -2.7638e-17
9867.75 2.5485e-17
9869.275 8.9339e-17
9870.8 7.7514e-17
9872.325 9.7914e-17
9873.85 1.0114e-16
9875.375 4.3439e-17
9876.9 1.1385e-17
9878.425 1.7628e-17
9879.95 2.3557e-17
9881.475 1.4501e-17
9883.0 1.1381e-17
9884.525 2.3132e-17
9886.05 2.7111e-17
9887.575 2.495e-17
9889.1 3.4129e-17
9890.625 5.8036e-17
9892.15 5.8095e-17
9893.675 3.4006e-17
9895.2 4.4625e-17
9896.725 3.0864e-17
9898.25 1.3018e-17
9899.775 1.7678e-17
9901.3 2.0676e-17
9902.825 2.0693e-17
9904.35 2.1936e-17
9905.875 2.2399e-17
9907.4 1.179e-17
9908.925 1.506e-17
9910.45 6.584e-17
9911.975 1.0493e-16
9913.5 8.4442e-17
9915.025 6.7479e-17
9916.55 4.0047e-17
9918.075 8.9259e-18
9919.6 2.7545e-17
9921.125 2.9966e-17
9922.65 2.4386e-17
9924.175 2.8405e-17
9925.7 2.5841e-17
9927.225 1.3214e-17
9928.75 1.1877e-17
9930.275 4.1805e-17
9931.8 4.3042e-17
9933.325 3.0103e-17
9934.85 1.3279e-17
9936.375 6.7013e-18
9937.9 9.178e-18
9939.425 3.2632e-17
9940.95 8.2444e-17
9942.475 8.8656e-17
9944.0 5.4987e-17
9945.525 3.5584e-17
9947.05 8.9229e-17
9948.575 7.9457e-17
9950.1 1.4247e-17
9951.625 1.7804e-17
9953.15 7.8958e-17
9954.675 7.5039e-17
9956.2 6.9312e-17
9957.725 7.7456e-17
9959.25 1.0041e-17
9960.775 -9.8943e-18
9962.3 9.3023e-18
9963.825 7.2623e-18
9965.35 -1.8787e-17
9966.875 3.4491e-18
9968.4 4.8681e-17
9969.925 4.1381e-17
9971.45 4.1014e-17
9972.975 6.9558e-17
9974.5 5.7181e-17
9976.025 2.4514e-17
9977.55 1.4296e-17
9979.075 3.2217e-17
9980.6 2.9131e-17
9982.125 1.7281e-17
9983.65 2.0368e-17
9985.175 2.4334e-17
9986.7 3.4116e-17
9988.225 3.17e-17
9989.75 2.2067e-17
9991.275 2.0969e-17
9992.8 3.5812e-17
9994.325 3.5619e-17
9995.85 2.342e-17
9997.375 1.9612e-17
9998.9 2.6218e-17
10000.425 2.7582e-17
