 texplosion  fnickel    Pspin  log(Bfield)      Mns  thetaPB   mejecta    kappa  kappagamma     vejecta  temperature    alpha  cutoff_wavelength  log(nhhost)      A_V         MJD0  kenergy  mnickel            TSD   log(L0)  Peak_mag     Peak_MJD  log(E_rad)  log(Peak_lum)  Rise_Time    E_fold  tau_1  delta_m15     r_peak     frac 
   -2.29984  0.00579  2.38104     13.85552  1.86102  1.18801  18.34755  0.05409      0.0167  5736.20996   7970.63946  2.02438         3030.06051     16.71593    3e-05  58411.23806  3.60127  0.10621  1905725.27814    45.505  15.31798   58469.7194    51.45381       44.59993   38.77179  52.96167   73.0    0.10616  -21.81155  0.99711 
   -2.18818  0.02723  2.10922     13.81343  1.70761  1.26772  17.66141  0.06167     0.01766  5747.44234   7617.50253  1.96053         3066.57961     17.03673    6e-05  58411.34973  3.48018  0.48089  1665624.61404  45.63141   15.2962     58469.64    51.46329       44.61525   38.12236  52.65854   73.0    0.10172  -21.83153  0.98846 
   -2.19346  0.01464  2.48148     13.86316  1.92092  1.23016  12.69144  0.07444     0.02601  6092.43437    8072.7367  1.77189         3126.12625     17.34601  0.00012  58411.34444  2.81009  0.18579  2062636.63567  45.44851  15.27349     58469.64    51.45367       44.60553   38.77179  52.96167   72.5    0.11213  -21.84777  0.99477 
   -2.09045  0.01977  2.28064     13.88084  1.83212  1.05764  11.34467   0.0858     0.02408  5597.09567   7342.61392  2.11052         3008.96808     17.48196  0.00017  58411.44745  2.12004  0.22429  1531794.64383  45.63049  15.29172     58468.58    51.47426       44.63846   36.58581  50.95153   76.0    0.10763  -21.82486  0.99429 
   -2.55731  0.01478   2.2855     13.88989   1.7177  0.80484  19.11352  0.04695      0.0146  5939.36459   8031.95022  1.77441         3031.32915     16.17941    1e-05  58410.98059  4.02205  0.28246  1383411.67056  45.64488  15.31898   58471.3877    51.46378       44.61351   37.70696  53.07394   74.0    0.11096    -21.824  0.99203 
   -2.31789  0.00631  2.43987     13.82033  1.88171   1.2988  16.14149  0.05469     0.01773  6038.14739   8204.20038  1.77359         3048.17783     18.63781  0.00241  58411.22001  3.51057  0.10193  2379224.96803  45.39223  15.33067     58468.58    51.45422       44.60589   38.26293  53.47053   72.5    0.11284  -21.84641  0.99713 
   -1.94817  0.00961  2.44767     13.88053  1.98151  1.43119  21.61687  0.05011     0.01599  5910.39169   7924.27907  2.19111         2927.56459      16.4073    1e-05  58411.58973  4.50456  0.20769  1911021.06777  45.50707  15.32381   58469.7194     51.4529       44.59952   37.95196  52.82893   72.5     0.0994  -21.82015  0.99459 
   -2.48362  0.00991  1.86517     13.67054  1.39649  1.23541  18.15614  0.05485     0.01623  5608.08252   8063.96495  2.05428         2988.84964     18.51964  0.00184  58411.05428  3.40627  0.17997  2056908.22624  45.55923  15.32089   58469.7194    51.47685       44.62458   37.21218  53.56872   71.5    0.10302  -21.80337  0.99539 
    -2.8433  0.01198  2.36252     13.91374  1.79174  0.85417  20.41722  0.04743     0.01522  5707.67713   8252.60267  2.05823         3075.68922     16.96246    5e-05  58410.69461  3.96773  0.24468  1381533.19638  45.63501  15.30367     58468.58    51.46373       44.62886   36.86829  50.66905   72.0    0.10719  -21.81795  0.99308 
   -2.81969  0.00471  2.43274     13.81981  1.83726  1.15686  14.44078   0.0622     0.01773  5752.82557   8248.96607  1.86883          3085.6539     17.95377   0.0005  58410.71821  2.85089    0.068  2315080.11172  45.39626  15.30289   58469.7194    51.45859         44.608   37.33003  53.45087   73.5    0.10331   -21.8192  0.99802 
   -2.29878  0.02087  2.26971      13.7738  1.71112  1.27292  13.23956  0.07249      0.0244  6149.52268   8282.03374    1.748         3055.85075     17.79167  0.00034  58411.23912  2.98664  0.27636  2319704.05313  45.42475  15.29366   58471.3877     51.4756       44.62441   37.70696  53.07394   71.5    0.10814  -21.84299  0.99227 
   -1.95851  0.01574  2.08286     13.81891  1.56603   0.8992  21.55169  0.04471     0.01331  5787.86062   8047.90249  2.08302         3032.93248     17.17964    8e-05  58411.57939   4.3067  0.33914  1452495.08013  45.66421  15.29361     58469.64     51.4601       44.61372   38.12236  52.04408   72.0    0.10472  -21.83948  0.99091 
   -2.15893  0.01629  1.93657     13.75863  1.47558  0.91433  11.64751  0.07756     0.02781  5833.57868   8329.74136  1.69338         3125.59383     19.82388  0.03703  58411.37897  2.36445  0.18972  1561638.07746  45.67016  15.30321     58468.58    51.47947       44.63807   37.71638  52.34099   72.5    0.10747   -21.8639  0.99517 
   -2.19093  0.00203  2.20265     13.73706  1.62986  1.21793   21.0447  0.04218     0.01444  6130.50759   7708.52686  1.86727         2899.09644     16.32162    1e-05  58411.34697  4.71805  0.04265   2464539.8567  45.40337  15.31959     58467.88    51.46457       44.62216   37.70696  51.90351   76.0    0.10943  -21.82397  0.99878 
   -2.37894  0.00354  1.92577     13.78243  1.45027  0.86405  24.07054  0.04286       0.014  6069.01218   7484.46343  1.84041          2924.6826     16.69987    3e-05  58411.15896   5.2887  0.08531  1360221.73727  45.72748  15.29547   58469.7194    51.49782       44.65689   36.82117  52.08151   73.0     0.1068  -21.81948   0.9978 
   -2.00798   0.0371  2.22384     13.74062  1.63144  1.18281   9.63566  0.08606     0.02763   5839.7948   8214.26517  1.81122         3117.05047     16.52012    2e-05  58411.52992  1.96022  0.35745  2473750.99767  45.39385  15.27615   58469.7194    51.46369       44.61884   36.82117  52.14851   74.5    0.11357  -21.84449   0.9897 
   -2.75062   0.0136  2.13281     13.72188  1.55665  1.17686  11.67804  0.07613     0.02506  5747.36369     7237.236  2.15165         2953.43289      16.2357    1e-05  58410.78728  2.30109  0.15882  2366724.89645  45.42898  15.29732     58468.58    51.45191       44.60771   37.70696   51.9412   79.0     0.1089  -21.81771  0.99546 
   -2.09803   0.0103   1.9151     13.76401   1.4849  0.89065  13.50889  0.06872     0.02406  5988.45873   8203.87514  1.66409          3063.7948     19.88328  0.04246  58411.43987  2.88986  0.13911  1499256.36373  45.70028  15.29095     58469.64     51.4606        44.6131   38.77179  52.96167   71.5    0.10869  -21.88274  0.99656 
     -2.509  0.01099  1.92128     13.71705  1.51836  1.25686  13.25568  0.08206     0.02778  6123.79319   7664.20262  1.75427         2948.56783     18.92206  0.00464   58411.0289  2.96531  0.14563  1915472.73124  45.60077  15.30774     58468.58    51.46721       44.62311   37.33003  52.28044   72.5    0.10081  -21.84875  0.99651 
   -2.42908  0.01955  1.86892     13.71233  1.27335  0.77389  19.38853  0.04349     0.01418  5805.90016   8347.46918  1.87585          3107.5895     18.50214  0.00177  58411.10882  3.89862  0.37905  1553392.48481  45.63933  15.31488   58469.7194    51.47061       44.62434   37.95196  52.21447   73.0    0.11374  -21.82323  0.98883 
   -2.36772  0.04372    2.236     13.71825  1.62056  1.41781  12.53332  0.07483     0.02407  6184.77104   8273.62967  1.96708         2957.35369     17.63168  0.00024  58411.17018  2.85983  0.54797   2753802.1237  45.33964  15.30797     58469.64     51.4655       44.61381   38.77179  54.06144   72.0    0.10635  -21.83673  0.98397 
   -2.88461  0.00473  2.41504     13.82733  1.81075  1.08525  18.74343  0.04759      0.0135  5910.77965   7374.66238  1.91552         2990.41759      18.2173  0.00092  58410.65329   3.9063  0.08865  2171994.26483    45.424  15.30522   58471.3877    51.46689       44.61874   37.33003  52.83641   76.0    0.10662  -21.81612   0.9974 
   -2.43451  0.00848  2.36239     13.87931   1.8973  1.14834  15.38459  0.06882     0.02539  6304.01829   7843.88167   1.5802         3127.53831     17.54089  0.00019  58411.10339   3.6471  0.13049  1714135.65449  45.56623  15.30235   58469.7194    51.47433       44.62933   37.33003  52.31813   71.0    0.11114  -21.85983  0.99661 
    -2.7566  0.01553  2.38962     13.88875  1.86416  0.97626  21.83505  0.04074     0.01322  5740.91245   8328.71875  1.72872         3105.35027     18.18522  0.00085   58410.7813  4.29283  0.33909  1649871.73957  45.56522  15.32154     58469.64    51.45463       44.60639   37.71638  53.06451   74.0    0.10531  -21.82281  0.99077 
   -3.32043  0.00212  2.42233     13.85914  1.89266  1.14292   13.7263  0.07006     0.01885  5643.05501    7432.4571  2.00651         3030.76324     17.88614  0.00043  58410.21747  2.60741  0.02905   1972794.2322  45.48237  15.31486     58467.51    51.47069       44.63479   36.82117  50.71617   76.0    0.10409  -21.80986   0.9992 
    -2.8747  0.00345  2.07403      13.7129  1.48356  1.00265  16.46048   0.0497     0.01511  5808.27738   7589.97673  1.75046         3034.52847     18.23933  0.00096  58410.66321  3.31256  0.05686  2223102.83352  45.45956  15.30299   58469.7194    51.46483        44.6104   38.26293  53.47053   76.5    0.10824  -21.80635  0.99834 
   -2.31178  0.00521  2.17119     13.67231  1.51395  1.12558  12.81995  0.05341     0.01449  5407.28697   7397.05601   2.1229         3033.25227     18.99241  0.00546  58411.22612    2.236  0.06676  2997114.39728  45.29886  15.28688     58468.58    51.46907        44.6331   36.58581  50.95153   80.5    0.11111  -21.80892  0.99792 
   -2.43582  0.03652   2.3167     13.83387  1.85691  1.35511  17.09996  0.05928     0.01962  6103.41453   8189.04382  1.69397         3066.70431     19.68795  0.02708  58411.10208  3.79986  0.62453  1988897.36566  45.50928  15.29829   58469.7194    51.44542       44.58759   39.09835  54.65836   71.0    0.10462  -21.85478  0.98409 
   -2.11313  0.02925  2.20181     13.78461  1.68931  1.31403  19.64267  0.04786      0.0148  5697.71424   7845.25921  1.79934         3136.94875     16.82311    4e-05  58411.42477   3.8039  0.57462  2050481.18049  45.49914  15.31894     58468.58    51.47614        44.6354   37.21218   51.7575   74.0    0.10866  -21.81451  0.98475 
   -2.45611  0.00259  2.69784     13.86418   2.0772  1.27821  13.69317  0.06279     0.01777  5999.24549   7441.05452  1.80801         3089.04065     18.44733  0.00156  58411.08179  2.93985  0.03549  2623963.68847  45.30533  15.31469     58468.58    51.47215       44.63197   36.82117  52.08151   76.0    0.11003  -21.84921  0.99894 
   -2.65214  0.01523  2.17278     13.75212  1.65864  1.32135  12.18732  0.07476     0.02163  5540.19589    7790.6671  1.99893         3003.34893     18.11466  0.00072  58410.88577  2.23144  0.18562  2276964.38052  45.45721   15.2866     58469.64    51.46282       44.62023   38.12236  52.04408   76.0    0.10777  -21.80048  0.99501 
   -2.62638  0.01583  2.11839     13.84219  1.63204  0.90848  17.90435  0.05551     0.01889  5995.63677   7939.94412  1.75528         3045.69537     18.70086  0.00279  58410.91152  3.83934  0.28343  1406599.73403  45.68139  15.31564   58469.7194    51.45759       44.60222   38.26293   54.5703   71.5    0.10913  -21.83363  0.99261 
   -2.18343  0.01344  1.89762     13.58839  1.32017  1.29433  11.33239   0.0783     0.02436  5958.47351   7434.57266  1.89447         2943.16979      17.7243  0.00029  58411.35448  2.40004  0.15234  2938254.41022  45.36497  15.30135   58469.7194    51.47159        44.6288   37.33003  52.28044   77.5    0.10702  -21.80998  0.99558 
   -2.90418   0.0091   2.1559     13.86373  1.77854  1.08148  24.60089  0.04726     0.01449  6131.90161   7660.44706  1.74197         2965.23906     19.34921  0.01241  58410.63372  5.51783  0.22391  1437759.38616  45.69396  15.29125   58469.7194    51.47943       44.63496   37.21218   51.7575   72.0    0.10087  -21.83377  0.99469 
   -2.27351   0.0245  2.61374     13.95482  1.92095  0.77909  12.08678  0.06827     0.02199  6044.71345   7975.36413  1.83893         3071.55199       17.192    9e-05  58411.26439  2.63445  0.29608  1500443.30517  45.54162  15.28261     58469.64    51.46378       44.61863   37.95196  52.82893   74.5    0.11387  -21.82813  0.99073 
    -3.0056  0.00144  2.07711     13.76224  1.55239  1.00437  20.23697  0.04868     0.01289  5802.65512    7422.9283  1.85097         3051.51196     16.86007    4e-05   58410.5323  4.06468  0.02913   1858909.6739  45.55567  15.30278     58469.64    51.45302       44.59859   38.77179  54.06144   75.0    0.10335  -21.81941  0.99921 
     -2.888  0.00282    2.085     13.73747  1.49495  0.88109  11.42059  0.07513     0.02189  6205.30471   7206.88769   1.7485         3025.06698     19.66412  0.02564   58410.6499  2.62326  0.03226  2021688.10884  45.49955  15.28688     58469.64    51.46126       44.61018   38.26293  53.47053   76.5    0.11271  -21.86723  0.99906 
   -2.47886  0.00989  2.47206     13.79032  1.83846  1.37614  14.41703  0.06464     0.01873  6061.85721   7267.90598  2.10469         2935.43738     17.71333  0.00029  58411.05904   3.1602  0.14261  2739932.29135  45.30944  15.29111   58469.7194    51.45215        44.5991   38.77179  52.96167   77.5    0.10658  -21.82901  0.99572 
   -2.35368  0.01443  2.33104     13.79103  1.76422  1.27688  11.98736   0.0725     0.02083  5576.30309    7714.9034  2.04108         3079.19251     16.94336    5e-05  58411.18422  2.22353  0.17303  2330250.66256   45.4129  15.29428     58469.64    51.46193       44.61732   37.21218  52.39829   75.0    0.10507  -21.82345  0.99511 
   -2.26785  0.01168  2.11622     13.69242  1.51546  1.17022  18.46269  0.04304      0.0126  5617.95217   7748.28322   1.9891          3052.7214     19.44209  0.01538  58411.27005  3.47599   0.2156  2598046.60715  45.38362  15.29262     58469.64    51.48114       44.64155   36.82117  52.08151   77.5    0.11315  -21.82107  0.99368 
   -2.28792  0.00303  2.13537     13.73774  1.53646  1.05927   22.3677  0.03877     0.01215  5815.82789   7946.77919  1.92974         3021.22483     16.40294    1e-05  58411.24998  4.51306  0.06788  2176728.08804  45.45861  15.31917     58469.64    51.45983       44.61862   37.70696   51.9412   74.5     0.1116  -21.80719  0.99801 
   -2.38784  0.00509  2.03557     13.76139  1.56389  1.06745  13.64659  0.07033     0.02072  5629.92993     7283.901  1.99452         3008.01685     19.44499  0.01548  58411.15006  2.58022  0.06942  1805539.70747  45.58907  15.31726     58468.58     51.4467       44.59437   38.12236  53.61111   75.5     0.1025   -21.8225  0.99821 
   -2.22523  0.01392  2.42779     13.87005  1.87936  1.08649  14.49049  0.06437     0.02012  5978.80794   8080.44111  1.76636         3103.00159     16.82479    4e-05  58411.31267  3.08986  0.20172  1871336.91504  45.50028   15.3051     58468.58    51.53784       44.70975   36.27312  49.85771   72.0    0.11091   -21.8387  0.99438 
    -2.4612  0.02832   2.2564     13.80797  1.67734  0.97718  13.93326  0.06051      0.0148  5416.45444   7922.00786  2.22039         3002.16563     19.04854  0.00621   58411.0767  2.43843  0.39454  1920131.47611   45.5033  15.30218     58468.58    51.45592       44.61078   37.71638  52.45006   76.5    0.10515   -21.8154  0.98878 
   -2.39418  0.00813  2.16747     13.77031  1.61091  1.09182  15.36263  0.06338     0.02106  6181.53383   8028.17844  1.68498         3067.65707     17.86501  0.00041  58411.14372  3.50175  0.12489  2023836.77203  45.49783  15.31334   58469.7194    51.45806       44.60832   38.12236  53.61111   71.5    0.10756  -21.83365   0.9965 
   -2.16218  0.00985  2.28369     13.81935  1.72714  1.02823  12.53619   0.0713      0.0215  5839.55698   7257.40528  1.87859          3025.5595     18.49901  0.00175  58411.37572  2.55007  0.12342  1921883.23281  45.50517  15.30858     58468.58    51.46791       44.63237    36.5102  51.02714   78.0    0.10894  -21.82608  0.99654 
   -2.64737  0.04552   2.1925     13.88468   1.8303  1.00629  16.42686   0.0616     0.02299  6084.63314    8591.2131  1.55214         3127.34796     20.06052  0.06386  58410.89053  3.62786  0.74779  1389521.52331  45.70662  15.31271     58468.58    51.46632       44.62699   37.33003  51.63965   69.5    0.10634  -21.89117  0.98261 
   -2.21128  0.00936  2.28593     13.77893  1.71411  1.18441  17.50795  0.04789     0.01508  5734.81019   7949.15278  1.86027         3039.17129     16.10144    1e-05  58411.32662  3.43479  0.16389  2302129.34713  45.42263  15.29876     58469.64    51.46516        44.6195   37.95196  52.82893   74.5    0.11202  -21.81516  0.99534 
   -2.54654  0.01658  2.60002     13.96108  1.94444  0.80185  12.04525  0.07146     0.02423  6181.66681    8168.9862  1.79315         3026.39486     16.46529    2e-05  58410.99136  2.74571  0.19972  1460130.73424  45.56329  15.30551   58469.7194    51.46868       44.62725   37.21218  52.39829   72.5    0.11095  -21.83091  0.99392 
   -2.08644  0.02708  2.16855     13.79522  1.71182  1.45481  28.18137  0.03697     0.01161  5641.41496   7872.69186  2.10221         3044.20677     19.07972  0.00668  58411.45146  5.35014  0.76326  1919389.28344   45.5468  15.28674     58468.58    51.46111       44.62084   37.33003  51.63965   73.5    0.10465  -21.82102  0.98085 
    -2.8906  0.01422  2.69502     13.93221  2.12003   1.0579  18.95563  0.04485     0.01282   5724.6454   7609.29796  1.69424         3217.07516     19.50897  0.01793   58410.6473  3.70563  0.26957  1953743.11515  45.44319   15.2769   58471.3877    51.46589       44.61542   38.26293  52.51796   76.5    0.10638  -21.84058  0.99227 
   -2.84009  0.01546  2.11447     13.75585  1.65332  1.43342  13.93703  0.07341     0.02142  5730.04057     8014.922  1.93576         3000.93809     18.25986  0.00101  58410.69781  2.72969  0.21549  2112895.76675  45.51192  15.31235     58469.64    51.47214        44.6256   39.63139  52.72734   73.0    0.09945  -21.81019   0.9945 
   -2.40066  0.02104  2.42931     13.80114  1.76179  1.08497  14.10399  0.06128     0.01922   6112.8344   8026.35668  1.89846         2991.05272     17.17683    8e-05  58411.13724   3.1438  0.29679  2412393.55941  45.36139  15.31677     58468.58      51.475       44.63756   36.86829   52.0344   74.0     0.1082  -21.82577  0.99087 
   -2.52235  0.01259   2.1883     13.83108  1.73659  1.16311  18.15199  0.06053     0.02243  6335.94386   7589.65263  1.68033         3006.35091     17.27088   0.0001  58411.01555  4.34684  0.22852   1681003.0131  45.60276  15.30812   58469.7194    51.45657       44.60313   38.26293  53.47053   71.0    0.10501  -21.84175   0.9942 
   -2.31295  0.00425  2.00649     13.68937   1.4974  1.28678  14.70649  0.06521      0.0196  5831.48394   7510.02565  1.89307         2988.93072     19.25539     0.01  58411.22495  2.98328  0.06244  2340432.27611  45.47001  15.30352     58468.58    51.46115       44.62104   37.33003  51.63965   75.5     0.1081  -21.81717  0.99832 
   -2.65659  0.00254  2.47394     13.80115  1.76215  1.00886   15.2378  0.04968     0.01395  5633.21078   8023.62999  2.20467         2986.25935     16.42969    1e-05  58410.88131  2.88444  0.03869  2502216.72493  45.32979   15.3111     58468.58    51.46884       44.62916   37.70696  51.90351   77.5    0.10637   -21.8024  0.99875 
   -2.77386  0.00677  2.47876      13.8085  1.86299  1.24342  10.22362  0.08578     0.03025  6160.31705   7754.56113  1.69961         3135.33862     18.26182  0.00102  58410.76404   2.3144   0.0692  2567468.88704  45.34108  15.29836     58469.64    51.47953       44.63596   37.33003  52.31813   74.5    0.10884  -21.85981  0.99795 
   -2.31243   0.0217  2.11014      13.7738  1.59606  1.11872  16.79073  0.06122     0.01862  6017.05022   7391.62699  2.08633         2933.02302     18.78844  0.00341  58411.22547   3.6263  0.36429  1870177.22645  45.55139  15.31959     58468.58    51.45625       44.60617   37.95196  52.82893   73.5     0.1064   -21.8301  0.99027 
   -2.58553  0.01866  2.30669     13.80174  1.72877  1.12812  15.16818   0.0622     0.02029  6008.05295   7798.92159  2.02619         2918.13733     16.51733    2e-05  58410.95237  3.26609  0.28298  2128359.28341  45.45256  15.29705     58468.58    51.46331       44.61893   37.95196  52.82893   74.0      0.104  -21.81967  0.99195 
   -2.24411  0.00907  2.22492     13.78233  1.69684  1.22293   16.2791  0.06137     0.02072  6051.37718    8217.3059  1.73413         3106.69701     18.95395    0.005  58411.29379  3.55603  0.14759  2125332.55098  45.47643  15.31112     58468.58    51.46438       44.61982   37.70696  52.35041   71.0    0.10647  -21.84069  0.99597 
   -2.04675  0.00653  2.29997     13.72728   1.6545  1.26801  10.90074  0.07589     0.02238   5860.3606   7264.44644  2.03858         3092.87186     18.98905  0.00542  58411.49115  2.23322  0.07115  2853383.82751  45.30871   15.3062     58467.88    51.46672       44.62468   37.33003  51.63965   77.0    0.11167   -21.8515  0.99783 
   -2.20725  0.00766  2.30914     13.85392  1.74362  0.96467  20.67626  0.04405     0.01359  5756.93068   8063.51294  2.05387         3017.34347     16.90248    4e-05  58411.33065  4.08772   0.1584  1691724.18953  45.55507  15.29846     58468.58    51.46504         44.623   37.33003  52.28044   74.5    0.10743  -21.82132  0.99553 
   -2.44443  0.01271  2.16975     13.78483  1.69454  1.11328  15.80378  0.06076     0.01958  6040.65206   8405.03942  1.80425         3064.95133     19.77547  0.03313  58411.09347  3.43998  0.20082   1995414.9042  45.52504  15.31465   58469.7194    51.47222        44.6201   38.77179  54.06144   72.0    0.10836   -21.8868  0.99478 
   -2.70528  0.00179  2.54991     13.88945  1.90708  1.00131  15.78741  0.05511     0.01664  5802.33249   7371.47979  2.09233         3000.20645     16.42215    1e-05  58410.83262  3.17061  0.02821  1915756.94238  45.45382  15.30694     58469.64    51.48245       44.63781   39.16965  52.10139   77.0    0.11023  -21.80684  0.99914 
   -2.12064  0.02342  2.57002     13.90342  1.98089  1.00425  11.43099  0.07676     0.02791  6195.03403   7984.93255  1.87466         3024.73084     19.61673  0.02299  58411.41726  2.61697  0.26774  1895400.02784  45.46813  15.28292     58469.64    51.46675       44.62518   37.71638  51.93178   74.5    0.11016  -21.87167  0.99227 
   -2.08671  0.01121  1.88402      13.6303  1.39686  1.48995  13.37167   0.0659     0.01982  5543.36119   7701.15476  1.78248         3076.71538      17.9642  0.00051  58411.45119  2.45109  0.14983  2526657.74842  45.46128  15.29841     58468.58    51.45736       44.61166   37.95196  52.82893   76.0    0.10643  -21.80439  0.99608 
   -2.48818   0.0026  2.56971     13.91014  2.02397  1.12852  17.26017  0.05418      0.0162  5777.39305   8053.16858  2.14933         2975.06104     16.56806    2e-05  58411.04972  3.43666  0.04487   1877180.1809  45.48178  15.30862     58467.88    51.46096       44.61757   37.71638  52.34099   72.5    0.10873  -21.82292  0.99874 
   -2.16504  0.00505  2.31337     13.78779  1.76407  1.45877  11.77411  0.08037     0.02616  5873.19038   7567.07585   2.0451         2980.96398     18.70813  0.00284  58411.37286  2.42272  0.05943  2329379.74134  45.41963  15.28318   58469.7194    51.46588       44.61756   38.12236  52.65854   74.0    0.10787  -21.81663  0.99834 
   -2.45613  0.02243  2.50167     13.92142  1.91186  0.89126  17.61929  0.05369     0.01569  6032.03615   7971.60134   1.9564         3008.08564     18.59169  0.00217  58411.08178  3.82423  0.39522  1595487.98722  45.55095  15.32369     58469.64    51.44808       44.59768   38.26293  53.47053   73.5    0.10295  -21.84557  0.98865 
   -2.38803  0.01425  2.08105      13.8145  1.53269   0.8088  13.76451  0.06733     0.02044  6115.80661   7920.01227  1.65403         3055.80692     16.10201    1e-05  58411.14987  3.07111  0.19608  1448232.50116   45.6569  15.28278   58469.7194     51.4673       44.61764   37.71638  53.06451   73.5    0.10703  -21.83909  0.99455 
   -2.00807  0.01727  2.53214      13.9822   2.0554  0.93142  16.34417  0.05781     0.01849  5721.74626   7963.27372  1.95291         3048.37739      16.9417    5e-05  58411.52983  3.19189  0.28231  1328264.79602  45.65148  15.31897   58471.3877    51.46046       44.61198   37.95196  52.82893   74.0     0.1074  -21.82991  0.99255 
   -2.25056  0.01133  2.02909     13.64163  1.46283  1.43262  10.69515  0.08137     0.02266   5538.2111   7911.72111  2.02328         3073.52643     17.51168  0.00018  58411.28734  1.95683  0.12118  2913124.70849  45.35508  15.31032     58467.88    51.45132        44.6084   38.26293  53.47053   76.0    0.10424  -21.82169  0.99655 
   -2.83357  0.00547  2.53906      13.8424  1.87919  1.08623  12.49015  0.07145      0.0212   6139.5564   7605.12713  2.12832         2923.72624     17.37105  0.00013  58410.70433  2.80846  0.06831  2324560.67058  45.36713  15.30609     58469.64    51.45255       44.60888   37.95196  52.10541   74.5    0.10888  -21.83589   0.9979 
   -2.30467  0.01945  1.77641     13.65274  1.43943  1.35881  13.91998  0.06547     0.02094  5482.53223   8353.49086  1.74552         3125.96482     20.19051  0.08615  58411.23323  2.49591  0.27072   2087391.1068  45.60835  15.30722   58469.7194    51.46999       44.62637   37.33003  52.72734   74.5    0.10748  -21.88601    0.994 
   -2.38732  0.00329  2.21916     13.71974  1.60097  1.22338  10.46762  0.08415     0.02744  6244.33919   7478.46833  1.88046         2932.20249     17.50707  0.00018  58411.15058  2.43472  0.03442  2661355.18954  45.35575  15.29957     58468.58      51.459       44.62064   37.33003  51.63965   74.5    0.10979   -21.8321  0.99897 
    -2.5725  0.01465   2.3561     13.85333  1.89037  1.26703  15.56787   0.0649     0.02026  6052.04742   7438.43575  1.71218         2998.42312     18.16197  0.00081   58410.9654  3.40143  0.22803  1914649.44411  45.51892  15.31973     58468.58    51.52658       44.68856   36.82117  52.08151   73.0    0.10817  -21.82497  0.99409 
   -2.11253  0.01874  2.23491     13.77188  1.60646  1.00854  11.66238  0.07355     0.02644  6155.22057   7632.57774  1.89075         2975.51528     18.97774  0.00528  58411.42537  2.63573  0.21856  2130275.34954  45.44776   15.2954     58469.64    51.45667       44.60845   38.12236  52.65854   77.0    0.11265  -21.83201  0.99346 
   -2.24712   0.0052   1.7983     13.59688  1.31407  1.44755  13.27242  0.07257     0.02393  5781.20917   7581.16409  1.69492         3139.90155      19.3041  0.01119  58411.29078  2.64615  0.06904  2525766.72655  45.47535  15.31502     58469.64    51.45743       44.61187   37.71638  53.06451   75.0    0.10663  -21.82497  0.99819 
   -2.85276  0.00361  2.51715     13.82437  1.93748  1.27425  12.83738   0.0679     0.01699  5606.85655   7541.14016  2.07571         2995.46472     18.02992   0.0006  58410.68514  2.40737   0.0464  2559352.66303  45.34613  15.27326   58469.7194     51.4687       44.62294   37.33003  52.31813   77.5    0.10259  -21.82081  0.99866 
   -2.43282  0.01605  2.05029     13.74693  1.60913  1.51117  15.87648  0.06865     0.02507  6149.53258   8218.62671  1.60441         3069.16105     16.45193    2e-05  58411.10508  3.58151  0.25479  2014563.27986  45.54763  15.30651     58468.58    51.47605       44.63114   37.21218  52.39829   68.5    0.10254  -21.82735  0.99365 
   -2.34386  0.01455  2.00647     13.73281  1.53889  1.20933  22.48799  0.04488     0.01552  6018.97243   7890.71887  1.64766          3059.9757     18.05538  0.00063  58411.19404  4.85985  0.32719  1969063.73706  45.55693  15.31896     58469.64    51.45775       44.60349   40.42372  53.61111   73.0    0.10663  -21.82928  0.99165 
   -2.46253  0.01717  2.46927     13.98814  1.95187  0.84081  13.78308  0.06856     0.02173  5632.23065   7839.50922  1.84574         3150.30224     17.80968  0.00036  58411.07537  2.60816  0.23661  1167127.20476  45.70704  15.32318     58468.58     51.4687       44.63031   36.86829   52.0344   74.0    0.10972  -21.80723  0.99358 
   -2.53876  0.01447  2.09324     13.65603  1.48482  1.29599  15.47296  0.05044     0.01643  5790.62416   8040.71373  1.90926         2986.41142      17.7913  0.00034  58410.99914  3.09493  0.22393  2944951.67153   45.3298  15.32063  58466.73287    51.46528       44.62913   37.33003  51.63965   75.5    0.11357  -21.81291  0.99338 
   -2.51334  0.00932  2.23585      13.7922  1.74038    1.305  19.51982  0.05195     0.01697  5854.10466   7932.21862  1.86914         3061.80465     18.55641    0.002  58411.02456  3.99047  0.18184  2103493.10209  45.48766  15.30176   58469.7194     51.4781       44.63289   37.33003  52.72734   73.0    0.10399  -21.82939  0.99518 
   -2.64931  0.00531  2.56049     13.90987  2.05494  1.20406  17.67129  0.05312     0.01809  6136.72019   7648.61558  1.58177         3131.15913     17.18306    8e-05  58410.88859  3.96979  0.09385  1894622.84675  45.48748  15.31388     58469.64    51.46121       44.61705   37.70696  52.35041   72.5    0.11423  -21.84398  0.99745 
   -2.71634  0.00269  2.13472     13.80202  1.58472   0.9467  19.40106  0.05243     0.01414  5757.90617   7658.94822  2.18452         3047.35857     16.90892    5e-05  58410.82156  3.83691  0.05225  1668856.62194   45.5877  15.28282     58469.64     51.4637       44.61852   38.26293  52.51796   73.5    0.10233   -21.8317  0.99854 
   -2.52417  0.01147  2.07768     13.64505  1.48913  1.39099  14.09487  0.05756     0.01912  5834.39306   8113.16645  1.72258         3026.99105     17.47392  0.00017  58411.01373  2.86207  0.16163  3060576.14695  45.32082  15.32762     58469.64    51.46701       44.61944   37.71638  53.06451   76.5    0.10954  -21.81007   0.9953 
   -2.69284  0.00918  1.98077     13.74915  1.48796  1.01057  26.38582  0.03505     0.01143  5765.97597   7637.15255  1.81774         3030.35411     18.37316  0.00131  58410.84506  5.23291  0.24219   1721002.6961  45.61198  15.29944     58469.64    51.47053       44.62528   37.33003  52.28986   74.5    0.10454  -21.81473  0.99365 
   -1.91119  0.02912  2.34516     13.79016   1.7523  1.22002  13.80819  0.06645     0.02127  6162.00458   7754.50414  1.85607         3005.91634     17.91599  0.00046  58411.62671  3.12758  0.40203  2352022.08036  45.40067  15.32065     58469.64    51.46262       44.61841   38.12236  52.65854   73.5    0.11152  -21.84491  0.98845 
   -2.67678  0.02054  2.32906     13.81435  1.81291  1.34674  12.91369  0.07984     0.02427  5920.97219    7837.9025  1.99997         2957.71214      16.0217    1e-05  58410.86112  2.70062  0.26529  2147100.53689  45.46101  15.31065   58471.3877    51.47164       44.61913   37.70696   54.0265   73.0    0.10334  -21.81574  0.99285 
   -2.44459  0.00304  2.22176     13.74559  1.66842  1.29567  22.94985  0.04025     0.01415  6141.53615   8090.17919  1.56673         3078.43381     17.83145  0.00038  58411.09331   5.1637  0.06974  2467986.27567  45.40541  15.30262     58468.58    51.45375       44.60879   37.95196  52.82893   73.0    0.10624  -21.83076  0.99805 
   -2.26562   0.0031  2.05683     13.90673  1.68396  0.84167  20.10897  0.05378     0.02139  6043.31569   7790.12941  1.72732         3018.22068      16.3616    1e-05  58411.27228  4.38094  0.06244   1016455.1895  45.86169  15.30673     58467.88    51.45781       44.61564   37.33003  52.28044   71.0     0.1028  -21.83931  0.99853 
   -2.40932  0.01322  1.84487     13.73772  1.34849  0.85709   14.3326  0.06674     0.02309  5833.86913   7568.66533  1.88003         3049.98313     19.11948  0.00731  58411.12858  2.90982  0.18947  1426137.58664   45.7126  15.31095   58469.7194    51.46002       44.60845    40.5643  53.47053   74.5    0.10885  -21.82792    0.995 
   -2.13263  0.02084  2.05194     13.63071   1.4479  1.42778  13.27651  0.06787     0.02049  6051.44726   7838.49943   2.0101         2997.11779     19.23658  0.00958  58411.40527  2.90021  0.27663  3100721.67929  45.31379  15.28734   58471.3877    51.48455       44.63719   37.70696  52.45948   74.0    0.11128  -21.84874  0.99186 
   -2.39403  0.00341  2.32186      13.7987  1.72074  1.14915  15.53642  0.05921     0.02043  6047.09139   8093.68946  1.87915         3071.83653      17.5608   0.0002  58411.14387    3.389  0.05293  2176718.65609  45.43509  15.31053     58467.88    51.46231       44.61358   37.70696  52.45948   72.5      0.109  -21.83335  0.99845 
   -2.58487  0.01039  1.63263     13.68038  1.34483  1.25013  20.56124  0.05531     0.01686  5457.03279   7965.80467  1.83599         3110.27849     18.46571  0.00162  58410.95303  3.65249  0.21356  1450403.35471  45.81025  15.29795   58469.7194    51.46331        44.6113   38.12236  53.61111   71.0    0.09674  -21.80819  0.99559 
   -2.38547  0.01265  2.41318     13.88298  1.87385  1.02663  14.87138  0.06468     0.02083  5980.45106   8190.22488  1.88502          3024.3435     17.83066  0.00038  58411.15243  3.17283  0.18817  1736852.35601  45.53664  15.28301     58468.58    51.45823        44.6155   37.70696  51.90351   71.5    0.10725  -21.83462   0.9948 
   -2.37123   0.0048  2.70957     13.96193  2.07308  0.89859  12.32986  0.07605     0.02345   6331.4362   7725.31106  1.87923         3022.49169     17.32353  0.00012  58411.16667  2.94842  0.05915   1684132.3278  45.49329   15.3025     58469.64    51.46554       44.62016   37.95196  52.82893   73.5    0.11073  -21.85974  0.99821 
   -2.53606  0.01687  2.11073     13.70215  1.53946  1.23175  16.41115  0.05253     0.01898  6110.34384   8010.16113   1.6349         3077.10261      16.2723    1e-05  58411.00185  3.65508  0.27682  2510428.36808   45.4076  15.30609     58469.64    51.46813       44.62462   37.70696  52.35041   75.0    0.11332  -21.83836  0.99215 
   -2.51099  0.01936   2.0955     13.78075  1.66038  1.34145  22.98639  0.04774     0.01517  6024.41445   7614.18609  1.75594         2992.30554     17.66228  0.00026  58411.02691  4.97654  0.44499  1858213.77246  45.57738   15.2856     58468.58    51.47182       44.63359   37.33003  51.63965   72.5    0.10554  -21.81332  0.98899 
   -2.66739  0.01043  2.47944     13.78026  1.82691  1.33977  13.37695  0.05999     0.01601  5519.72348   7559.90827  2.02032         3057.19159     17.86609  0.00041  58410.87051  2.43119  0.13956  2868940.69802  45.28413  15.31094   58471.3877    51.45359       44.59677   38.95083  53.92083   78.5    0.10729  -21.79716  0.99575 
   -2.81419  0.01688  2.47862     13.99061  1.95537  0.83657  16.50359  0.06156     0.02082  5921.96125   7862.18881  1.82898         3055.16004     17.59131  0.00022  58410.72371  3.45252  0.27863  1164799.43166   45.7054   15.3265     58469.64    51.46209       44.61215   37.95196  52.82893   73.5    0.10421  -21.80752  0.99241 
   -2.52536  0.00342  2.01132     13.65311  1.43413  1.24776  12.61024  0.07039      0.0232   6195.1394    6711.5527  1.58151         3073.71867     17.88541  0.00043  58411.01254  2.88704  0.04309  2661667.83339  45.39332  15.31152     58469.64    51.45121       44.59216   38.26293   54.5703   78.0    0.11333  -21.82828  0.99876 
   -2.75203  0.01982  2.23027     13.92015  1.80098  0.93866  16.43903  0.07043     0.02787  6582.97663    7457.5456   1.5847         3032.87447     16.21041    1e-05  58410.78587   4.2496  0.32575  1201530.86453  45.74791  15.31094   58469.7194    51.45941       44.60694   38.26293  53.47053   69.0    0.11025  -21.85878   0.9919 
   -2.76345  0.00281  2.48823     13.97059  2.14824  1.23485  14.73882  0.07805     0.02492  5995.80948   7627.09862  1.81048         3065.30957     18.56869  0.00206  58410.77445  3.16072  0.04145  1414151.35851  45.65865  15.28896   58469.7194    51.46424       44.61836   37.95196  52.21447   71.0    0.09975  -21.83055  0.99901 
   -2.96004  0.00553  2.20952     13.78623  1.73962  1.30023  21.83227  0.04783     0.01617  6132.16899   7950.72493  1.55109         3087.66101     17.88205  0.00042  58410.57786  4.89727  0.12075  2110648.70925  45.49629   15.2891     58468.58     51.4601       44.61413   38.24409  52.53681   72.0    0.10589  -21.83927  0.99687 
   -1.88146   0.0233  2.30151     13.76367  1.70619  1.34859  16.33738  0.05657     0.02033  6099.54704   8234.08421  1.89939         3031.41147     18.84043  0.00385  58411.65644  3.62581   0.3807   2491903.0167  45.38032  15.29875     58468.58    51.49482        44.6561   37.21218   51.6905   72.0    0.10736  -21.84076  0.98904 
   -2.23404  0.01019  1.89424     13.60153  1.37334  1.42216  10.72089  0.08051     0.02334  5672.96667   7863.51694  1.99079         3028.10599     19.63321  0.02387  58411.30386  2.05816  0.10923  2866785.38098  45.39436  15.30678     58469.64    51.46996        44.6311   37.33003  51.63965   74.5    0.10881  -21.84624  0.99702 
   -2.20858   0.0045  2.27156     13.77962  1.68427  1.12296  13.86532  0.05886       0.019  5549.89955   7871.11496  1.95129          3072.8506     16.06207    1e-05  58411.32932  2.54758  0.06236  2226528.47968  45.43498  15.31207   58469.7194    51.46711       44.62185   37.71638  52.45006   77.0    0.10808  -21.80686   0.9982 
   -2.50382  0.02197  2.22923     13.92065  1.87864  0.95946  16.49614  0.06247     0.02159  6035.81947   8261.94781  1.57845         3092.05742     19.79702  0.03481  58411.03408  3.58494  0.36248   1249328.9333   45.7497  15.28361     58468.58    51.47177       44.63174   37.70696  51.90351   69.0    0.10225  -21.86743  0.99155 
   -2.39734  0.00625  2.20899     13.76268   1.6423  1.12504  14.39389   0.0653     0.02046  6100.52903   7943.25375  1.82056         3046.56128     17.46662  0.00016  58411.14056  3.19551  0.08994  2219668.20978  45.44962  15.28583     58469.64    51.50638       44.66917   37.21218   51.6905   73.5    0.11031  -21.84862  0.99745 
   -2.59701  0.00392  2.26031     13.80145  1.67944  1.03572    10.301  0.09279     0.02761  5846.03296   7996.96227  2.29536         2926.95509     16.27988    1e-05   58410.9409  2.10005  0.04042   1987966.8488  45.48726  15.29571   58469.7194    51.47391       44.62632   37.71638  53.06451   74.0    0.10337  -21.82716  0.99884 
   -2.69286  0.01186  2.59726     13.89411   1.9906  1.03709  14.58212  0.06223     0.01806   5963.6053   8022.55971  1.95274         3032.64799     17.79555  0.00035  58410.84504  3.09361  0.17293  2030561.26785  45.43118  15.28811     58468.58    51.47573       44.63611   37.33003  52.31813   74.0    0.10859  -21.84407  0.99492 
   -2.84009  0.00858  2.70459     13.87289  2.07822  1.34341  16.28631  0.05847     0.01748  6162.65766   8365.20252  1.86279         3044.44215     17.81639  0.00036  58410.69782  3.68966  0.13974   2534715.8397   45.3184  15.30347     58468.58       51.46       44.61527   37.95196  52.21447   71.5    0.10617  -21.84197  0.99583 
   -2.73559  0.00449  2.37176     13.77239  1.72852  1.17592  13.18995  0.06451     0.02069  5829.22964   8050.37039  1.89456         3050.56627      17.8541   0.0004  58410.80231  2.67358  0.05917  2575433.43657  45.34553  15.31123     58469.64    51.46059       44.61099   37.95196  52.82893   76.5    0.10828  -21.81055   0.9982 
   -2.73848  0.01874   2.3948     13.79504  1.77243  1.11962   13.0759  0.06522     0.01839  5920.20081   7715.68485  1.90903         3018.68098     17.98898  0.00054  58410.79942  2.73383  0.24509  2425687.81741  45.37404  15.29566   58469.7194     51.4627        44.6126   38.24409  52.53681   76.5    0.10983  -21.83324  0.99273 
   -2.64548  0.00872  2.35662     13.79901  1.79081   1.2593  16.70679  0.05437     0.01719  5921.84338   8004.26482  1.89089         3017.18906     19.28953  0.01082  58410.89242  3.49489  0.14574  2330401.57313  45.40988  15.28211     58467.88    51.45514       44.61229   38.24409  52.53681   74.5    0.10971  -21.82881  0.99588 
   -2.05631  0.02131   2.5559     13.86068  1.99603  1.44109  15.09357   0.0574      0.0199  5762.35972   7616.73441  2.07737          2972.2984     16.38013    1e-05   58411.4816  2.98965  0.32164  2299933.64495  45.39221  15.30722     58468.58    51.45766       44.61119   38.12236  52.65854   77.0    0.11121  -21.82126  0.99096 
   -2.27575  0.04047   2.4323     13.90874  1.87949  0.95745  11.27681  0.08142      0.0266  5965.73035   7463.39675   1.9348         2992.02961     17.97867  0.00053  58411.26215  2.39409  0.45637   1571831.7361  45.57445  15.27414     58469.64    51.48978       44.64457   37.71638  52.45006   76.5    0.11245   -21.8315  0.98734 
   -2.56576  0.02259  2.27785     13.74145  1.71835  1.47195  20.77588  0.04398     0.01209  5782.89876   7901.08069  1.92252         2999.96615     19.38963  0.01363  58410.97214  4.14455  0.46927  2723235.77722  45.35382  15.32236     58467.88     51.4459       44.59931   37.95196  52.82893   75.0    0.10299  -21.82796  0.98691 
   -3.12576  0.02958  2.20205     13.75881  1.71235  1.45796  14.25964  0.06763     0.02257  6049.97453   7925.13676  1.68817         3025.73749     19.59451  0.02184  58410.41214  3.11346  0.42179  2341226.36384  45.44734  15.28034     58468.58    51.47529       44.63269   37.70696  51.90351   74.0      0.105  -21.84397  0.98896 
   -1.92023  0.00849  2.51504     13.86542  2.00484  1.53002  17.27526  0.05447     0.01812  5960.70438    7964.9841  1.70913          3158.8841     18.22442  0.00093  58411.61767   3.6614   0.1466  2188475.49782  45.42969  15.32281     58469.64    51.47646       44.63725   37.33003  51.63965   71.5    0.10955  -21.84759  0.99602 
   -2.44813  0.01395  2.42437     13.80743  1.82412  1.27445  13.23952  0.06842     0.02152  5974.43328   7845.70548  1.88518         3054.70251     18.23689  0.00096  58411.08977  2.81898   0.1847    2416556.555   45.3775  15.30588     58468.58      51.456       44.60837   38.12236  52.65854   74.0    0.10901  -21.83282  0.99463 
   -2.52791  0.00424  2.79131     13.92575  2.19196  1.21243  10.69513  0.07423     0.02091  5426.66932   7609.37651  1.84981         3220.19353     17.37311  0.00013  58411.00999   1.8788   0.0454  2232386.03627  45.36929   15.3155     58468.58    51.45435        44.6092   37.95196  52.21447   77.0    0.10686  -21.81751  0.99867 
   -2.53639  0.00999  2.25436     13.80196  1.71211  1.09061   13.8696  0.07065     0.02231  6119.75262   8113.28479  1.78573         3055.71068     18.75956  0.00319  58411.00151  3.09855  0.13859  2011229.57899  45.49287  15.28778   58469.7194    51.46185       44.60975   38.77179  54.06144   71.5    0.10485  -21.85154  0.99617 
   -2.78792  0.00254   2.1031     13.66029  1.47486  1.26164   11.6923  0.07535     0.02166  5810.91558   7520.72777  1.90169         3072.89042     18.48096  0.00168  58410.74998  2.35514   0.0297   2895357.5187  45.33018  15.29215   58469.7194    51.46965       44.62955   37.70696   51.9412   76.0    0.11006   -21.8081   0.9991 
   -2.91874  0.00343  1.97847     13.76874  1.47174  0.89013  20.16168  0.05115     0.01651  6165.60444   7735.01458  1.74055         3050.70716     18.57215  0.00207  58410.61916  4.57199  0.06917  1551769.71277  45.65319  15.29821     58469.64    51.46907       44.62293   37.95196  52.82893   73.0    0.10391  -21.85138  0.99815 
   -2.20116  0.00551  2.00907     13.81704  1.60533  1.04363  25.76242  0.04342     0.01341  5950.72309    7140.2669  1.84477         2986.01576     16.55324    2e-05  58411.33674  5.44193  0.14206  1397295.86007  45.72313  15.30583     58469.64    51.46424       44.61369   38.77179  52.96167   72.5    0.10488   -21.8123  0.99658 
   -2.12394  0.01961  2.15826     13.60888  1.45782  1.33781    9.5805  0.07652     0.02045  5736.74661   8004.11174  2.09926         3035.41853     18.89078  0.00432  58411.41396  1.88082  0.18788  3819127.41815  45.18238  15.29568     58468.58    51.45022       44.60288   38.12236  52.65854   77.0     0.1116  -21.82178  0.99389 
   -2.44916  0.01377  2.06811     13.80944  1.59731  0.94028  15.75155  0.06152     0.01994  5918.87617   8191.67063  1.75642         3055.60415     19.40997  0.01428  58411.08874  3.29177  0.21689   1525692.6265  45.65762  15.30397     58469.64    51.45694       44.60805   38.12236  53.61111   71.5    0.10656  -21.84464  0.99442 
   -2.03143    0.008   2.1322     13.71502    1.542  1.23941  20.23886  0.04616     0.01581   6100.2703   8036.36761  1.83702          3037.4789     16.47358    2e-05  58411.50647  4.49274  0.16186  2418327.38123  45.41576  15.30299     58469.64    51.45055       44.59866   38.77179  54.06144   72.0    0.10716  -21.82513  0.99531 
    -2.1613  0.00638  2.35959     13.83028  1.77005  1.01023  13.76355  0.05905     0.01807  5676.32097   8130.47045  1.94599         3021.60359     16.70351    3e-05   58411.3766   2.6454  0.08788  1999474.64126  45.47024  15.27227     58468.58    51.46765       44.62207   37.33003  52.31813   75.0    0.10697  -21.81607  0.99746 
   -2.53973  0.00212  2.33038     13.85367  1.79991  1.05731  18.53392  0.05536     0.01777  6040.59779   7368.66695  1.87719         3002.47912     17.01381    6e-05  58410.99817  4.03417  0.03933  1780665.75878  45.53866  15.32183   58469.7194    51.46662       44.62065   38.12236  52.65854   74.5    0.10401  -21.82418  0.99892 
   -2.93703  0.01646  2.11996     13.80447  1.58385  0.94905  15.21283  0.06581     0.02291  6249.67717   7918.15115  1.73197         3021.83467     18.33089  0.00119  58410.60088  3.54448  0.25045  1626471.64473  45.60466  15.31996     58467.87     51.4659       44.62696   37.33003  52.28044   72.0    0.10992  -21.83913  0.99314 
   -2.39199  0.03638  2.00363     13.79914  1.55301    0.958  11.76003  0.08308     0.02889  5968.82898   8005.10697  1.69639         3059.27495     18.90771  0.00449  58411.14591  2.49927  0.42785  1459986.13454  45.69203  15.32176     58468.58    51.45506       44.61275   37.71638  51.93178   72.0     0.1055  -21.84104  0.98929 
   -2.43208  0.01846    2.217     13.81136  1.60818  0.88611  13.34663  0.06529     0.01989   5991.0419   8099.17783  1.82914         2981.58291     16.56467    2e-05  58411.10582  2.85761  0.24632  1749738.56408  45.54067  15.31985     58469.64     51.4725       44.62446   38.12236  52.65854   74.0    0.10777   -21.8113  0.99277 
   -2.88499  0.03643  2.45654     13.99064  1.81895  0.68347  13.45128  0.06704     0.01942  5765.78291   8188.44772  2.07656         3040.84287     18.07528  0.00066  58410.65291  2.66752  0.49004  1064131.90205  45.72102  15.29149     58469.64    51.46253       44.61976   37.71638  52.34099   74.5    0.10388  -21.81271  0.98543 
   -2.13969  0.06786  2.22433     14.05741  1.87198  0.58971  14.24294  0.06009     0.02058  5880.56104   8444.32595  1.62462         3036.20078     20.18843  0.08574  58411.39821  2.93808  0.96658    660238.6653  46.02704   15.3165     58468.58    51.46337       44.61561   38.26293  53.47053   74.5    0.11287  -21.90176   0.9777 
   -2.51915  0.01618  2.36405     13.80515  1.70784  0.99874  12.88275  0.06593     0.02118  6027.00708   8189.41947  1.82719         3074.32655     18.57745   0.0021  58411.01875  2.79151  0.20839  2174113.21029   45.4167  15.29889   58469.7194    51.45904       44.61469   37.71638  52.34099   74.5     0.1139  -21.83042  0.99362 
   -2.86105  0.01064  2.65422     13.91668  2.13338  1.29974  15.95566  0.06168     0.01753  5916.50913   7739.81915  1.99696         2949.49923     17.25534   0.0001  58410.67685  3.33176  0.16977   2048279.5794  45.43865  15.30465     58469.64    51.46693       44.62384   37.95196  52.21447   73.5    0.10492  -21.81736  0.99533 
   -2.92639  0.04235  2.48706     13.95217  1.80727   0.6827    13.183   0.0602      0.0195  6296.20695   8023.72896  1.56624         3014.89868     17.86514  0.00041  58410.61151  3.11745  0.55825  1293823.43265  45.62262  15.29889   58469.7194    51.50931       44.66635   36.58581  52.31687   74.5    0.11399  -21.82386  0.98279 
   -2.04884  0.01053  2.20583     13.76256  1.65281   1.2075  20.07986  0.04373     0.01411  5807.31938   8094.31485  1.87952         3017.53524     16.36509    1e-05  58411.48906  4.03961  0.21137  2228760.65977  45.45186  15.31256     58468.58    51.46916       44.62994   37.33003  51.63965   74.5    0.10983  -21.81563  0.99411 
   -2.39695  0.00425  2.05301     13.69592  1.53917   1.4031  13.41397  0.07292     0.02237  5965.20399   7537.02088  2.07088         2922.28967     18.82676  0.00373  58411.14095  2.84731  0.05699  2443685.82514   45.4433  15.30053     58468.58     51.4571       44.61496   37.33003  52.28044   74.0    0.10346  -21.83471  0.99846 
   -2.37965  0.01123  2.29038      13.8941  1.87938  1.11025   17.6944  0.06008     0.01958  6106.27829   7482.54506  1.68426         3024.20941     18.96435  0.00512  58411.15825  3.93565  0.19866  1490894.33796   45.6496  15.31383   58469.7194    51.46056       44.60348   38.26293   54.5703   71.0    0.10285   -21.8308  0.99509 
   -2.48033  0.00601  2.32284     13.83093  1.72853  0.98768  15.44265  0.05861     0.01984  6177.77481   7808.36008  1.71712         3085.97936     16.61055    2e-05  58411.05758  3.51571  0.09284  1886525.39674  45.49882  15.30484     58468.58    51.47024       44.62476   37.70696  52.45948   72.5    0.11501  -21.84454  0.99731 
   -2.01121  0.00168  1.78064     13.63542  1.31715  1.20486  22.88393  0.04822     0.01773  6264.05244   7557.83115  1.75386         3042.70192     16.97482    5e-05  58411.52669  5.35635   0.0384  2078538.33245  45.56957  15.32009   58469.7194    51.46467       44.61321   37.95196   53.7815   72.5    0.10837  -21.85616  0.99902 
    -3.1267  0.00598  1.98382     13.68287   1.4463    1.105  14.71066  0.06325     0.02005  5967.21551   7960.96581  1.78567         2975.46178     18.74867  0.00311   58410.4112  3.12466  0.08792  2276834.74106  45.47677  15.30589     58469.64    51.45455       44.60781   38.12236  52.65854   73.5    0.10928   -21.8209  0.99757 
   -2.54774  0.01025  1.98651     13.64873  1.45554  1.44517  20.36259   0.0424     0.01327  5763.32184   7412.58249  1.71341         3067.66313     18.68641   0.0027  58410.99016  4.03465   0.2088  2688757.33449  45.40613  15.29179   58469.7194    51.46483        44.6191   37.21218  52.43598   76.5    0.10977  -21.81395  0.99429 
    -2.4874  0.00897  2.26023     13.86113  1.84704  1.16586  15.65328  0.06675     0.02085  5901.03171   7749.23509  1.80993         3061.12344     19.30103  0.01111   58411.0505  3.25154  0.14037  1660833.99081  45.60669  15.32536     58467.68    51.44957       44.60147   38.12236  53.61111   73.0    0.10677  -21.84482  0.99653 
   -1.69053  0.00998  2.05191     13.66428  1.45767  1.21751  17.24829  0.04893     0.01435  5675.28114   7846.03259  2.09302         3001.28748     17.40971  0.00014  58411.84737  3.31397  0.17217  2674375.14722  45.38097  15.31065     58468.58    51.46001       44.61575   38.77179  52.00911   76.5    0.11145  -21.81706  0.99497 
