 texplosion  fnickel    Pspin  log(Bfield)      Mns  thetaPB   mejecta    kappa  kappagamma      vejecta  temperature    alpha  cutoff_wavelength  log(nhhost)      A_V         MJD0  kenergy  mnickel           TSD   log(L0)  Peak_mag     Peak_MJD  log(E_rad)  log(Peak_lum)  Rise_Time    E_fold  tau_1  delta_m15     r_peak     frac 
   -5.41757  0.02575  1.67373     14.34851  1.47754  0.92481   4.27171  0.06821     0.05228   5788.76213   6705.06175  0.96617         4560.67232     19.30426  0.01119  58812.18212  0.85389  0.11001   77215.29285  47.10331  18.39699  58842.32096    51.09418       44.62663    9.64541   25.7211   32.0    0.38236  -21.13597  0.99809 
   -3.32634  0.02593  2.26457     14.37659  1.53009  1.03885  13.43044  0.03585     0.02199   6762.82321   6262.11524  2.85384         3891.47865     20.68405   0.2684  58814.27335  3.66415  0.34825  128627.15639  46.63426  18.35749  58842.32096    50.83927       44.27271   16.07569  27.39405   32.0    0.34743  -21.50956  0.98918 
   -3.93434  0.02795  2.06811     14.57702  1.54791  0.56694   12.6558  0.02849     0.01925   6180.76273   7350.11822  1.77306         4112.38752     20.42271  0.14704  58813.66535  2.88404  0.35376   43119.54162  47.19277  18.33318  58842.32096    51.00788       44.47568   15.12537  25.85483   31.0    0.37567  -21.38109  0.99107 
   -4.15505  0.00416  4.03861     14.82525  1.77097   0.3693   6.86689  0.05284     0.33899   5192.96879   6357.29202  4.14607         3844.80763     20.06222  0.06411  58813.44464  1.10463  0.02856    59977.8101   46.5266  18.34631  58842.32096    51.04211         44.552   12.70687  22.65964   33.0    0.35453  -21.26985  0.99763 
   -4.13829  0.00531  4.47304     14.44938  1.82261  1.15921   6.35877  0.04982     0.37911   5019.81558   6346.61916  3.69229         4002.43876     18.56933  0.00206   58813.4614  0.95582  0.03374  427507.37707  45.59739  18.34883  58842.32096    50.77662       44.18176   17.64056  28.37783   32.0    0.36253  -21.21658  0.99671 
   -4.22997    0.015  3.91468     14.63127   1.6748  0.59377  10.66566  0.03954     0.19145   6034.09886   4781.66039  3.69114         3925.25077     17.78605  0.00034  58813.36972  2.31654     0.16  130205.15211  46.19279  18.33719  58838.46279    50.80475       44.22427   16.80058  28.21134   33.0    0.35009  -21.22512  0.98664 
   -3.98053  0.04374  3.42609      14.5211  1.97453  1.10488   8.30336  0.05057     0.03474   7080.17269   5523.06148  2.19759         3894.33062     20.05991  0.06377  58813.61916  2.48295  0.36322  195285.45186  46.20404  18.39499  58842.32096    50.77035       44.19552   16.80058  29.21781   31.5     0.3833  -21.30554  0.98211 
   -3.04518  0.09202  2.62269     14.48603  1.58701  1.06363   9.60552  0.04674     0.01404   6583.89937   5316.63239  2.69683         3836.12561     18.67868  0.00265  58814.55451  2.48379  0.88394  108099.82769  46.59811  18.36114  58838.46279    50.83264       44.24476   17.70639  29.13873   34.0    0.33416  -21.18419  0.96643 
   -4.29294  0.00121  2.13667     14.48535  1.47048    0.656  18.95408  0.01356     0.01917   4672.78081    5759.0829  1.59634         4517.28042     18.09428  0.00069  58813.30675  2.46877  0.02289   66687.08062  46.95279  18.36381  58842.32096    50.78676       44.20775   17.70639    28.312   31.0    0.39055  -21.21966  0.99932 
   -4.37625  0.00234  2.80668      14.3187  1.57688   1.3463   9.99271  0.03111      0.2287   5500.82864   5723.47936  1.80188         4321.19663     19.00254  0.00559  58813.22344  1.80371  0.02341  265823.45498  46.14566  18.40735  58842.32096    50.84737       44.28717   15.99421  27.47553   31.5    0.36608  -21.23333   0.9989 
   -5.20773   0.0111  1.94067     14.35937   1.6509  1.29995   8.70956  0.04065     0.03839   5890.82433   7347.34472  1.25033         4482.51866     19.91001  0.04516  58812.39196  1.80292  0.09666  110332.46862  46.86796   18.3484  58838.46279    50.72357       44.11373   18.48638  29.30255   31.5    0.36023  -21.21911  0.99808 
   -4.39593  0.00224  1.98002      14.4511  1.63088  0.91114   7.52862   0.0372     0.05095   4853.74202   6079.27334  1.44866         4461.23102     17.63583  0.00024  58813.20376  1.05803  0.01687    74366.5933  47.01655  18.35051  58842.32096    51.03817       44.51806   12.86055  27.34283   31.0    0.36015  -21.18331  0.99964 
   -3.54679  0.00388   1.8182     14.41012   1.3212  0.72658   3.42442  0.10175     0.38098   5513.32038    6971.9908  1.58033          4215.3293     19.36943  0.01301   58814.0529  0.62093  0.01328   61352.99164  47.08269  18.39576  58842.32096    50.94865       44.42274   15.12537  25.07801   31.5    0.35632  -21.15059  0.99967 
   -3.71406  0.00213  2.15902     14.50598  1.85489  0.89469   9.30692  0.03872     0.12782   5623.90234   6906.27067  1.87949         4128.36275     20.61701     0.23  58813.88563  1.75594  0.01982   78108.02527  46.97596  18.39386  58842.32096    51.08506       44.61615    9.64541   25.7211   31.5    0.37248   -21.4496  0.99958 
   -5.18542  0.00886  4.84847     14.52008   1.7342  0.71044   6.35595  0.06167     0.14628   6505.68107   5327.01842  4.71624         3689.84878     16.49676    2e-05  58812.41427   1.6047   0.0563  345108.30778  45.59878   18.4001  58842.32096    50.95114       44.42489   12.86055  26.45253   33.0     0.3757  -21.21954  0.99306 
   -5.04573   0.0037  3.70645     14.21836  1.37283  1.24388   6.73003  0.05896     0.26611   6360.48131   5324.89038  3.62925         3836.75209      17.5158  0.00018  58812.55396  1.62414  0.02491  640662.88727  45.46192  18.34935  58842.32096    50.98286       44.48709   12.86055  24.00461   32.5    0.36568    -21.235  0.99745 
   -4.99323  0.00506  2.29398     14.23608  1.42333   1.3552  12.40891  0.02378     0.10223   5485.64331   5014.28211  1.41898           4457.222     16.34109    1e-05  58812.60646  2.22749  0.06283   234499.1446  46.33083  18.39152  58842.32096    50.88341       44.33639   15.19486  26.60193   32.0    0.37713  -21.20394  0.99771 
   -4.44565  0.00668   2.7848     14.42214  1.45686  0.78701  18.34519  0.01868     0.01605   5584.57864   6284.08938  2.09763         4249.01194     18.43612  0.00152  58813.15404  3.41295  0.12259  150158.30489  46.36612  18.32316  58838.46279    50.75522       44.16687   17.64056  28.37783   32.0     0.3664  -21.23985  0.99362 
   -4.51784  0.00261  2.37208     14.53968  1.86697   0.7486  19.60894  0.01732     0.07196   6323.17047   5221.58919  1.50181         4163.41199     20.54504  0.19488  58813.08185  4.67683   0.0511   81255.97303  46.87987  18.41333  58842.32096    50.84696       44.27916   15.19486  29.24577   31.0      0.396  -21.42704  0.99868 
   -4.62342  0.00186  3.28119     14.40947  1.74476  1.10601  18.89411  0.01511     0.02116   5402.21495   5512.29244  1.89971         4288.36441     19.44829   0.0156  58812.97627  3.28925  0.03518  264644.54627  46.05586  18.34566  58842.32096    51.00064       44.48427   12.86055   25.7211   31.5     0.4033  -21.24067  0.99805 
   -3.83962  0.00452  2.23009     14.71977  1.79343  0.52288  13.08085  0.02059     0.24007   4759.69451   6113.66584  1.53463         4586.59661     17.55375   0.0002  58813.76007  1.76775  0.05907   30102.05751  47.34729   18.3665  58842.32096    50.95911       44.45394   12.86055   25.6567   30.5    0.36974  -21.22554  0.99862 
   -4.77562  0.01672  4.79124     14.41894  1.70123  0.99498   10.7943  0.03453     0.30282   6298.61162   5626.05846  4.65897         3806.82278     18.64722  0.00247  58812.82407  2.55453  0.18048  526744.64429  45.41711  18.31039  58838.46279    50.84135       44.28984   15.99421  26.68451   32.0    0.39647  -21.25347  0.97799 
   -5.40946  0.00147  2.50261     14.31888  1.54438   1.1502   15.1188  0.01955      0.0304   5265.61054   7239.57914  1.54424         4498.76565      16.5287    2e-05  58812.19023  2.50059  0.02216  206816.94107  46.34523  18.36356  58842.32096    50.89771       44.36071   15.12537  26.67142   31.5    0.38336  -21.20835  0.99914 
   -4.00222  0.01191   4.1758     14.67788  1.89757  0.67997  15.86982  0.02522     0.03061   5265.15268   5615.72575  4.03515         3996.06939     19.46681  0.01628  58813.59747  2.62435    0.189  135433.07445  46.17384  18.37142  58842.32096    50.88262       44.33647   15.12537  25.85483   33.0      0.347  -21.21826  0.98516 
   -4.14385  0.01017  3.46413     14.71091  1.59327  0.43921  22.93269  0.01602     0.01283   5507.75028   5725.74993  3.83898          3893.2155     20.22206  0.09264  58813.45584  4.14983  0.23322   67215.95412  46.56447  18.36364  58842.32096    51.00023       44.50818   12.70687  24.15829   32.5    0.36861  -21.32959  0.98365 
   -5.69196  0.00188  2.86326     14.31717   1.6251  1.34653  10.80013  0.03093     0.14308   6079.75295   6181.34844  1.51641          4163.0859     16.56655    2e-05  58811.90773  2.38138  0.02026  287127.33321  46.10793  18.38208  58842.32096    50.80091       44.22588   16.80058  28.21134   32.5     0.3845  -21.14756  0.99905 
   -5.30702  0.00684  2.58037      14.4429  1.95134  1.47628   6.72318  0.04888     0.18482   5915.79905   5808.64734  1.23288         4580.63056     16.44878    2e-05  58812.29267  1.40355  0.04598  156934.92997  46.54009  18.35762  58842.32096    50.91854       44.40734   15.12537  25.07801   31.5    0.36449  -21.20233   0.9987 
   -6.73177  0.00623  1.78837     14.26501  1.48854  1.41806   8.10963  0.04839     0.04348   6309.05184   8564.18515   0.9915         4612.04482     19.61062  0.02266  58810.86792  1.92556   0.0505  130459.61303  46.82122   18.3423  58842.32096    50.94726       44.43402   12.86055  26.37016   32.0    0.35376  -21.07687  0.99899 
   -2.43247  0.04598  2.07373     14.66938   1.8382  0.92351  19.90197  0.02085     0.01128   6272.33999   5460.77182  2.29952         4144.42952       16.891    4e-05  58815.16722   4.6707  0.91504   33647.19575  47.37279  18.33909  58842.32096    50.76878        44.1836   17.70639    28.312   32.5    0.37458  -21.25806  0.98528 
       -5.1  0.01208   2.0023     14.36349  1.75041  1.28695   5.84797    0.048     0.32615   6096.89844   4824.10559  0.96381         4297.71832     17.70027  0.00028  58812.49969  1.29673  0.07062  122188.29985   46.8219   18.3525  58842.32096    50.75234       44.15962   17.70639  29.13873   31.5    0.42185  -21.17568  0.99861 
   -4.97423  0.00668   2.9372     14.18842  1.35174  1.52628  10.40648  0.03166     0.02705   6213.23878   5722.03414  1.84894         4220.64368     16.23803    1e-05  58812.62546  2.39644  0.06954  454709.20513  45.80614  18.32764  58838.46279    50.87023       44.28398   17.70639  29.84461   32.0     0.3972  -21.22848  0.99545 
    -4.7655  0.00104  3.39719     14.52922  1.52283  0.60625  14.28985  0.02339     0.27662   5252.24762    6442.9968  2.63912         4073.63807     17.11719    7e-05  58812.83419   2.3515  0.01491  142649.17252  46.23499  18.35299  58842.32096    50.73085       44.13149   17.70639  31.50904   32.5    0.36134  -21.18951  0.99891 
   -2.28506  0.04309  1.77076     14.48987   1.7745  1.48543  20.43844    0.027     0.36784   7022.04409   6046.20782  3.00059         3758.83087     20.68075  0.26637  58815.31463  6.01176  0.88066   54134.71633  47.28812  18.39254  58838.46279    50.82004       44.23786   16.80058  28.21134   33.0    0.31335  -21.48858  0.98901 
   -5.39028  0.00438  2.57149     14.31573  1.60825  1.30004   4.64464  0.07114     0.39283   6039.80183   5784.14014  1.34735         4198.24311     16.36632    1e-05  58812.20941  1.01071  0.02035  230713.38768  46.29176  18.36991  58842.32096    51.03059       44.52342   12.86055   25.6567   32.5    0.38278  -21.14661  0.99922 
   -3.83065  0.00131  2.67057      14.4387  1.85259  1.34314   7.47615  0.03682     0.01696   4602.10442   6578.21049  1.94374         4368.49277     19.88798  0.04293  58813.76904  0.94454  0.00982  162707.40872  46.47201  18.40538  58842.32096    50.78372       44.21387   16.80058  28.21134   31.0    0.35945  -21.27483  0.99968 
   -4.76262  0.00537   1.7272     14.33586   1.5367  0.90603  11.20363  0.02739     0.05308   5656.77757   5638.67632  1.36934         4451.62433     20.65325  0.25002  58812.83707  2.13857  0.06013    90650.2253  47.02338  18.35742  58838.46279    50.71549       44.12551   18.48638  29.06462   31.0    0.37823   -21.4775  0.99892 
   -5.69999  0.01616  2.22428     14.25483  1.48636  1.51232   9.95003  0.03998     0.31823   7315.84295   5014.09449   1.0633         4237.52624     18.87645  0.00418   58811.8997  3.17673  0.16079  211183.73525  46.42193  18.36868  58842.32096    50.76601       44.18037     18.463  27.55539   32.0    0.38405  -21.18875  0.99488 
   -4.32601  0.00237  3.57185       14.375  1.75193  1.49339   7.65487  0.04122     0.02518   5605.23653   6842.09146  2.40009         4068.68218     18.56416  0.00204  58813.27368  1.43467  0.01817  369074.06766  45.83946  18.36622  58842.32096    50.79705       44.22007   16.80058  27.64005   31.0    0.38653  -21.25376  0.99881 
   -4.44899  0.02021  2.80996      14.5431  1.86148  0.89792   6.83546  0.05525     0.08684   5819.14243   6080.80785  2.03043         4252.15858     20.21357  0.09084   58813.1507  1.38074  0.13815  111911.91371  46.59243  18.35243  58842.32096    50.88751       44.34845   15.12537  26.67142   31.5    0.34429  -21.32748    0.995 
   -5.44082  0.00159  3.16503     14.42513  1.86925   1.2363   2.71321  0.14963      0.3795   6772.35379   4996.73408  1.64318          3799.2178     19.27829  0.01054  58812.15887  0.74232  0.00432  245460.59694  46.14978  18.34299  58838.46279    50.88095       44.33849   15.19486  27.48385   33.0    0.34904  -21.14475   0.9998 
   -5.74153  0.00474  4.06947     14.42712  1.87489  1.11844   5.20344    0.065     0.10919   6054.08908   5821.02255   1.9776         4209.33307     16.65825    3e-05  58811.85816  1.13767  0.02464  403306.77138  45.71711  18.38725  58842.32096    50.92265       44.38206   15.12537  25.07801   33.0    0.38847  -21.18911  0.99809 
   -5.05504  0.02949  2.61058     14.60576  1.57136  0.52793    6.0403  0.05483     0.12869   5926.81771   5273.43792  1.57279         4185.18915     16.21278    1e-05  58812.54465  1.26569  0.17815   61101.46035   46.8456  18.35395  58842.32096    50.75113       44.16431   17.70639  29.13873   32.0     0.3904   -21.1799  0.99278 
    -6.5517  0.05148  2.46124     14.63637  1.93301  0.63213   3.60446  0.09899     0.15583   7292.46004   5014.57776  0.82115         4405.74176     17.11647    7e-05  58811.04799  1.14345  0.18555   58026.32519  47.00915  18.36904  58842.32096    50.85005       44.28763   15.19486  28.27488   33.0    0.40337  -21.14237  0.99515 
     -4.039  0.00752  3.15435     14.79184  1.78377  0.43567  17.85985  0.01829     0.03138   5199.97017   5491.46229  2.21359         4251.96559     17.36892  0.00013  58813.56069  2.88076   0.1343   42982.67717  46.88907  18.32839  58838.46279     50.7156       44.12231   18.48638  29.06462   31.5     0.3808  -21.22804  0.99341 
   -4.15398  0.00925  3.96786     14.49116  1.61742  0.80018  18.99454   0.0175     0.43778   5172.06977   5069.63691  3.88927         3916.20019     17.73363   0.0003  58813.44571  3.03099  0.17561  246284.80237  45.88912  18.34633  58842.32096    50.81093       44.25423   15.99421  28.44643   32.5    0.37373   -21.2259  0.98413 
   -5.22672  0.02538  3.48211     14.20993   1.3707  1.36209   5.65579  0.06148      0.3065   6161.39118    5273.3539  2.66138         3989.31402     17.51601  0.00018  58812.37297  1.28079  0.14356  586916.92626  45.55353  18.39209  58842.32096    50.76715       44.15965     18.463  29.91086   32.5    0.38926  -21.21326  0.98714 
   -4.60762  0.00102  4.09297     14.31865  1.64501  1.20219   2.32027  0.13669     0.13121    6406.5865   5542.93398  2.68738         3915.30895     17.48704  0.00017  58812.99207  0.56809  0.00236  589883.19464  45.49017  18.37388  58842.32096    51.13758       44.70448    9.64541  22.18368   31.5    0.41306  -21.27601  0.99977 
   -4.66001  0.00247  3.57758     14.46621  1.76701  0.96089   5.12832  0.05882     0.47913   5094.12326   5928.75973  2.36656         4125.71704     16.32304    1e-05  58812.93968  0.79386  0.01268  245360.82982   46.0191  18.38036  58842.32096    50.96868       44.45858   12.86055   25.6567   32.0    0.38314  -21.20273  0.99918 
   -4.34433  0.00467  2.42131     14.68704   1.8366  0.52957  17.18548  0.02007     0.14529   5796.48366   5704.63267  1.66326         4117.25571     20.33986   0.1215  58813.25536  3.44444   0.0803   42252.06084  47.13891  18.40974  58842.32096    51.23467       44.79373    9.64541  24.49041   32.0    0.38003  -21.32626  0.99781 
   -4.45997  0.01268  2.40178     14.33582  1.64392  1.56248  11.12439  0.02397     0.10358   5259.75433   6149.97532  1.48868         4516.13488     19.41092  0.01431  58813.13972  1.83584  0.14105  187556.70196  46.45053  18.33745  58838.46279    50.92784       44.39548   15.19486  25.78534   30.5    0.40317   -21.2559  0.99551 
   -4.72943  0.00235  4.28108     14.49891  1.73546  0.85346   2.97733  0.16101     0.23792   6781.71184   5214.36763  4.64375         3772.60803     17.02307    6e-05  58812.87026  0.81683  0.00701   296841.2053  45.77263  18.36695  58842.32096    50.92013       44.37969   15.12537  26.67142   32.0    0.36841  -21.26596  0.99933 
   -4.58316  0.05585  2.42952     14.52105  1.61664  0.72871   7.07544  0.06259     0.22256   8402.98546   5107.64584  1.34533           3510.727     18.57876  0.00211  58813.01653  2.98022  0.39514   80419.88915  46.80105  18.37309  58842.32096    50.77023       44.17605   17.70639    28.312   31.0    0.40688  -21.20242  0.98695 
   -4.88376   0.0025  2.63387     14.41248    1.819  1.23272  15.36999  0.01815      0.1356    5535.9138   4965.34982  1.34311         4498.54514     17.50458  0.00018  58812.71593  2.80983  0.03844  175338.21849  46.44361  18.37034  58842.32096     51.0351       44.50396   15.12537  25.85483   31.0    0.41048  -21.21894  0.99873 
   -3.91955  0.00751  2.86251     14.59823  1.89956  0.84873  13.66168  0.02388     0.11363   5144.30034   7030.03394    2.005         4281.21013     16.65909    3e-05  58813.68014  2.15667  0.10259    91940.2398   46.6705  18.34253  58842.32096    50.89534       44.37314   12.86055  26.45253   31.0    0.35583  -21.21246  0.99628 
   -4.54868  0.08468  2.56501     14.43904  1.77489  1.23103   3.84533  0.08374     0.17356   5919.67241   6189.04369  1.46662         4360.20951     17.96595  0.00051  58813.05101  0.80381  0.32561  143574.58616  46.54276  18.33431  58842.32096    51.07283       44.55748   12.86055  27.34283   31.0    0.40429  -21.20421   0.9896 
   -6.70834  0.01143  1.56766     14.62867  1.87932  0.62176   5.18976  0.06669     0.28192   6972.72666   5366.86738  0.54431           4682.997     17.85531   0.0004  58810.89135  1.50515  0.05934   23712.69172  47.77736  18.43199  58842.32096    50.94734       44.42149   12.86055  27.34283   33.0     0.3892  -21.04126  0.99942 
   -4.90598  0.00244   2.6001     14.48383  1.40363  0.56833   7.84221  0.03239     0.01831   4765.39907   6849.43324  1.79742         4472.35718     18.81429  0.00362  58812.69371  1.06234  0.01913   94929.16824  46.60872  18.35138  58842.32096    50.98823       44.49013   12.86055  24.00461   31.5    0.39534  -21.23827  0.99908 
   -4.99456  0.00433  3.50309     14.46951  1.82427  1.02225  15.33053  0.02421     0.06233   6032.99117   5439.44617  2.05912           4185.801     17.37482  0.00013  58812.60513  3.32851  0.06642  239210.82712  46.06225  18.36269  58842.32096    50.84993       44.29128   15.99421  27.47553   32.0    0.36189  -21.22838  0.99607 
   -4.46684  0.00396   3.2641     14.40048  1.81353  1.56283   7.39328  0.04515     0.03932   5696.03324   6331.16027   2.1007         4108.28207     19.73459  0.03015  58813.13285   1.4309  0.02925  283730.75062  46.04694   18.3303  58842.32096     51.0214       44.53073   12.70687  24.15829   31.5      0.384  -21.24717  0.99848 
   -5.22981  0.01206  2.45094     14.37543  1.70691  1.21377  15.30558  0.02106     0.08494   6287.46511   4877.06672  1.22172         4226.83724     16.96047    5e-05  58812.36988  3.60934  0.18458  168976.99122  46.49456  18.38221  58842.32096    50.97355       44.43516   15.12537  26.67142   32.0    0.38971  -21.17817  0.99421 
   -5.75842  0.00132  2.21086     14.42347  1.41848  0.64809  15.73651  0.02161     0.29211   6865.53931   5404.19754  1.00791         4453.68239     16.76135    3e-05  58811.84127  4.42471  0.02085   91586.78878  46.76971  18.38263  58842.32096    50.79676       44.22706   16.80058  28.21134   31.5    0.40686  -21.18884  0.99929 
   -4.00809  0.05578  2.68318     14.36261  1.63268  1.38534    3.4497  0.10163     0.04475   6146.01069   7278.91824  1.76798         4212.09779      17.1813    8e-05   58813.5916  0.77731  0.19242  205491.92961  46.31165  18.37192  58838.46279    50.72039         44.126   14.89568  31.57327   31.0    0.39855  -21.24771  0.99226 
   -3.07394  0.01917  3.32259     14.60513  1.54099  0.61349  10.13094  0.03915     0.13006   5457.71963   5659.75444  4.20209         3892.59318     17.42886  0.00015  58814.52575  1.80011  0.19424    97344.7903  46.42538  18.35403  58842.32096    50.81616       44.26499   16.07569  26.63089   32.0    0.35623  -21.23745  0.98686 
    -5.8349  0.02688  2.19677     14.25183  1.47422  1.35806  11.12861  0.03489     0.02043   7800.37758   5955.40664  0.79701         4208.37504     16.70624    3e-05  58811.76479  4.03924  0.29909  207153.18743  46.43755   18.3754  58842.32096    50.91307       44.37941   12.86055  27.34283   32.5    0.40212  -21.14279  0.99063 
   -4.93306  0.00671  2.94256     14.35587  1.62549  0.98652   3.64775  0.09541     0.11856   6895.65497   6453.13642  1.53353         4198.43299      20.2711  0.10371  58812.66663  1.03467  0.02448  253813.00681  46.13786  18.35241  58838.46279    50.72432       44.13866     18.463    29.088   31.5    0.41351  -21.33399  0.99878 
   -3.51817   0.0302  2.20121     14.62073  1.07592  0.25854   6.05449  0.06116     0.05841   5540.15859   7733.71064  4.16924         3774.10787     20.77397  0.33014  58814.08152  1.10853  0.18283   27762.73252  47.17184  18.34779  58842.32096    50.97664       44.47044   12.86055   25.6567   32.5    0.35353  -21.57999  0.99062 
   -4.94943  0.00402  4.81982     14.74861  2.09914  0.56037   9.54102   0.0393     0.05785   6491.35797   5242.79084  2.97949         3808.99116     17.82657  0.00037  58812.65026  2.39824  0.03836   144113.2983  46.06612   18.3836  58842.32096    50.76682       44.18559   17.64056  29.10692   32.5    0.38377   -21.2167  0.99649 
   -5.09412  0.00783  1.83774     14.66551  1.83893  0.56418  11.31277  0.02594     0.22814   5721.39982   4688.08487  1.02264         4708.21887     19.95879  0.05053  58812.50557  2.20903  0.08856     26910.333  47.57493  18.39433  58842.32096     50.8948       44.34206   15.12537  26.67142   30.5    0.39341  -21.23866  0.99869 
   -4.28878   0.0116  4.18368     14.49184  1.81933  1.06365   9.25921   0.0387     0.03016   5168.31787    6757.7509  3.62984         4049.82813     16.79222    3e-05  58813.31091  1.47536  0.10737  307015.56338  45.79848  18.31446  58838.46279    50.72164       44.13165     18.463  28.28448   32.5    0.35342  -21.21985  0.99091 
   -5.48831  0.00349   1.4985     14.52792  1.61687  0.69097   10.5372  0.03421      0.1597   6085.41394   6587.90077  1.03129         4510.91855     19.97604  0.05257  58812.11138  2.32773  0.03674   29646.44036  47.65423   18.3677  58842.32096    50.73279       44.12901     18.463  29.91086   31.5    0.36787  -21.16859  0.99959 
   -5.38663  0.00196  4.49542     14.49087  1.72981  0.78179   4.81547  0.08094     0.22772   6261.49404   6130.83525  3.83094         3815.79807     18.17124  0.00082  58812.21306  1.12622  0.00945  338545.76477  45.67168  18.34497  58838.46279    50.78266       44.21918   16.80058  27.64005   33.0    0.37287   -21.2297  0.99899 
   -6.81079  0.03907  2.70756     14.45378  2.08751  1.40595   8.98453  0.04537     0.02728   8175.14322   5434.22302  0.59363         4323.09577     18.85065  0.00394   58810.7889   3.5819  0.35104  175810.12033  46.47828  18.34751  58842.32096    50.71597        44.1134   19.29083  29.08303   34.0    0.39652   -21.1232  0.99009 
   -4.01856  0.00555  2.59862     14.27962  1.53258   1.4221    7.6294  0.04796      0.0326   6054.67768   6340.82643  2.09209         3978.79192     20.34877  0.12402  58813.58113   1.6684  0.04236  265143.42276   46.2013  18.35442  58842.32096     50.7641       44.18574   17.70639  29.13873   32.0    0.37308  -21.32572  0.99822 
   -4.82505  0.00365  4.11993     14.54115  1.55377  0.59625   5.02081  0.07668     0.10248   5974.84829    6035.5148  4.36122         3782.46102     18.02371  0.00059  58812.77464  1.06919  0.01833  202619.58964  45.92377  18.34331  58842.32096    50.93626       44.41723   12.86055  27.34283   32.5    0.37577  -21.22756  0.99807 
   -3.65094  0.01899  3.48435     14.36525  1.59059  1.53447   7.25364  0.05403     0.07927   5613.40175   5627.26093  3.54658         3937.73676     18.49445  0.00173  58813.94875  1.36344  0.13776  333511.24393  45.86305  18.36944  58838.46279    50.75108       44.16821   17.64056  29.10692   32.5    0.35319  -21.21661  0.99016 
   -4.05447  0.03006  2.18892     14.42793  1.70442  1.24638   3.98676  0.08071     0.05945   5035.05819   6657.76542  1.63255         4569.39812      18.2393  0.00096  58813.54522  0.60292  0.11984  105679.67524  46.79597  18.36893  58838.46279    50.73329       44.13627     18.463    29.088   31.0    0.36321  -21.21127  0.99711 
    -3.2759  0.00301  1.94445     14.43633   1.7844  1.02505  11.30441  0.02812     0.14697   5107.81726   6831.47004  1.99219         4205.66643     20.71867  0.29067  58814.32379  1.75932  0.03408   83991.07664  47.01851  18.32811  58842.32096    50.98903       44.48836   12.86055   25.6567   31.0       0.35  -21.54037  0.99939 
   -4.79932   0.0085  2.58189     14.39201  1.83685  1.56569   10.4228  0.03132     0.15024   5816.74126   6452.16121  1.51382         4412.85652     20.20628  0.08933  58812.80037  2.10364   0.0886  186957.68615   46.4373  18.35193  58838.46279    50.73844       44.12042   18.48638  29.07113   31.0    0.38846  -21.31986  0.99723 
   -4.53939  0.07093  2.58584     14.51776  1.82315  0.95629   4.46118  0.06632     0.06386   5492.19773    4861.5558  1.46227         4509.80818      19.0665  0.00647   58813.0603  0.80273  0.31645  104306.92722  46.68615  18.33195  58842.32096    50.95783       44.43946   12.86055   25.7211   31.0    0.40329  -21.20229  0.99014 
   -4.08088  0.02505  3.53603     14.39904  1.70616  1.18577   4.61792  0.06189     0.21086   5062.80656   6568.11817  2.49544         4202.76278     19.33512  0.01202  58813.51881  0.70608  0.11569  315351.64938  45.90504  18.38254  58842.32096    50.73103       44.12257     18.463  30.75243   31.5    0.38488  -21.26564  0.99231 
   -4.96354  0.00404  2.89936     14.50598  1.64454  0.72917   6.34883  0.05714     0.05405   5995.54291   6692.40124  1.69106         4291.17367     17.66842  0.00026  58812.63615  1.36138  0.02568  124882.27941  46.46379  18.34785  58838.46279    50.79141       44.21088   16.80058  29.21781   32.0    0.35796  -21.21313  0.99879 
   -5.55157  0.00178  3.51309     14.41778  1.76046  1.03625    4.5957  0.08065      0.3115   6706.13815   5649.07151  1.68198          4204.2677      17.1848    9e-05  58812.04812  1.23289  0.00817  294623.19353  45.95382  18.40342  58842.32096    50.93551       44.40629   12.86055  26.37016   32.5    0.39749  -21.20627  0.99948 
   -4.95358  0.10187  1.89305     14.26525  1.42888   1.4007   2.81287  0.12186     0.04753   6190.47064   6529.90864  1.16957         4508.98455     17.02297    6e-05  58812.64611  0.64302  0.28653  140163.90017  46.72288  18.34418  58842.32096    51.00226        44.4968   12.70687  24.15829   31.0    0.38599  -21.20389   0.9932 
   -4.85499  0.02753  4.15389     14.58656  1.73638  0.61219   4.06047  0.10091     0.12899   7104.79348    5872.5731  2.99682         3728.46091     19.55365  0.01988   58812.7447  1.22266  0.11178  186744.45172  46.00033  18.39974  58842.32096     51.0377       44.52704   15.92201  24.15829   32.5    0.37766   -21.2456  0.98997 
   -4.35336  0.01068  2.94763     14.50728  1.78757  0.85596   6.88834  0.03539     0.01037    4373.4556   6690.44187  1.91351         4375.01175     19.62555  0.02346  58813.24633  0.78594  0.07359  139462.14547   46.4377  18.31892  58838.46279    50.85542       44.30902   12.86055  28.93624   31.5    0.37145  -21.21848  0.99684 
   -5.01276  0.01388  2.96079     14.43599  1.82906  1.10866   2.84511  0.12297      0.1279   6477.02614   4794.37358  1.40649         4305.66412     17.66225  0.00026  58812.58693    0.712  0.03949  199927.03207  46.28739   18.3723  58842.32096    51.11691       44.65314    9.64541  23.78503   31.5    0.38691  -21.23426  0.99834 
   -4.85731   0.0123  4.35802     14.35575   1.7449  1.44503   6.46319  0.06729     0.07268    7194.2139   5351.06633  3.39555         3812.17757     18.10319   0.0007  58812.74238  1.99545   0.0795  597953.34637  45.45537  18.35306  58842.32096    50.86709       44.33443   15.12537  25.85483   32.0    0.37907  -21.27304  0.99218 
   -4.93387  0.00226  3.36489     14.41758  1.29573  0.61727   6.17117  0.06172     0.09766   5733.49768    6255.7244  3.33621          4052.8738     16.36656    1e-05  58812.66582  1.21014  0.01392  199123.18351   46.0283  18.38701  58842.32096    50.81174         44.233   16.80058  27.64005   32.5    0.35775  -21.23728  0.99872 
   -3.11569  0.01718  2.70599     14.27316  1.48699  1.53334   6.25376  0.07222     0.24328   6042.40241   7573.26634  4.72689         3790.29969     20.73173  0.29954    58814.484  1.36203  0.10743  287377.31575  46.11805  18.41284  58838.46279     50.9483       44.36292   13.22046  29.88656   32.5    0.36208  -21.56977  0.99488 
     -3.538  0.00605  3.52514     14.53387  1.79596  1.01056  14.63122  0.03115     0.02992   5499.11298   7441.83138   3.7492         4066.69605      18.5055  0.00178  58814.06169  2.63933  0.08846   177302.3968  46.18007  18.40932  58842.32096    50.97336       44.45506   12.86055   25.6567   33.0     0.3296  -21.23065  0.99462 
   -4.30791  0.00511  3.20804     14.36263  1.55657   1.1107  17.68756  0.02199     0.14834    5712.0103   6261.70421  3.22061          3835.2122     20.06308  0.06424  58813.29178  3.44249  0.09042  280028.68447  46.00133  18.32498  58842.32096     50.9323        44.4198   15.12537  25.07801   32.5    0.35307  -21.26106  0.99432 
   -4.65751   0.0093  2.71865     14.42668  1.93349  1.19137   5.83031  0.05582     0.06477   6085.72961   5226.84511   1.5724         4237.49229     20.51392   0.1814  58812.94218  1.28808  0.05423  185996.78744  46.41697  18.34224  58842.32096     50.8957       44.37114   15.12537  25.07801   31.0    0.39995  -21.39881  0.99824 
   -3.39497  0.01327  2.41115     14.52256  1.55433  0.78896  17.91006  0.02488     0.17774   6080.22224   4759.20574  2.31919         3952.86597     18.87197  0.00414  58814.20472  3.94969  0.23769   75630.23967  46.81724  18.35417  58842.32096    51.14295       44.65122   12.70687  24.15829   33.0    0.31172  -21.17565  0.99189 
   -4.19846  0.08981  4.11806     14.41814  1.75641  1.40975   3.16927   0.1148     0.12444    5675.5744   5105.10309  3.63642         3987.35612     16.97824    5e-05  58813.40123  0.60898  0.28463  403217.50189  45.67855  18.35272  58842.32096     51.0728          44.57   12.86055   25.6567   32.0    0.36664  -21.26076  0.97577 
    -4.3027  0.00382  3.14136     14.50572  1.68425  0.77624  12.71447  0.02448     0.31244   5317.05437   7380.95835  2.11792         4142.71334     19.85605  0.03988  58813.29699  2.14421  0.04852  150322.46954  46.32399  18.35496  58842.32096    50.97918       44.46571   12.86055   25.6567   32.0    0.36671    -21.222   0.9974 
   -3.84815  0.01373  3.66285     14.88729   1.7175  0.29253   12.6174  0.02612      0.0264   4965.50409   6257.70968  4.57488         3802.39087     20.58418  0.21326  58813.75154  1.85577  0.17326   35956.12186  46.82033  18.37138  58838.46279    50.92344        44.3667   15.99421  28.44643   32.0    0.37008  -21.43772  0.98778 
   -4.56066  0.00677  3.17023      14.2697  1.47175  1.46509  19.95123  0.01877     0.11522   6239.20388   5438.24521  2.25892          4099.9056     18.56353  0.00203  58813.03903  4.63293  0.13509  396673.99238  45.83607  18.35037  58842.32096    50.99795       44.48452   12.86055  26.45253   32.0    0.37346   -21.2317    0.991 
   -3.90654   0.0022  2.40018     14.34916  1.56913  0.95178   6.13574  0.05746     0.23868   5965.82878   6248.48941  2.23232         4001.44969     20.66664  0.25785  58813.69315  1.30267  0.01351  168126.20582  46.47838   18.3799  58842.32096    50.77699       44.17379     18.463  29.32593   31.0    0.38189    -21.517  0.99953 
   -5.17384  0.00377  2.20632     14.33249  1.67429    1.458    9.9695  0.02617     0.15155   5085.63654   5181.53258  1.26971         4628.69302     18.57906  0.00211  58812.42585  1.53812  0.03759  163680.56449  46.59134   18.3638  58838.46279    50.74577       44.15264     18.463  28.28448   31.5    0.38903   -21.1922  0.99902 
   -4.79492  0.00211   4.0789      14.3528  1.65749  1.26853  19.45973  0.01857     0.48958   5825.27037   5660.74611  3.14805         4047.18956     18.90648  0.00448  58812.80477  3.93909  0.04099  504370.52664  45.56446  18.37133  58842.32096    50.75008       44.14635   17.70639  29.84461   32.5     0.3685  -21.24668  0.99617 
   -4.09436  0.00483  3.56974     14.52176  1.67557  0.75842   7.17702  0.04417     0.46044   4810.08549   5439.88161  3.20059         4121.26899     20.06227  0.06412  58813.50533  0.99055  0.03468  179365.00143    46.134  18.35658  58842.32096    50.88073        44.3383   15.19486  26.60193   32.0    0.35808  -21.29683  0.99757 
   -4.58192  0.00748  4.26628     14.62762  2.03273  0.81582   4.29611  0.10124     0.08174   6434.92525   6636.08478  2.80592         3967.91488     17.72947   0.0003  58813.01777  1.06118  0.03215  190878.93159  46.03607  18.40323  58842.32096    50.81175       44.24658   15.99421  28.44643   32.5    0.35959  -21.20239  0.99759 
   -4.78158  0.00189  4.21711      14.3834  1.80647  1.33679   4.56605   0.0882     0.07109   6432.24144   5506.08288  3.44432         3827.23244     19.99623  0.05508  58812.81811  1.12692  0.00862  510346.37657  45.56778  18.33414  58842.32096    50.97504       44.47503   12.86055   25.6567   32.0    0.36785  -21.29431  0.99924 
   -5.14167  0.00764  2.64165     14.68878    1.789  0.50625   9.88947  0.03311     0.01999    6216.1852   5542.98627  1.27682         4374.34896     17.93116  0.00047  58812.45802  2.27955  0.07555    48597.0188   46.9911  18.34195  58842.32096    50.90914       44.37771   15.12537  25.07801   31.5    0.38525  -21.21409  0.99742 
   -5.32032  0.00198  2.98047     14.47042  1.43055  0.61741   6.34307  0.06545     0.07534   6561.49041   6022.23286  2.10147         3920.57167     17.82202  0.00037  58812.27937  1.62904  0.01257  135223.66986  46.34473  18.37194  58842.32096    51.02482       44.52045   12.70687  25.81038   33.0    0.36507  -21.17655  0.99922 
   -5.04563  0.00135  3.90524     14.30119  1.32092  0.84179   7.13653  0.04402     0.16038   5093.71732   6086.62829  4.82414          3866.1236     17.37712  0.00013  58812.55406  1.10455   0.0096  467307.10951  45.53682  18.37111  58842.32096    51.00324        44.5072   12.70687  24.15829   32.0    0.36624  -21.23108  0.99884 
   -3.80481  0.00417  2.05636     14.36707  1.75794  1.55657   4.78063  0.07075     0.22157   5362.19566   8259.74549  1.86777         4273.89625     20.62511  0.23434  58813.79488  0.81997  0.01994  127316.33806  46.78277  18.42505  58842.32096    50.94331       44.42468   12.86055  27.34283   31.5    0.34391  -21.46774  0.99959 
   -5.05362  0.00114  3.01965     14.35653  1.62606  0.96937   7.26223  0.04983     0.05586   6897.13981   5474.50385  1.68716         4003.48494     20.31747   0.1154  58812.54607   2.0608  0.00831  266564.38913  46.09427  18.36786  58842.32096    51.03824       44.51374   15.12537  25.85483   32.5    0.40081   -21.3144  0.99956 
   -5.50473  0.00383  2.00173     14.56155  1.78454   0.6977   8.07277  0.03272     0.02427   5248.67313   5586.77721  1.06867         4585.18872     18.46854  0.00163  58812.09496  1.32663   0.0309   50008.45749  47.21851  18.38634  58842.32096    50.73604       44.12315   18.48638  29.74069   32.0    0.39058  -21.11606  0.99941 
   -4.89629  0.12581  2.11337     14.57338  1.54908  0.62234   3.29595  0.10377     0.07614   5552.92621   5946.18712  1.57042         4249.98044      16.2834    1e-05   58812.7034  0.60625  0.41466    45823.5812  47.14788  18.36443  58842.32096    50.76486       44.16297     18.463  28.38213   32.0    0.36591  -21.16421  0.98921 
   -4.02237  0.00173  3.38864     14.37668  1.65087  1.41476    8.0303   0.0513     0.09591   6030.37483   7749.37554  2.57499         4062.12502      16.2011    1e-05  58813.57732    1.742  0.01393  310611.55507  45.93429  18.33626  58842.32096    50.85932       44.31463   15.19486  27.48385   32.5    0.36237  -21.18234  0.99911 
    -4.7359  0.00134   4.9472     14.45536  1.86716   1.0941    2.3687  0.17026     0.13651     6551.478   5584.59297  4.70198         3749.46268     18.47866  0.00167  58812.86379  0.60648  0.00319  521192.47707  45.43431  18.37006  58842.32096     51.1704       44.68556   12.70687  22.65964   32.0    0.39536  -21.25061  0.99963 
   -4.70953  0.00944  4.14735     14.39008  1.58149  0.89325   6.74259  0.04719     0.04148   5410.52916   6078.34095  3.51189         3878.51621      16.2616    1e-05  58812.89016  1.17742  0.06367  419049.03544  45.61011  18.37178  58842.32096    51.00538       44.49155   12.70687  24.15829   33.0    0.38307  -21.21508  0.99342 
   -4.68059  0.00936  3.75402     14.44633  1.54665  0.76549   6.39259  0.05677     0.43754   6259.10948     5301.775    2.736         3988.88137     16.28228    1e-05   58812.9191  1.49393  0.05986  259137.71681  45.89571  18.34686  58842.32096    50.91275       44.36909   15.12537  26.67142   32.0    0.37929  -21.22799  0.99476 
   -3.93478  0.03756   2.6764     14.33358  1.40733  1.02415   3.57344  0.10008     0.48817   5550.82763   6711.36979  2.33343         4092.19357     18.96038  0.00507  58813.66491  0.65679  0.13423  201443.61443  46.25798  18.35977  58842.32096    50.87654       44.34306   15.12537  26.67142   32.0    0.35303  -21.21685  0.99323 
   -5.46653  0.00208  2.43052     14.40849  1.79989  1.19764    7.3005  0.03896      0.0845   5505.20623   5786.37965   1.2086         4760.53871     16.91709    5e-05  58812.13316  1.31986  0.01522  150478.69753  46.57522  18.37957  58842.32096    51.01256       44.51124   12.70687  24.15829   31.5    0.39041  -21.20274  0.99957 
    -4.6209  0.00202  2.59675      14.3857  1.80757  1.34788  12.20623   0.0281     0.02557   5291.13811     6794.527   2.1117         4103.24186     20.52011  0.18401  58812.97879  2.03848  0.02461  191590.19817  46.41471  18.36065  58842.32096    51.02344       44.52567   12.70687  24.15829   32.5    0.34923  -21.37636   0.9992 
   -4.11342  0.00832  3.59079     14.87669  1.78464   0.3498   6.24611  0.06021     0.06013   5552.09036   5598.15704    2.741         4099.67117     19.76991  0.03271  58813.48627  1.14855  0.05196   37702.75463  46.83364  18.32695  58842.32096    50.89973        44.3857   15.12537  25.07801   32.0    0.35008  -21.23007  0.99666 
   -2.12926  0.00749  2.56211     14.52915  1.68527  1.19023  21.80705  0.02353     0.13573   5735.54128   6999.39425  4.35936         3909.54799      19.2607  0.01013  58815.47043   4.2793  0.16331    89821.1775  46.72494  18.33602  58838.46279    50.74083       44.14919   17.70639  29.84461   33.0    0.30385  -21.23353  0.99461 
    -5.5272  0.00334  4.41738     14.51508  1.88122  0.81499   4.77737  0.06961     0.04578   6390.69326   5978.09459  2.19458         4148.35156     17.53162  0.00019  58812.07249  1.16389  0.01595  317992.13266  45.75054  18.42063  58842.32096    51.01813       44.53107   12.70687  22.65964   32.5    0.41038  -21.23123  0.99855 
    -5.5798    0.001  3.07759      14.5226  1.90652   0.9382  10.69026  0.04128     0.06553   7282.04956   6783.36709  1.26956           4436.771     16.88744    4e-05  58812.01989   3.3816  0.01071  151103.55846  46.39339  18.36331  58842.32096    50.96052       44.44403   15.12537  24.10534   31.5    0.37236  -21.19972  0.99955 
   -4.49571  0.00145  4.27668     14.40444  1.78689  1.54207   3.34109  0.11663     0.06641   5666.90517   6203.55415  4.13716         3886.07015      16.4177    1e-05  58813.10398  0.64004  0.00486   471248.1199  45.58548  18.34462  58838.46279    50.90759       44.33469   17.64056  28.37783   32.0    0.36665  -21.23613  0.99956 
   -5.40961  0.00338  3.14572     14.65437  2.11992   0.7219   9.46238  0.03645     0.03407   6457.93986   5075.10025  1.24136         4408.71983     17.63933  0.00024  58812.19008  2.35405  0.03201   95682.31603  46.61889  18.38074  58842.32096    50.78937       44.21664   16.80058  27.64005   31.5    0.39386  -21.21324  0.99879 
   -5.11774  0.00136   3.7829      14.4464  1.65105  0.89041  12.06632  0.02851      0.0123    5007.5904   6570.68587  2.89769         4156.50202     17.68993  0.00027  58812.48195  1.80493  0.01639  280818.93718  45.88253  18.35525  58842.32096     51.1199       44.64565    9.64541   25.7211   33.0     0.3413  -21.18841  0.99867 
    -5.3693   0.0053  3.19167     14.53162   1.7854  0.78863  10.92607  0.03272     0.19703   5840.35907   6257.92834  1.78743         4194.71114     16.73427    3e-05  58812.23039  2.22316  0.05788   145997.3469   46.3482  18.36126  58838.46279    50.73381       44.14464   17.70639  29.13873   32.5    0.36086   -21.1687  0.99707 
   -4.62376  0.00252  5.48075     14.59111  2.13944  0.93835   5.45751   0.0589     0.07554   5391.48098   6605.60708  4.20448          3990.3381       17.441  0.00015  58812.97593  0.94632  0.01375  392267.78654  45.52788  18.38387  58842.32096    51.09341       44.60471    9.64541   25.7211   31.5    0.38105  -21.26944  0.99841 
   -4.31344  0.00962  4.11332     14.80836  1.75636   0.4037  10.06147  0.04644      0.0554   6379.74158   5640.47517  3.98739         3902.29711     19.08559  0.00677  58813.28625  2.44284  0.09683   66694.22516  46.46099  18.36544  58838.46279    50.75844       44.15521     18.463  28.38213   33.0    0.33811  -21.24329  0.99164 
   -4.39975  0.01648  3.83887     14.59201   1.6984  0.63544   5.98009  0.04939     0.02821   4838.91135   6529.12184  2.99523         4085.51522     16.67692    3e-05  58813.19994  0.83528  0.09854  152139.07681  46.14824  18.41389  58842.32096    51.06139       44.57272   15.92201  22.65964   32.0    0.37254  -21.22276   0.9922 
   -4.45193  0.00686  4.74818      14.4204  1.82224  1.27652   5.70923  0.07433       0.101   6456.09843   6109.27118  4.90494         3788.99635     17.38548  0.00013  58813.14776  1.41953  0.03915  550403.85501  45.43571  18.38304  58842.32096    50.92711       44.39597   15.19486  26.60193   32.0    0.37377  -21.25917   0.9957 
   -4.64041  0.00114  2.65279     14.44263  1.92501  1.42476  10.44611  0.02678     0.13125   5281.42154   5525.15039  1.38029         4579.44747     17.67863  0.00027  58812.95928  1.73813  0.01193  163828.36064  46.49148  18.35216  58842.32096    50.85836       44.29965   15.19486  27.51172   30.5    0.39235  -21.21118  0.99963 
   -3.82237  0.00825  4.04023     14.91026  1.90676  0.35552   4.28617  0.16487     0.18674  10107.62603   7116.30337  3.94779         3470.75386     19.57217  0.02074  58813.77732  2.61213  0.03536   43692.55529  46.69592  18.32388  58838.46279     50.8363        44.3011   15.99421  25.80258   31.0    0.36675  -21.31768  0.99739 
   -4.60044  0.01878  2.20142     14.36812  1.60408  1.28572  13.13833  0.03368     0.02799   7015.85964   6277.89856  1.40799         3888.69464     18.74502  0.00309  58812.99925  3.85771  0.24672  132496.84289  46.66646   18.3205  58842.32096    50.91987       44.40557   15.12537  24.18771   32.0    0.36939  -21.15981  0.99331 
   -4.36618   0.0813   2.4688     14.47452  1.60654   0.9569   8.24935  0.04291      0.0134   6091.96977   6604.75596  1.68673         4410.32408     16.12931    1e-05  58813.23351  1.82626  0.67063  102242.98792  46.68013  18.36462  58842.32096    50.95754       44.44499   12.86055   25.6567   31.5    0.36791  -21.23903  0.97742 
   -4.26138  0.00448  3.20604     14.53833  1.91406  0.94464   6.06476  0.05295     0.17293   5290.09829   6025.22057  2.00809         4231.69437     19.12516  0.00741  58813.33831  1.01244  0.02719  153125.81406  46.35381  18.44076  58842.32096     50.9196       44.37849   15.12537  25.85483   31.5    0.38061   -21.2244  0.99875 
   -4.04266  0.01389  3.15337     14.46074  1.78341  1.03688  11.38288  0.02715     0.01852   5080.24504   7156.29981  2.42019         4167.90995     20.21487  0.09112  58813.55703  1.75246   0.1581  197303.25896  46.22741  18.38168  58842.32096    50.84924       44.28789   15.99421  26.68765   32.0    0.36187  -21.31796  0.99223 
    -6.0603  0.01209  3.05339     14.36955  1.65369  1.05267   4.00671  0.09492     0.28302   6761.45463   5276.85163  1.47624         4147.99457     16.61988    2e-05  58811.53939  1.09269  0.04842  261062.74494  46.10099  18.38691  58842.32096    50.93942       44.41329   12.86055  26.37016   33.0    0.37318   -21.1678  0.99747 
   -4.19659  0.00718  4.07832     14.67172   1.7735  0.57159  18.67933  0.02107     0.01478   5793.17068   5433.07447   3.5515         3949.22743     18.46765  0.00163   58813.4031  3.73957  0.13407  124210.60298  46.20255  18.36259  58842.32096    51.06652       44.58366   12.86055   25.7211   32.5    0.34694  -21.23792  0.98881 
   -4.59332  0.00233  2.70402     14.34577  1.58444  1.55602   7.38734  0.07305     0.34177   7586.55643   6780.21283  1.85441          4102.2438     17.20065    9e-05  58813.00637  2.53632  0.01718  218861.22733  46.26453  18.33731  58842.32096    50.85701       44.30764   15.19486  27.48385   31.5    0.34775   -21.2379  0.99926 
   -4.79309  0.00362  4.87409     14.40385  1.84047  1.43725   9.57064  0.04128     0.03564   6334.43765   5134.99103  4.70999         3827.27848     16.42302    1e-05   58812.8066  2.29079  0.03468  632177.82246  45.35715  18.35174  58838.46279    50.75902       44.15883   17.70639  29.04109   32.0    0.37916  -21.27255  0.99605 
   -3.91089   0.0041  3.04532       14.438  1.74913  1.39542  21.10988  0.01785     0.01501   5387.23352   7037.43146  2.45921         4236.01169     17.38747  0.00014   58813.6888  3.65464  0.08646  200401.09376   46.2425   18.3736  58838.46279    50.80744       44.22717   16.80058  26.66915   32.0    0.33389  -21.22895  0.99594 
   -4.71726  0.02127  3.79947     14.43729  1.58536  0.84992   7.06632  0.07423     0.12029   7401.96064   4646.66551   4.0487         3672.62532     19.76712   0.0325  58812.88243  2.30948  0.15033  283663.01882  45.85672   18.3141  58838.46279    50.81415       44.26411   16.80058    25.906   33.0    0.36374   -21.2616  0.98713 
    -5.5817   0.0318  2.08367     14.48603  1.85805  0.89412   6.75666  0.04422     0.03674   7296.83535   6175.42848  0.70255         4204.64061     17.11581    7e-05  58812.01799  2.14599  0.21489   79887.27805  46.99777  18.36764  58842.32096     50.8453       44.28752   15.99421  26.71238   32.5    0.43332  -21.16426  0.99581 
   -5.37369  0.00807   2.6163     14.24286  1.50774  1.47744   7.16065  0.04771     0.04619   6637.51445   4982.27903  1.58428         4016.07384     20.17631  0.08337    58812.226  1.88187  0.05781  313178.89503    46.116  18.37474  58842.32096    51.01628        44.4924   12.86055  26.45253   32.0     0.4068  -21.27715  0.99747 
   -6.56996  0.00664  1.31816     14.46413  1.99486  1.25273   8.45303  0.03371     0.47893   5796.29856   6487.26363  0.62912         5151.66084     16.07398    1e-05  58811.02973  1.69411  0.05616   37967.45157  47.74941  18.31699  58842.32096    50.99424       44.49756   12.86055  24.00461   33.5    0.38371  -20.98748   0.9997 
   -4.04509  0.00878  2.56171     14.34115  1.40902    0.847   9.98397  0.02745     0.02693    4794.5203    7063.2288  2.26904         4197.40441     20.33822  0.12104   58813.5546  1.36905  0.08764  178439.45191  46.34921  18.34528  58838.46279    50.72816       44.12489   18.48638  29.88748   31.5     0.3864  -21.34895  0.99593 
   -5.07691   0.0066  2.26188     14.39691  1.29792  0.64661   6.59509  0.05725     0.07238   6006.67609   6287.48428  1.76395         4234.53651     19.92437  0.04668  58812.52278  1.41944  0.04352   99126.46759  46.67696  18.40221  58842.32096    50.97127       44.45846   12.86055   25.6567   32.0    0.36277  -21.25385  0.99822 
   -4.84704  0.00217  4.18338     14.62552  1.72749  0.57203   6.85022  0.04664     0.20253   5001.53056   6738.99754  3.39496         3983.70464     17.57349  0.00021  58812.75265   1.0222  0.01489   157484.1756  46.06597  18.34098  58842.32096     51.0018       44.50558   12.70687  24.15829   32.5    0.35507  -21.20401  0.99863 
   -3.25779  0.00858   1.7984     14.31436  1.58441   1.4424  10.35061  0.03876     0.30775   5954.11949   6225.35287   2.0176         4037.32028     20.67673  0.26391   58814.3419  2.18891  0.08877  111873.66239  46.91021  18.35183  58842.32096    50.88727       44.34982   15.12537  25.85483   32.0    0.36448  -21.49107   0.9984 
   -5.20085  0.00156   1.7005      14.4057  1.71004  0.90328  12.32175  0.02898     0.05353   6553.75456   5648.44199  1.09495          4320.8131     20.58834  0.21531  58812.39884  3.15704  0.01922   70887.18424  47.19013  18.39484  58842.32096    51.18808       44.73572   12.86055  22.18368   31.5    0.36727  -21.40788  0.99972 
   -3.87662  0.00389  2.34139     14.33443  1.32163  0.75718   3.87002   0.0855     0.05374   5172.57245   6911.55348   2.6312          4033.7288      20.5337  0.18986  58813.72307  0.61767  0.01505   144213.9247    46.492   18.3394  58838.46279    50.92447       44.38088   15.99421  27.47553   32.0    0.34692  -21.43175  0.99936 
