 texplosion  fnickel     Pspin  log(Bfield)      Mns  thetaPB   mejecta    kappa  kappagamma     vejecta  temperature    alpha  cutoff_wavelength  log(nhhost)      A_V         MJD0  kenergy  mnickel               TSD   log(L0)  Peak_mag     Peak_MJD  log(E_rad)  log(Peak_lum)  Rise_Time     E_fold  tau_1  delta_m15     r_peak     frac 
   -9.70309  0.00127   4.43179     13.71873  2.10093  1.43251   2.99656  0.05217       0.048  6114.09376   8081.51924  0.11064         2042.84491     20.90022  0.44151  58192.60041  0.66821   0.0038    13993622.00865  44.15217  18.39004  58270.27344     51.1243       44.23007   27.88471   74.93434   75.5    0.05451  -20.91012  0.99967 
   -9.78605  0.01703   2.95403     13.53173  1.56052  0.98398    5.3586  0.03848     0.01867  5579.63127    8261.4122  1.76216          2043.1883     21.10232  0.70315  58192.51745  0.99515  0.09128    10926062.36483  44.48282  18.41766  58264.38858    51.12817       44.21026   32.31192    75.7799   77.5    0.04581  -21.13022  0.99454 
  -11.18519  0.00137   3.53909     13.54466  1.76767  1.14028   5.96183  0.03316      0.0151  5350.50356   8379.57507  0.52605         3443.15473     20.97904  0.52938  58191.11831  1.01811  0.00818    16737206.98682  44.19478  18.42424     58265.95    51.00984       44.03615   34.06271    90.9167   78.5    0.05033  -20.96762  0.99939 
   -10.0591  0.43221   4.14586     13.87252  1.69402   0.5641   7.29903   0.0328     0.01869  6130.62674   8055.97556  0.61562         2097.88586     20.96934  0.51769   58192.2444  1.63645  3.15472     4863200.53936  44.57561  18.40117  58265.26172    51.04265       44.09375   34.27302   84.36435   75.5    0.04993  -20.97491  0.74899 
   -8.20822   0.4822   6.09742     13.73086  1.45351  0.97446  12.77571  0.02449     0.01421  6443.76984   7741.77382  0.76058         2394.76762     20.78338  0.33737  58194.09528  3.16441  6.16047    17330295.97522  43.62217  18.41769   58272.2185    51.14794        44.2048     30.606   83.82739   80.0    0.05564  -20.77828  0.34948 
   -9.80714  0.32596   4.21553     13.78267  1.77571  0.82182  11.04895  0.02591     0.01149  5763.39985   8022.09872  0.70231         2865.94175     21.02642  0.59041  58192.49636   2.1893  3.60148     7971623.65042  44.36697  18.38833  58270.29902    51.38762       44.57526   27.11616   55.63292   79.0    0.05614  -21.03288  0.73317 
   -9.12391  0.49149    5.6939     13.26198  1.76512  0.49649  15.94681  0.03199     0.01122  6351.39664   7536.95956  0.21197          3697.8344     20.55936  0.20141  58193.17959  3.83742  7.83774   159021279.30919  42.80335   18.3952  58267.31463    51.10659       44.15702   36.86439   81.77297   81.5    0.07256  -20.68415  0.10305 
  -10.88713  0.39655    3.9911     13.62474  1.79645  1.28241   8.97351  0.03094     0.01268   5551.6591   8913.46432  1.28144         2369.83539     21.05088  0.62461  58191.41637  1.64982  3.55848    14960102.24585  44.14614  18.40601   58272.2185    51.09832       44.16835   24.91965   84.44134   75.5    0.04964  -21.05106  0.75744 
   -8.60723  0.47238    2.2161     12.53333  1.28657  0.23781   15.0022  0.03709     0.01319  6339.78284   7225.02055  0.18888         4799.00521     20.24989  0.09877  58193.69627  3.59692  7.08673   503230601.23681  42.98533  18.43469   58272.2185    51.14798       44.22576   29.00024   80.22117   85.0    0.07775  -20.61168  0.05185 
   -8.87687  0.15165   3.56971     13.95936  1.71875  0.49347   9.21093  0.01803     0.01429  5925.68012   8420.34183  0.43229         2197.83191     21.04236  0.61248  58193.42663  1.92933  1.39688     2452302.59449  45.00922  18.39267  58269.35938    51.18631       44.32531     27.386   67.85723   72.0    0.04943  -21.07385  0.90652 
  -10.98691  0.06436   3.60073     13.61379  1.41102  0.78381  11.56025  0.02457     0.01067  5111.28326   4754.09576  0.65225         3957.55096     20.85899  0.40153  58191.31659  1.80158  0.74402    10058987.25749  44.30304  18.40858   58272.2185    51.18816       44.27836   29.70379   75.98187   93.5    0.06412   -20.8227  0.92661 
  -12.81653  0.03779   3.57214     14.08248  2.02957  0.42299  10.21326   0.0254     0.01052  5503.33076   7757.40218  0.19042         2525.17787     21.11172  0.71853  58189.48697   1.8452  0.38592     1644802.01831  45.25428   18.4091    58269.172    51.01717       44.08916     27.386   84.56423   78.0     0.0565  -21.14718   0.9783 
  -10.84277  0.05558   3.15257     13.56158  1.58708  0.77034   8.33394  0.02562     0.01064  5471.26376   8248.94731  1.08488         2635.37616     21.02777  0.59224  58191.46073  1.48817  0.46323    11030243.41559  44.42953   18.3968   58272.2185    51.13475       44.21078   29.64955   81.07866   78.0    0.04685  -21.02156  0.96854 
   -10.7626  0.00276   3.45445     13.72736  1.87535   0.8867   5.55633  0.04221     0.01867  5142.11223    8540.2275  0.74871         2891.05884     21.10881  0.71373   58191.5409  0.87639  0.01534     7293398.72954  44.60224  18.45351  58267.31463    51.06912       44.16174    28.0353   79.43746   81.5     0.0534   -21.1043  0.99906 
  -11.17852  0.36002   4.48617     13.68008  2.08658  1.30551    7.6579  0.03286     0.01349   5766.3842   7878.87553  0.40676         3038.14608     20.97805  0.52818  58191.12498  1.51895    2.757    17015039.21025   44.0537  18.40196    58269.172    51.11115        44.1769   32.33268   81.03191   76.5    0.05263  -20.99001  0.79579 
   -10.0233  0.26574   3.95034     13.40331  1.45465  1.40979   5.63593   0.0432     0.02542  5706.75563    4319.1926  0.53417         3890.07346     20.59776  0.22003   58192.2802  1.09489  1.49769    32901667.06023  43.72112  18.41901  58265.26172    51.12047       44.19412   33.49132   78.25902   89.0    0.05246   -20.6825  0.83354 
  -10.15276  0.42617   5.39116     12.67289  1.69527  1.05447   19.3684  0.03325       0.013  6626.11935   7816.90955  0.27164         4233.72352     20.67232  0.26125  58192.15074   5.0727  8.25415   2063700836.3176  41.72007  18.38839  58267.31463    51.24023       44.35664   31.63663   69.48951   85.0    0.07847  -20.76006  0.03264 
   -8.96436  0.35722   4.70308     14.11293  1.74046   0.4032  15.26859  0.01654     0.01019  5683.73436   8947.45053  0.70395         3293.92479     21.04757  0.61987  58193.33914  2.94235   5.4543     2125142.20385  44.83736  18.37651   58271.1743    51.16104       44.26879     27.386     74.922   80.0    0.05229  -21.03105  0.58795 
   -9.95589  0.40792   5.18757     13.82666  1.74888  0.95852  11.55429  0.02415     0.01311  5889.43375   7886.95561  0.42949         3190.93061     20.91964  0.46171  58192.34761  2.39066  4.71328     9709286.01693  44.09449  18.36678  58269.35938     51.1083       44.18728   32.33268   76.75433   81.5    0.05648  -20.89407  0.57625 
   -10.0445  0.08119   3.71103     13.62611  1.67477  1.07124   6.81944   0.0311     0.02045  5845.03802   8202.81752  0.38252         3213.34743     20.97136   0.5201    58192.259  1.38979  0.55366    11982401.52919  44.27527  18.42551  58274.37425    51.30817       44.39147   33.27199   75.94943   79.0    0.05329  -20.96795  0.95473 
  -10.14158  0.15931   3.56114      13.4944  1.61868  1.35209   6.97775  0.03653     0.01859  5788.82468   8489.18553  1.33554         2661.41252     21.00242  0.55866  58192.16192  1.39484   1.1116    19559286.78975  44.08347  18.38548   58271.1743    51.10597       44.16886   28.93309   83.01714   80.5     0.0524  -20.99635  0.91301 
  -11.19433  0.45602   2.78978     13.56883  1.37232  0.88046   6.61491  0.02755     0.01915  5881.65549    8824.7621  0.00313         2937.72528     21.12438  0.73979  58191.10917  1.36506  3.01656     7223574.63134  44.65641  18.39289   58271.1743    51.22311        44.3291   29.70379   73.11526   69.0    0.04856  -21.21257  0.83996 
  -12.04139  0.29253   3.84759     13.71289  1.78746  0.85075      9.21  0.03117      0.0117  5849.72058   8136.86185  0.12923         3238.01604      21.0231  0.58591  58190.26211     1.88  2.69422     9218286.12131  44.38605  18.40145    58269.172    51.23513       44.35753   30.60644   67.87341   74.5     0.0597  -21.05357  0.81498 
   -9.27923    0.295  10.14943     14.03637  1.91013  0.97159  21.19821  0.01715     0.01228  5954.64343   4272.41298  0.31318         2992.93308     20.52716  0.18702  58193.02427  4.48371   6.2535    15453490.76178    43.348  18.39226  58269.35938    51.17786       44.30028   26.27046   72.29795   91.5     0.0614  -20.61602  0.22274 
   -9.74865  0.10452   4.12392     13.67221  1.99448  1.29663   5.78392  0.02304      0.0236   6081.9351   7943.21773  0.13496          3130.8281     20.98188  0.53286  58192.55485  1.27624  0.60451    14250933.70591  44.18421  18.40445  58267.31463    50.94922       43.96833   34.15741     90.822   76.5    0.04983  -20.98577  0.95272 
   -9.88231  0.01833   4.14744     13.55044  2.07939   1.2877   6.50348  0.02445     0.01467  5976.01064   7655.11482  0.43961         2637.05415     20.76818  0.32577  58192.42119  1.38546  0.11922    26328313.26896   43.9308  18.45013  58265.26172     50.9869       44.02387   30.69767   91.59822   79.0     0.0578  -20.81151  0.98983 
  -10.34963  0.34323   3.62902     13.52085  1.71446  1.26968   5.95004  0.03726     0.01511  5626.80987   8307.55564  1.56898         2018.01966     20.98239  0.53348  58191.95387  1.12376  2.04222    19046874.25956  44.10357  18.37684   58271.1743    51.27183       44.38348   29.70379    71.4818   73.0    0.05034  -20.98103  0.85628 
   -9.95352  0.49144   9.93407     13.66061  1.79464  0.67553  14.99327  0.03714     0.01103  5511.00335   4685.43815   0.7076         4134.89557     20.55037  0.19729  58192.34998  2.71634  7.36834     78492857.9621  42.63374  18.39712   58271.1743    51.15747       44.23014   32.31192   78.66332   88.5    0.06915  -20.65553  0.09435 
   -10.1158  0.02511   4.43518     13.60993  1.77107  0.99766   4.24103  0.04838     0.03665  5771.53779    4097.0572   0.9567         3018.42609     20.53074  0.18857   58192.1877  0.84272  0.10651    19499136.93066  43.93324  18.44635    58269.172    50.90323       43.87362   39.54579   99.54776   89.5    0.05447  -20.61291   0.9871 
   -7.49091  0.48319   4.10939     13.58798  1.65027  1.19974   6.39793   0.0141      0.0229  6416.73191   8399.75046  0.11978         2928.97197     20.92489  0.46732  58194.81259  1.57143   3.0914    17256554.37797  44.02189  18.38726  58267.31463    51.19988       44.28901   34.96059   73.13123   72.5    0.05061  -20.95404  0.74533 
   -9.71185  0.21222    3.8712     13.64263  1.73267  1.29055  10.63217  0.01439     0.01355   5990.9175   8288.14334  0.00667          2905.3279     20.99825  0.55332  58192.59165  2.27633  2.25638    12501424.09099  44.23491  18.40285    58269.172    51.26111       44.41144   29.00024   63.27326   75.0    0.04844  -21.01526  0.83519 
  -10.55831  0.44282   6.46287     13.92307  1.58349  1.04529  16.04139  0.02078     0.01058  6101.72864   7776.03681  0.11808         2712.20436     20.87749    0.419  58191.74519  3.56266  7.10337     8752661.10539  43.90547  18.39531  58263.28906    50.84197        43.8357   42.18217    92.5149   79.0    0.06141  -20.85283  0.33922 
  -10.47949  0.05508   4.20411     13.65047  2.02389  1.40679   3.83457  0.05157     0.03633  5847.76598   4325.98482   0.5631         2944.62123     20.96114    0.508  58191.82401  0.78221   0.2112    16611464.43714  44.10728  18.42702  58263.28906     50.9348       43.92721   34.15907  101.31875   85.5    0.04737  -20.94539  0.98244 
   -9.90987  0.49339  15.55511     14.63701  1.57624   0.8268  16.15252  0.02658     0.01266  5528.00714   4422.13008  0.20816         5797.05677     20.59405  0.21816  58192.39363  2.94445  7.96941     1884342.75298  43.80756  18.39278  58266.38152    51.18832       44.27776   32.33268   73.35298   91.5    0.07134  -20.68155  0.07688 
   -9.97421  0.08453   4.13822     13.54379  1.77333  1.10032    5.5994  0.03649     0.02311  5687.74914   4527.65747  0.90449         3225.32374     20.75181  0.31371  58192.32929  1.08056  0.47334    23049244.10295  43.92135  18.34636  58264.38858    50.94613       43.93914   42.18217   95.17586   88.5    0.04799  -20.73725  0.95154 
   -9.52146  0.26402   3.49172     13.35326  1.40395   1.2555   8.64169  0.03116     0.01329  6037.31722   7941.81956  1.22113         2606.41116     20.85648  0.39921  58192.78204  1.87894   2.2816    31240983.80229  43.83539  18.39232  58270.40523     51.1527       44.26292   27.04566   74.08048   80.0    0.05218  -20.84775  0.79939 
  -10.86916  0.04908   4.08601      13.6169  1.71738  0.73218   6.61249  0.03581     0.02194   5876.5865   4130.76154   0.9874         3047.55417     20.55595  0.19984  58191.43434  1.36221  0.32452     15541106.2586  44.08963  18.36954   58271.1743    51.10794       44.16004   31.63663   83.62032   88.5     0.0509  -20.65955  0.96437 
  -11.93166  0.27134   3.88216     13.67517  1.76202  1.32574   7.00154  0.04518     0.02023  5380.33926   8410.78176  0.46745         3356.86202      21.0432  0.61366  58190.37184  1.20904  1.89981    11005956.53059  44.29508  18.39504  58264.38858     51.1826       44.24392   38.63648   75.86627   84.0    0.06237  -21.02895  0.86142 
  -11.53327  0.00127   2.87336     13.58676  1.65309  0.80025   8.26414  0.03033     0.01066   5404.2088   8375.13046   1.2542         2307.91776      21.1556  0.79493  58190.77023  1.43976  0.01048      8499110.6848  44.64099  18.41866  58264.33024    50.93977       43.91096   37.93154  105.45543   78.5    0.04902  -21.20592  0.99945 
  -10.77394   0.4888   4.86031     13.72934  1.52113  0.88337  10.04639   0.0356     0.01378  5787.51863   7778.94344  0.49409         3141.63777     20.86266  0.40494  58191.52956  2.00735  4.91066    11604534.47497  44.01306  18.40591  58261.34585    51.02581       44.04228   35.29515   90.73414   81.5    0.06215  -20.85408  0.54029 
  -10.79388  0.06568   3.74102     13.83397  1.68877  0.67277   7.25193  0.03563     0.02265  5949.54674   7743.18228  0.46546         2188.25757     20.97878  0.52906  58191.50962  1.53126  0.47634     4714448.54436    44.677  18.37673  58266.28516    51.28389       44.39033   34.06271   68.75634   81.0    0.06382  -20.97446  0.96156 
   -8.83933  0.04708   2.49167     13.29265  1.40267  0.54471   4.69062  0.02848     0.01617  6165.83248   7966.91754  0.89323         2706.93123     20.69303    0.274  58193.46417  1.06375  0.22085    21011360.62367  44.30037  18.42159    58269.172    51.11315       44.17031   33.17685    82.0663   78.5    0.06233  -20.75725  0.98472 
  -11.60579   0.0016   3.73822     13.55845  1.90415  0.97251   6.31558  0.03256     0.01279  5610.47757   7714.53464  0.54346         3101.85162     20.86243  0.40472  58190.69771  1.18588   0.0101    18877334.92813  44.12728  18.41321    58269.172    51.34191       44.49042   29.70379   63.59435   79.5    0.05629  -20.86859  0.99921 
   -9.84197  0.36654   2.66231     13.22626  1.52325  1.39633   6.02427  0.03012     0.01204  5749.52935   8647.38861  0.86661         3019.40851     21.09996  0.69934  58192.46153  1.18795  2.20815    35365305.04055  44.05252  18.40011  58269.35938    51.25247       44.33243   35.10557   75.62263   76.0     0.0557  -21.16922  0.88699 
  -10.31048  0.34851   5.28371     13.77807  1.79789  1.15631  12.91884  0.02441     0.01291   6218.5493   7753.03564  0.21773         3836.92752      20.8926  0.43384  58191.99302  2.98009   4.5024    12951633.63974  43.96541  18.41249   58272.2185    51.25379       44.38488   27.88471   68.97277   80.5    0.06276  -20.91365  0.58648 
   -9.22755  0.49099   3.36387     13.65675  1.31093  0.92168   8.68993  0.01779     0.01872  5639.88858   8561.93226  0.11441         3239.82824     21.03252  0.59875  58193.07595  1.64886  4.26668     6692360.08033  44.50717  18.41431  58266.38152    51.20025       44.28997   34.06271   71.62295   78.5    0.04569  -21.00557  0.70693 
   -14.0045  0.00993   4.77201     13.55736  2.01376  1.32994   8.36709   0.0439     0.01815  5670.10224   3656.42601  0.93973         3078.90969     20.10743  0.07115    58188.299  1.60466  0.08305    32696969.09727  43.70094  18.41227  58263.27344    50.90279       43.91477   34.15907   93.40959   92.0    0.06006  -20.54223  0.98977 
   -9.57509  0.39819   4.21807     13.61847  1.73834  0.95255   8.99413  0.03175     0.01434  6006.35943   8678.54734  1.57634         2386.10693     20.95987  0.50652  58192.72841  1.93557  3.58141    16643555.51915  44.03751  18.40828  58270.40523    51.04698       44.12699   26.27046   81.33671   74.5    0.04789  -20.95329  0.71372 
   -9.40947  0.46397   4.48642     13.04405  1.60002  0.56171   13.7043  0.04263      0.0205  6601.88343    7193.5522  0.11577          4012.9096     19.99084   0.0544  58192.89403  3.56303  6.35844   244140094.81263  42.78153   18.3841   58272.2185    51.27862       44.43433   24.52244   66.94503   93.5    0.08164  -20.55646  0.14684 
   -11.0209  0.38605   4.41753     13.65935   1.7317  1.52591  10.57613  0.03122     0.01383  5932.85918   7766.56372  0.47777           3340.597     21.00501    0.562   58191.2826  2.22066   4.0829    15064038.43376  44.03902  18.39553  58261.34585    51.04855       44.06397   38.63648   87.16942   83.0    0.06223  -21.02527  0.67999 
   -8.73365  0.00882   3.64821     13.65952  1.76099  1.05931   5.49091  0.01718     0.02356  6063.44761    7694.4411  0.05946         2527.90886     20.98512  0.53684  58193.56985  1.20423  0.04846    10439552.11304  44.37176   18.4194  58263.28906    50.98504       44.01904   32.44846   92.48381   76.5    0.05356  -20.99685  0.99633 
  -11.40287  0.03813   3.74805     13.79371   1.9707  0.84637   5.56325  0.04599     0.01837  5155.61317   8197.71012  1.25498         2258.31234     21.06364  0.64323  58190.90063   0.8821  0.21215     6647034.78962  44.59323  18.38162  58269.35938    51.01173       44.05243   32.31192   86.32545   82.0    0.05486  -21.02806  0.98596 
  -11.68653  0.08067   2.50972     13.38469  1.17707  1.30666  12.94013  0.01622     0.01066  5542.27122   8417.64375  0.16511         3847.68506     21.10718  0.71106  58190.61697  2.37105  1.04386    11708359.71946   44.4719  18.39408    58269.172    51.16609       44.25692   33.27199   74.81983   78.0     0.0507  -21.12979  0.93725 
   -9.42932  0.45539   4.50161     13.04772  1.52445  0.47179  16.18822  0.03551     0.01251  6422.69329   7474.34594  0.23045         4173.52567     20.44289  0.15403  58192.87418  3.98346   7.3719   230262043.48685    42.783  18.42651  58264.38858    51.00611       43.99831   38.63648    95.8192   84.5    0.07533  -20.66049  0.10031 
  -11.57564  0.33127   4.08218       13.635  1.72625   1.3147   6.90598  0.03495     0.01754  5834.38299   7965.03891  0.11855         3302.81795      20.9356  0.47899  58190.72786   1.4023  2.28774     14345015.6379  44.12746   18.3973  58267.31463    51.01036       44.00996   38.63648   90.54642   75.0    0.05658  -20.94124  0.81527 
  -10.11244  0.35448   5.95641     14.13086   1.9493  0.46563  14.26649  0.02065     0.01052  6003.62679    7690.9046  0.19951         3672.01198     20.83524  0.38017  58192.19106  3.06741  5.05724     3515097.86827  44.46282  18.45469  58270.40523    51.05654        44.1013   31.65774   86.53126   79.5    0.05378  -20.85071  0.52382 
  -10.44722  0.20649    3.6308     13.74038  1.68322  0.92885    9.1605  0.02113     0.01607  5760.16795   7922.93579  0.19771         2973.36372     21.05215  0.62644  58191.85628  1.81308  1.89159     6810875.38493  44.54178  18.39994   58272.2185     51.0769        44.1193    28.0353   88.98781   80.5    0.05077  -21.04938  0.87063 
   -8.85506  0.40435   6.36825     14.05394  1.90763  0.88664   12.3874  0.02011     0.01519  5601.61294   4201.31991  0.26638         2902.16129     20.79338  0.34523  58193.44844  2.31864  5.00881     5603709.58499  44.19282  18.44614  58263.27344    51.16562       44.27132   30.71843   71.58956   88.5    0.06147  -20.75261  0.50044 
   -9.87483  0.06328   2.82076     13.29281  1.41798  1.20718   4.47781  0.03328     0.01966  5966.38221   8088.49691  0.95967         2014.41099     20.96123  0.50811  58192.42867  0.95086  0.28334    27202164.92538  44.08518  18.35802  58270.40523    51.02428       44.04629   28.93309    91.0184   74.0    0.05586  -20.97886  0.98072 
  -10.32947  0.48578   3.33615     13.65337  1.55186  1.06938   7.79424  0.03903     0.01928  5688.45854   8566.46727  1.12268         2113.87975     21.12866  0.74712  58191.97403  1.50449  3.78626     7914278.48456   44.5148  18.41842   58271.1743    51.24645       44.38751   27.11616   67.65866   80.5    0.05808  -21.16847  0.77995 
  -10.62318  0.43385   9.38685     13.99971  1.74137  1.51683  15.12988  0.03367     0.01729  5423.38929   3833.87439    0.762         3800.08869     20.73121  0.29918  58191.68032  2.65463  6.56413    14266499.27223  43.41038  18.40123  58261.34585    50.92962       43.95628   35.25015   91.75988   99.5    0.07253  -20.72371  0.22885 
  -11.54629  0.00138   3.60536     13.51507   1.6875  1.08323   7.13875  0.03252      0.0135  5694.38148   7555.50628  0.90318         2421.13567      20.8485  0.39194  58190.75721  1.38084  0.00984    19003175.99833  44.10337  18.36409   58271.1743    51.16927       44.25681   31.63663   77.45038   81.0    0.05444  -20.85446  0.99916 
    -10.118  0.43838   6.44796      13.7673  1.63512  1.26698  14.54226  0.02117      0.0119  6290.77803   7902.46108  0.05034         3618.60225      20.7855  0.33902   58192.1855  3.43295  6.37499    18433449.92015  43.59794  18.38451  58273.28341    51.30884       44.43455   29.00024   69.50717   77.5    0.05435  -20.80652  0.36202 
   -10.6917  0.07155   3.23313     13.53872  1.67389  1.02373   4.97686  0.02552     0.01831  5593.23912   8013.35843  0.27998         3345.15901     21.03698  0.60493   58191.6118  0.92877  0.35607    13594312.69572  44.33997  18.41284  58270.40523    51.18272       44.24053   35.77331   79.48364   76.5    0.05265  -21.05585  0.97688 
  -11.46235  0.00156   3.69116     13.66593  1.69242   0.7885   3.65134  0.05419     0.03714  6165.60769   7768.93689  0.09195         3246.84999      20.9015  0.44282  58190.84115    0.828  0.00569     9972246.22264  44.36423  18.42717  58264.38858    51.08372       44.13217   35.10557   83.53179   78.5    0.05327   -20.9191  0.99951 
  -11.11158  0.09282   3.49272     13.65347   1.6607  0.88019   6.61988  0.02468     0.01977  5923.95779   7980.61868  0.05838         2454.01801     20.99219  0.54566  58191.19192   1.3858  0.61443      9279013.5334  44.43531     18.41    58269.172    51.20486       44.32294   30.02238   69.54896   76.0     0.0496  -21.00953  0.95492 
  -11.06226  0.02073   3.75495     13.74951  2.00945   1.0255   9.78784  0.02096     0.01196  5439.81437   8114.61519  0.35491         3358.41614     21.08932  0.68242  58191.24124  1.72776  0.20293     8338265.55122  44.50164  18.46132  58269.35938    51.03411        44.0692   32.65877   87.29273   81.0    0.05128  -21.09117  0.98693 
   -9.10022  0.36234  10.10064     14.05582  1.79075  0.82671  18.80878  0.02109        0.01  5835.96556   4399.41143  0.68484         2849.73902     20.60584  0.22417  58193.20328  3.82132  6.81514    13118930.86495  43.39528  18.40399  58261.34585    51.34643       44.43595   36.86439   71.22742   86.5    0.06511  -20.65623  0.19331 
  -11.01291  0.47926   2.66846      13.2312  1.45809  1.27187   5.75761  0.03952     0.01098  5272.60556   8926.12933  0.84836         3492.03181     21.10438   0.7065  58191.29059  0.95482  2.75941    33244196.45042  44.05839  18.39861  58272.40902    51.40794       44.59706    26.5339   56.98995   76.0    0.05689   -21.1493  0.85475 
   -9.40237  0.45162   5.42056     13.97105  1.87372  0.58493   9.47208  0.02645     0.01747  6540.13043   7738.97274  0.10361         2683.68774     20.83855  0.38307  58192.90113  2.41682  4.27777     5841293.64737  44.30695  18.39325  58270.27344    51.07748       44.14667   30.54734   81.18074   78.0    0.05306  -20.86906  0.59435 
   -9.10852  0.43981    4.9409     13.73098  2.02732  1.07709   8.68012  0.02788     0.01563  6327.06935   8029.05319  0.47081         2561.89084     20.93119  0.47416  58193.19498   2.0728  3.81764    15863504.84172  43.98776   18.4032   58271.1743    51.07097       44.12827   28.08954   85.55316   75.0    0.04918  -20.95428  0.68657 
  -10.25462  0.33821   4.51894     13.63085  1.89915  1.51063   8.15222  0.02745      0.0129  5432.43272   7999.24609  0.64036         2913.26662     20.88893  0.43019  58192.04888  1.43513  2.75714    19712513.54274  43.94259  18.39445    58269.172    51.13027       44.17073   35.10557   84.69767   80.0    0.04734  -20.86958   0.7685 
   -8.70453  0.47388    9.5573     13.99449  1.73442  1.04349  15.69748  0.01914     0.01022  5711.94033   4350.90244  0.39137         3437.37836     20.70163  0.27949  58193.59897  3.05509  7.43865    15088786.95691  43.36868  18.41547  58270.27344    51.03343       44.04686   32.44846   94.56157   84.5    0.05451  -20.71076  0.19413 
  -11.80632  0.02763   3.81465     13.69687  1.72471   1.0159   8.18741  0.02638     0.01678  5503.20247   8028.15482   0.1072         3280.91108     20.92504  0.46749  58190.49718  1.47912  0.22621     9412252.13446  44.36896  18.38827  58267.31463    51.11602       44.15897   36.86439   81.77297   80.5    0.05373  -20.89044   0.9811 
  -12.73038  0.00137   3.79326     13.57005  1.83252  1.12076   3.54688  0.05615     0.02696  5521.92501   7925.42553  0.33627         3051.27643     20.89612  0.43737  58189.57312  0.64514  0.00487    17733301.80367  44.12508  18.42176  58270.27344    51.09467       44.14793    34.9483   82.12147   78.0    0.05341  -20.86868   0.9996 
  -12.01268  0.30159   3.56675     13.54868  1.61992  0.85734   8.32741  0.03437     0.01028  5460.84113   7991.91527  0.62346         3569.48978     20.98151   0.5324  58190.29082  1.48134  2.51149     15292907.4325   44.1893  18.42268    58269.172    51.14669       44.25086   30.54734   70.63825   80.5    0.05744  -20.98398  0.81652 
  -10.98056  0.49232   4.85781     13.58346  1.85456  1.10039   7.80851  0.04704     0.01456  5734.61053   7694.75317  0.64351         3731.15938     20.80468  0.35433  58191.32294   1.5318   3.8443    27670412.76115  43.72219  18.40563  58267.31463    51.13962       44.18647   35.10557   83.53179   83.5    0.06013  -20.81757  0.64262 
  -10.35924   0.3784   3.43908      13.6228  1.75727  0.99896  10.66868  0.02381     0.01026   5406.8962   9704.20548  1.75901         2127.40546     21.15445  0.79282  58191.94426  1.86052  4.03697    10963370.64822  44.40086   18.3607  58273.28341    51.34129       44.50406   26.16907   63.46805   71.5    0.03888  -21.19296  0.78313 
    -9.4319  0.23628   4.14242     13.57107   1.9707  1.44631   5.50375  0.03156     0.01954  6018.04097   7943.94483  0.59952          2686.6083      20.9133  0.45501   58192.8716  1.18904  1.30043    22636263.71883  43.97415  18.37488  58270.27344    51.18139       44.26985   33.27199   74.81983   77.0    0.04968  -20.92706  0.89613 
  -11.29793  0.11114   3.09315     13.67134  1.47122  0.67085   5.22443  0.03805     0.02466  5672.93199   8514.04223  0.32222          2642.0772     21.03203  0.59808  58191.00557  1.00295  0.58065     5937649.46523  44.68211  18.44692  58266.28516     50.9723       43.99033    31.5626   96.00606   76.5     0.0474   -21.0462  0.96004 
  -12.57368  0.00651   3.82573     13.73258  2.06114  1.15121   7.30327  0.03156     0.01456  5405.72268   8187.93895   0.1627         3429.55093     21.05105  0.62485  58189.72982  1.27307  0.04757     9598097.68305  44.43534  18.40156   58271.1743    51.17067       44.28065   26.16907   75.01652   77.0    0.05284  -21.05429   0.9969 
   -8.40519  0.00208    3.5014     13.61078  1.76871  0.97635   5.81366  0.02086     0.01521  5684.91697   8262.37689  0.47239         3173.15279     21.00788  0.56573  58193.89831  1.12079  0.01209    12089403.62799  44.34561  18.38211   58271.1743     51.0405        44.0733   31.63663   88.16661   72.5    0.05329  -21.01159  0.99914 
  -10.09293  0.35692   4.82688     13.64633  1.71279  0.82485   8.11539  0.03584     0.01581  6245.50127    7450.8922  0.45951         2646.73862     20.54367  0.19427  58192.21057   1.8883  2.89658    18888202.63193  43.85903  18.39547   58271.1743    51.15732       44.23704   33.17685   76.04457   79.5    0.05512  -20.67142  0.68372 
   -9.19326  0.38038   9.93475     14.02394  1.80356  1.43673  16.64489  0.02018     0.01587  5810.04693   3798.89441  0.21013         3680.59117     20.57664  0.20959  58193.11024  3.35172   6.3314    14804053.97721  43.36028  18.40231  58264.33024    50.91638       43.90877   42.18217     94.362   92.5    0.06484  -20.62859  0.22322 
  -11.23836  0.00577   2.77062     13.39704  1.47462  1.38953   6.42029  0.02917     0.01635  5841.92626   8797.48004    0.384          2745.4441      21.1127  0.72016  58191.06514  1.30706  0.03708    16887458.86111  44.32481  18.45372  58267.31463    50.95331       43.93214   35.10557  101.98649   71.5    0.05226  -21.17656  0.99785 
  -10.32862   0.1035   3.44755     13.51593  1.71629  1.12572   5.96986  0.03233     0.01646  5794.09072   8065.64771  0.83401         2414.46991     20.99759  0.55247  58191.97488  1.19553   0.6179     17602129.1071  44.18285  18.37944  58273.28341    51.15318       44.29022   19.06122   75.84867   77.0     0.0509  -21.00138  0.95604 
   -9.81228  0.09494   4.07327     13.43681  1.65499  1.14359   7.38698  0.03233     0.01162  5117.02026   4303.91487  1.07947         3545.67015     20.38826  0.13583  58192.49122  1.15379  0.70133    34109835.04803  43.73488  18.38945  58273.28341    51.21077       44.34462    26.1158   70.74167   86.5    0.05322  -20.55702   0.9201 
   -9.94346  0.10527   3.49789     13.72145   1.7521  0.73758   6.81542  0.03752     0.01677  5783.81271   7812.90397  1.71507         2186.45401     21.05941    0.637  58192.36004  1.36003  0.71748     7179258.04098  44.56871  18.42514  58266.38152    51.07851       44.17043   30.60644   77.48538   81.0    0.05268  -21.08303  0.95123 
  -10.27267  0.18796   3.77805     13.89426  1.82596  0.67775  11.29993  0.01828     0.01314  5858.80914   8244.25878  0.19428         2905.75336     21.07877  0.66603  58192.03083  2.31378  2.12393     3938428.72034  44.78048  18.41424  58269.35938    51.13159       44.19354   31.63663   81.92785   76.0    0.05193  -21.09757  0.86231 
   -9.93009  0.44013   3.20572     12.40428  1.73909  1.55239   14.2438  0.04472     0.01367  6239.92899   6908.17027  0.31942          3835.4105     19.82504  0.03713  58192.37341  3.30836  6.26912  2578879149.78385  42.08589  18.40358  58263.28906    50.97958       44.02211   34.17596   89.73417   87.5    0.07809  -20.52618  0.11976 
   -8.92466  0.49913   8.90323     13.61774  1.74477  1.18658  13.03852  0.03346     0.01749  5906.01096   4102.88622  0.46068         3820.10033     20.42689  0.14846  58193.37884  2.71296  6.50791    74672492.62711  42.73833  18.44479  58269.35938    51.00699        43.9983   35.10557   97.04865   93.0    0.06826  -20.59306  0.17949 
  -11.84739  0.32762   3.64824     13.56668  1.50352  1.35989    10.198   0.0294     0.01479  5966.31525   7902.40616  0.31014         3155.38919     21.04465  0.61571  58190.45611  2.16548  3.34103    13668747.07131  44.18606  18.39763  58267.31463    51.14536        44.2355   31.63663   76.45519   80.0    0.06006  -21.06335  0.75727 
  -11.64915  0.00124   3.68629     13.54379  1.79915  1.29321   3.99353  0.05364     0.02393  5838.77492   7837.98768  0.25936         2369.63976     20.89631  0.43756  58190.65435  0.81213  0.00496    18555966.83537  44.12225  18.41457  58269.35938    51.04114       44.06178   34.15907    89.2061   75.0    0.05981  -20.92286  0.99961 
   -9.23989  0.25627   3.74685     13.74005   1.5698  0.67282  10.79498  0.01756     0.01159  6067.08596   7908.74456  0.28633         2663.46158     20.96989  0.51835  58193.06361  2.37033  2.76644     6774653.63539  44.48647  18.41788     58265.95    51.09739       44.18056   31.63663   79.09157   74.5      0.049  -20.99358  0.78823 
  -10.51261  0.29433   3.59894     13.64001  1.68713   1.1973    7.8979  0.03235     0.01945  6083.02046   8238.57114  0.34645         2864.46857     21.09424  0.69019  58191.79089  1.74332  2.32462    10648438.89377  44.35636  18.37524  58263.28906     50.9495       43.95467   39.54579   94.90989   77.5    0.05418  -21.13738  0.84675 
   -9.08384  0.00169   3.28376     13.48937  1.51174  0.89763   8.40127  0.01231     0.01222  5930.49026    8078.3719  0.30888         3111.41379     20.88558  0.42688  58193.21966   1.7626   0.0142    15896181.02539  44.21429  18.39998  58270.27344    51.26041       44.37332   32.33268   70.48637   74.5    0.05338  -20.88139  0.99882 
  -10.66338  0.02777   3.70792     13.58651  1.59844  1.31486  12.78293  0.01672     0.01104  5308.31545   8345.01006  0.37635         4429.59917     20.94967  0.49477  58191.64012  2.14868  0.35493    13701058.91853  44.19753  18.40115  58269.35938    51.14404       44.21044   33.17897   79.07058   85.0    0.05894  -20.91302  0.96874 
   -9.79715  0.30222   4.10753     13.52022  1.37981  1.24235   6.29068  0.03884     0.02716  5612.06262   4151.04575  0.40802         3936.60272     20.69207   0.2734  58192.50635  1.18187   1.9012    19695400.56018  43.88714  18.39694  58270.27344    51.14035        44.2292   30.60644   77.48538   91.0     0.0603  -20.71087   0.7843 
   -9.97501  0.49805   5.99737     13.98461  1.84544  0.66974   9.94265  0.03622      0.0185  6371.73961   7449.04738   0.4638         2767.82477     20.84582  0.38953  58192.32849  2.40794  4.95195     6616240.69623  44.15841  18.43161  58267.31463    51.01688       44.07962   30.02238   87.00073   82.5     0.0634  -20.85134   0.5065 
   -9.82082  0.00528   3.26711     13.48947  1.66924   0.9656   6.66179  0.02172      0.0136  5637.55306    8211.2086  0.74173         2863.23334     20.99205  0.54548  58192.48268  1.26299  0.03521     17366810.9236  44.22332  18.39496  58267.31463    51.16863       44.25227   34.27302   76.45519   78.5    0.04828  -20.97469  0.99749 
  -11.65654  0.27541   2.72623     13.62075  1.43001  0.97046  11.10494  0.02062     0.01161  5585.98367   8541.48067  0.08709         2310.01682     21.15445  0.79283  58190.64696  2.06701  3.05841     5659479.25197  44.80028  18.39127  58264.38858    50.93993       43.97045   35.25015    88.9415   75.5    0.04825  -21.22488  0.85526 
  -10.10676  0.12668   3.07417      13.3746  1.28915  1.13366  10.83247   0.0245     0.01008  5699.06291   8049.99402  0.82612         3170.87112     20.96975  0.51817  58192.19674  2.09875  1.37222    20154639.19974  44.09932  18.40903  58269.35938     51.1984        44.2724    34.1136   77.61449   80.0    0.05543  -20.96597  0.88931 
   -9.65393  0.01485   3.77764     13.55922  1.82985  1.44392   6.83704  0.01824     0.01314   5002.1829   4212.67233   0.5356         3926.20785     20.96272  0.50986  58192.64957   1.0205  0.10152    18459686.53537  44.11059    18.364  58263.27734    50.88343       43.90648   37.02223   90.54642   88.0    0.04323   -20.9135  0.99195 
   -9.42681   0.4759   4.87626     14.09893  1.85712  0.42086   9.34267  0.03257     0.01284  5642.91907   8114.78914  1.35924          2586.7243     20.98318  0.53445  58192.87669  1.77462  4.44614     2599991.41805  44.74654  18.37532  58269.33594    51.24694       44.41407   26.27046   61.91808   80.5    0.05816  -20.95282  0.63839 
   -9.52698  0.11749   3.70421     13.63008   1.6841  1.34163  10.06192  0.01793     0.01162  5575.09312   7977.74381  0.20092         3372.10877     20.97315  0.52224  58192.77652  1.86557  1.18222    11787500.65959   44.2864  18.41863  58264.38858    51.05166       44.08096   38.63648   85.27365   76.0    0.05221  -20.96859  0.91086 
  -10.54648  0.01713    3.3988     13.65907  1.72429  0.76097   6.12883  0.02724     0.01757  5835.55729   8063.81893   0.4385         2613.04929     21.03044  0.59589  58191.75702    1.245  0.10498      8890715.5041  44.49387  18.39459  58267.31463    51.29632       44.44067   33.24283    62.6917   76.5    0.05088  -21.03266  0.99266 
   -9.06832  0.49522   6.72574     13.87298  1.90409  1.02071   10.1752  0.02446     0.01731  6225.96761   7927.99801  0.08967         4939.50151     20.70583   0.2822  58193.23518  2.35279    5.039    14355503.92457  43.73603  18.40723  58270.27344    51.17175       44.23492   34.27302   79.09157   79.5    0.05093  -20.74804  0.45151 
  -10.61648  0.33823   3.53652     13.59634  1.53318  0.81933   5.14448  0.03694     0.02413  6046.22209   7635.38496  0.39501         2281.47502     20.94679  0.49149  58191.68702  1.12185  1.74002    11425800.53376   44.2994  18.42639  58267.31463    51.26384       44.37534   33.27199   69.54706   78.5    0.04913  -20.95264  0.86216 
   -9.10408  0.48123   8.57686     14.11535  1.82275  0.93796  15.76628  0.01897     0.01323  6248.89952   7667.79358  0.24277         2647.14506     20.86491  0.40704  58193.19942  3.67252  7.58728     7319784.48836  43.79842  18.38419  58269.35938    51.14321       44.21651   33.17685   77.79839   83.5    0.05885  -20.81857  0.25157 
  -10.44302  0.01055   3.92957     13.68067  1.80347  0.93854   4.12917  0.05171     0.03407  5879.91702   8168.03673  0.49034         2835.58884     20.91904  0.46107  58191.86048  0.85159  0.04357    11253291.11393  44.28499  18.41204    58269.172    50.97659       43.95877   35.77331  100.70548   80.0    0.05328  -20.91238  0.99621 
   -9.76905  0.46351  12.20908      14.0324  1.92326   0.3574  17.44413  0.04183     0.01531  6936.31162    7456.7757  0.54667         3112.11569     20.63879  0.24184  58192.53445  5.00649  8.08559    22930272.43714  43.01911  18.42484  58266.38152    51.18426       44.27025   30.02238   77.58479   86.5    0.07554  -20.77559  0.06649 
  -11.06503  0.06695   4.18263     13.67901  2.02421  1.31366    9.4946  0.01646     0.01248  5984.69459   8006.54305  0.00468         3092.62468     20.94869  0.49365  58191.23847  2.02856  0.63568    14419225.90428  44.17326   18.4422  58261.34585     51.0181       44.04799   32.65877   91.54669   73.5    0.05472   -20.9555  0.95006 
  -10.61466  0.13061    3.1684     13.41406  1.45705  1.02964    5.4027  0.03637     0.02058  6157.31442   7835.77984   0.2812         2981.16094     20.92041  0.46253  58191.68884  1.22186  0.70566    20177024.03864  44.12578  18.42231  58269.35938    50.96493       43.92203    36.9094  105.45543   77.5    0.05298  -20.95288  0.94505 
  -12.23286  0.35357   4.13884     13.77346  1.89148  0.88122   8.85188  0.04066     0.01186  5192.11198     8682.573   0.9033         3251.57937     21.07056  0.65356  58190.07064  1.42348  3.12976     8540075.73224  44.38043  18.40753  58269.35938    51.29625       44.39307   34.96059   70.49484   81.0    0.06262  -21.07901  0.78296 
   -9.59727   0.3218    3.9102      13.7328  1.57102   0.9004   9.19117  0.02644     0.01338  5223.82884   4815.67275  0.77859         3190.56287     21.02105  0.58314  58192.70623  1.49615  2.95775     7634687.11119  44.39784   18.3831  58272.40902    51.14258       44.20212   30.54734   82.20513   92.5    0.06149  -20.96008   0.7681 
   -9.39285  0.02906   4.09044     13.80596  2.09857  0.50335   9.74359  0.01499     0.01085  6521.48587   7901.85787  0.29549         2360.02082     20.73173  0.29954  58192.91065  2.47195  0.28313     7968022.27281  44.46588  18.40076  58266.38152    51.29219       44.41182   33.17685   67.00582   74.0    0.06018  -20.81983   0.9762 
  -11.00308  0.29125   3.89389     13.78332   1.9152  0.90418   7.06347  0.02353     0.01456   5310.4943    8499.6647  0.30308          2996.0381     21.04135  0.61105  58191.30042  1.18827  2.05721     7313914.21525  44.50614  18.42606  58263.28906    50.98767       43.97243   39.54579   99.56313   74.5    0.04504  -21.02554   0.8655 
   -8.32705  0.42065  10.50741     13.64895  1.45245  0.52972  18.13576  0.02828     0.01227  6446.64946   7173.31673  0.44292         3560.67785     20.57645   0.2095  58193.97645  4.49605  7.62876    74991650.91016  42.51294  18.39257    58269.172    51.06482       44.11058   35.10557   81.16694   89.5    0.08053  -20.67806  0.05189 
    -9.7013  0.48334   3.83107     13.50891  1.53601  1.22008  11.07276  0.02384     0.01007  6238.40239   8429.35369  0.72584         2141.60956     21.01511  0.57523   58192.6022  2.57057  5.35195    20091963.06797  43.98558  18.40478    58269.172    51.04306       44.11237   30.54734   83.88604   69.0    0.05299    -21.061  0.63262 
  -10.01832  0.01403     2.865      13.5079  1.62401  1.01828   8.58157  0.01816     0.01089  5684.13305   8621.14199  0.81093         2192.59771     21.13233  0.75345  58192.28518  1.65395  0.12038    11935870.09859  44.48833  18.38822   58272.2185    51.22169       44.33248    26.5339   74.59224   73.5    0.04843  -21.19728  0.99357 
   -9.99377  0.30102   3.33466     13.43594  1.62302  1.33596   7.50178  0.03175     0.01143  5387.59563   8271.17642  1.50536         2545.56253     21.04832  0.62094  58192.30973  1.29892  2.25818    22509018.13506  44.08071  18.38557  58269.35938    51.10272        44.1685   30.60644   81.12164   79.5    0.04742  -21.04097  0.85268 
  -11.21991  0.23963   5.06323     13.80387  1.93097  1.11737  11.57426   0.0274     0.01439  5546.75039   4335.46664  0.46726         3442.00565      20.8944  0.43564  58191.08359  2.12421  2.77351    11342521.03696  44.09105  18.38678   58272.2185    51.19538       44.30666   27.11616   74.00998   91.0    0.06417  -20.85347  0.73748 
   -9.59076  0.32955   3.96144     13.64941  1.84708  1.32425   8.84854  0.02425     0.01128  5655.32201    8448.3117  1.20734         2225.43533     21.05036  0.62386  58192.71274  1.68816    2.916    13526335.58167  44.20844  18.41823    58269.172     51.2526       44.37881   30.54734   66.99893   72.5    0.04638  -21.04729  0.80325 
   -8.63501  0.39628   4.18349     13.54594  1.71626  1.20064   4.19033  0.04837     0.02346  5355.17071   4495.51517  1.95291         2554.98116     20.81882  0.36606  58193.66849  0.71684  1.66056    22573635.43385  43.90675  18.43584     58265.94    50.96861       43.99737   33.34634   92.66466   87.0    0.04481  -20.75777  0.84217 
  -10.91199  0.27403   2.81799     13.50979  1.45783  1.22749   9.67038  0.03446     0.01336  5044.13752      9695.57  1.31522         2736.00285     21.19723  0.87489  58191.39151  1.46772  2.64994    10275723.73594  44.52086  18.38086    58269.172    51.21588       44.26427   35.77331   79.48364   86.0    0.05999  -21.26755  0.86523 
  -12.28418  0.46933   3.16712     13.69897  1.85077  1.13074    6.3613  0.03085     0.01487  5303.83211   8627.28629  0.09774          2523.1313     21.16317   0.8089  58190.01932  1.06746  2.98556     6895319.41996  44.69631  18.38513    58269.172    51.06526       44.14199   28.08954   82.02429   72.5    0.04956  -21.22711  0.86749 
  -10.11476  0.36472   3.51686     13.72004  1.41056  0.49878   5.72963  0.03638     0.02109  6292.42757   7689.37959  0.13549         2794.24303     20.88087  0.42228  58192.18874  1.35329  2.08969     5880782.35207  44.55649  18.38119   58271.1743    51.10975        44.1791   30.02238   81.89101   76.0    0.05443  -20.89394  0.81986 
   -9.53205  0.17779   4.40609     13.60234  1.89333  1.35126   8.99964  0.01938     0.01379  5979.39535   8035.87037  0.38286         2978.91601     20.83661  0.38136  58192.77145  1.91941  1.60004    21304173.62073   43.9295  18.41071   58271.1743    51.10341       44.16415   32.33268   82.17008   78.5    0.04813  -20.84319  0.85468 
  -10.01042   0.4328   3.96024      13.8545    1.781  0.47028   6.66465  0.03867      0.0155   5617.6749   8626.66666  1.08046         3072.98063     20.99596  0.55042  58192.29308  1.25464  2.88446     5069010.08567  44.61914  18.43426    58269.172    51.01398       44.08313   28.99219   85.66607   78.5    0.05009  -20.99778  0.78465 
   -8.71245  0.43675   3.85019     13.39512   1.6786  1.11057   9.50034  0.02213      0.0114  6323.63358   7669.10392  0.51839         2831.36027     20.88316  0.42451  58193.59105  2.26621  4.14925    37453338.63122  43.74934  18.44461     58265.95    51.07875       44.18658   28.93309   72.27171   78.5    0.04867  -20.89291  0.68264 
   -9.50199  0.42373   6.01565     13.58833  1.81176  1.09074  15.87528  0.02366     0.01061  6297.18711   7880.09877  0.47217         3031.49959     20.79876  0.34953  58192.80151  3.75527  6.72688    40533878.93081  43.36056   18.4107  58264.33024     51.1928       44.27874   34.96059   73.13123   84.0     0.0524  -20.80924  0.36954 
   -8.71773  0.09375   4.35785      13.6508  1.96667  1.12571   4.94723  0.03586     0.02118  5417.95808   4499.97764  1.85178         2414.71538      20.8399  0.38426  58193.58577  0.86629  0.46378     17317536.4952  44.04555  18.41324    58269.172    51.24159       44.39118   27.88471   63.68369   86.0    0.04236  -20.78315  0.95665 
   -11.5105  0.07128   4.68022     13.77843  1.86379  0.80791   8.66571  0.03768     0.02249  5856.41342    3906.1001  0.75396         2921.09171     20.72457  0.29465    58190.793  1.77294   0.6177     10516667.2172  44.17683  18.38741    58269.172    51.13339       44.23066   30.60644   74.84899   92.5    0.06739  -20.73261  0.93063 
   -8.61723  0.38574  12.10084     13.87347  1.79748  0.78315  18.11605  0.02948     0.01696  5948.78703   4003.29901  0.83786         3209.02023     20.46855  0.16341  58193.68627  3.82426  6.98806    43769474.80342  42.71671  18.40468  58267.31463    51.05708       44.10524   35.77331   82.86405   97.5    0.07159  -20.61395  0.10236 
   -9.45714  0.15214   5.07969     13.97527   1.9632   0.5604  11.50237  0.02543      0.0139  5570.88526   4002.01282  0.98154         3526.47974     20.81881  0.36604  58192.84636  2.12943  1.74997     5271338.96675  44.42821  18.39638  58265.26172    51.16065       44.27024   32.31192   68.87367   93.5    0.07007   -20.8056  0.81399 
  -11.88263  0.05909    3.4001     13.76215  1.86895  0.79277   7.62687  0.03557     0.01454   5261.9805   8805.54397   0.6121         3092.44661     21.11738  0.72796  58190.42087  1.25971  0.45065     5999222.50977  44.69937  18.39129  58270.27344    51.00162       43.98294    31.5626   96.00606   78.5    0.05444  -21.16729  0.97381 
  -10.43955  0.00408   3.63641     13.66875  1.73756  0.74747   4.02357  0.04985     0.02808  5823.56009    7790.1952  0.88156         2762.19255     20.96852  0.51672  58191.86395  0.81398  0.01642     9808269.80701  44.39585  18.38868    58269.172      51.067       44.10738   34.96059   83.67677   81.0    0.04985  -20.94434  0.99867 
  -10.98419  0.00446   2.76626     13.47947  1.55882  1.52322   8.15872  0.02316     0.01109  5136.01251   8637.99281   0.4428         3469.75536     21.16519  0.81268  58191.31931  1.28381  0.03637    12174528.80613   44.4924  18.36243  58270.40523    51.23106       44.28725   32.31192   81.21572   77.0    0.04704  -21.21076  0.99813 
  -10.18083  0.00555   3.07974     13.52023  1.71944  1.03502   8.40595  0.02609     0.01024  5315.29743   8589.40856  1.57479         2465.14027     21.11232  0.71953  58192.12267  1.41667  0.04666    13796477.97797  44.38744  18.37659     58265.94    51.08233       44.15306   33.17685   80.18774   80.0    0.04584  -21.14119   0.9973 
   -9.96458  0.06463   3.27622     13.57351  1.59058   1.2073  11.63435  0.01384     0.01173  5540.92739   9170.18717  0.24312         3469.66352     21.05857  0.63576  58192.33892  2.13076   0.7519     11300645.4043  44.38655  18.43471   58272.2185    51.25596       44.42874   23.61631   61.04058   73.5    0.04548  -21.05947  0.94957 
  -11.87476  0.04912   3.98067     13.70377  1.98637   1.3319  11.84557  0.02387     0.01191  5591.97992   8464.37541  0.74392         2393.30193      21.0414  0.61111  58190.42874   2.2096  0.58188    11435136.41711  44.30875  18.41918    58269.172     50.9056       43.82317   48.28039   110.5038   79.5    0.05825  -21.03027  0.95817 
   -8.93342  0.46335   5.89681     13.18878  1.62495  1.03877  13.99562  0.03368     0.01429   6379.0966   7083.67737  0.22483         3460.30358     20.26667  0.10266  58193.37008  3.39733  6.48485   219958335.93104  42.59611  18.40847  58270.40523     51.1101       44.14574   33.49132   86.46017   90.0    0.07343  -20.57207  0.18788 
   -9.28248  0.43073   4.56079     13.82148  1.85013  0.65431   4.50019  0.03614     0.02716  6202.08693   7472.19701  0.27716         2229.06577     20.79207  0.34419  58193.02102   1.0326  1.93836      8130895.8845  44.30783  18.38552  58263.27344    50.88733       43.86849   37.02223  100.45706   77.5    0.05127  -20.80581  0.81473 
  -10.50425  0.13193   3.46964     13.65077   1.9014  1.07562   3.41107  0.03428     0.02929  5817.94896    8142.9054  0.16076         2494.46798     21.08113  0.66967  58191.79925  0.68874  0.45001    10614931.53584  44.44143  18.37829     58265.94    51.14524       44.21477   34.27302   78.47945   73.0    0.05692  -21.12217  0.97308 
  -11.37027  0.12133   4.87682     13.87071  1.87757  0.83226  10.04204  0.03877     0.02553  5726.37043   3932.04906  1.49028         2430.56802     20.78628  0.33963  58190.93323   1.9643   1.2184     7520963.87878   44.2899  18.39017   58271.1743    51.20094       44.35916   21.81039   67.18852   99.5    0.07776  -20.79002  0.86899 
   -8.97278  0.43613  11.71758     14.12595  1.60993  0.85887   17.1238  0.02297     0.01283  5882.37352   4192.15651  0.41111          3836.0536     20.66229  0.25528  58193.33072  3.53454  7.46813    11491868.72985  43.27758  18.43673  58266.38152    51.22526       44.33314   34.06271   68.75634   90.5    0.06864  -20.69837   0.1256 
   -9.81273  0.17453   3.03781     13.27897  1.14524  1.09715   7.58075  0.02779      0.0158  6285.90371   7673.19204  0.16312         3119.16483     20.72311  0.29366  58192.49077   1.7868  1.32307    27158139.27893  43.92872  18.40879    58269.172     51.2942       44.43802   29.00024   63.27326   76.5    0.05498  -20.78628   0.8723 
  -10.62191  0.00165   3.64176     13.60926  1.81186  1.17014   6.06283  0.03823     0.01826  5725.20117    8144.4398   0.7318         2488.93627     21.00714  0.56476  58191.68159  1.18545  0.00998    13490890.36166  44.27431  18.37053  58263.28906     50.9138       43.92556   37.02223   93.18281   77.0    0.05319  -21.01026  0.99926 
   -9.43277  0.43575   9.29563     14.05563  1.85957   1.1628  15.52915  0.02428     0.01536  5709.64193   4204.67695   0.5431         3818.90355     20.78701   0.3402  58192.87073   3.0199  6.76675    11548566.13758  43.53917  18.39155    58269.172    51.06616       44.13045   32.31192   82.93123   96.5    0.06942  -20.74903  0.24487 
  -10.19913  0.43573   8.68573     14.03264  1.78293  0.93931  15.24024  0.02542     0.01295  6349.45414   7663.43772  0.14548         3463.20456     20.70633  0.28253  58192.10437  3.66515  6.64067    10746810.41888  43.61109  18.40379  58264.33024     50.9949       44.05083   32.33268   86.30469   83.0    0.06892  -20.74882  0.25868 
