# Wavelength Flux
# STATUS = PUBLIC
# OBJECT = 2019aamv
# TELESCOPE = P200
# INSTRUMENT =
# DATE-OBS = 2020.0225
# MJD =
# EXPTIME =
# SLIT =
# DISPERSER =
# SOURCE = 2023ApJ...943...41C
# FILTER =
# FLUX_STANDARD =
# EXTINCTION_CORRECTED = False
# PHOTOMETRY_CALIBRATED =
# FLUX_UNITS = erg/s/cm^2/Angstroms
# QUALITY =
# MIN_WAVE =
# MAX_WAVE =
# COMMENT =
3300.0 2.7452e-17
3301.535 1.3165e-16
3303.071 9.9063e-17
3304.606 1.0858e-16
3306.141 1.0183e-16
3307.677 1.2256e-16
3309.212 6.965e-17
3310.747 1.4249e-16
3312.282 2.45e-17
3313.818 -5.4601e-17
3315.353 5.9211e-17
3316.888 2.8546e-17
3318.424 4.1312e-17
3319.959 1.1159e-16
3321.494 5.3241e-17
3323.03 6.4968e-17
3324.565 2.5417e-17
3326.1 3.6445e-17
3327.636 5.3177e-17
3329.171 -1.6186e-17
3330.706 6.7974e-17
3332.242 -2.0521e-17
3333.777 2.199e-17
3335.312 7.0428e-17
3336.848 5.0308e-17
3338.383 4.9989e-17
3339.918 7.2317e-17
3341.454 9.2179e-17
3342.989 2.8198e-17
3344.524 6.3325e-17
3346.06 3.9377e-17
3347.595 8.2596e-17
3349.13 3.8725e-17
3350.666 5.7443e-17
3352.201 8.7472e-17
3353.736 6.9361e-17
3355.271 8.8078e-17
3356.807 1.0176e-16
3358.342 6.1726e-17
3359.877 1.2596e-16
3361.413 1.0986e-16
3362.948 7.2775e-17
3364.483 3.6091e-17
3366.019 9.0764e-17
3367.554 7.8049e-17
3369.089 1.0136e-16
3370.625 5.7778e-17
3372.16 7.7977e-17
3373.695 1.1354e-16
3375.23 5.7427e-17
3376.766 1.1008e-16
3378.301 8.3325e-17
3379.836 2.6473e-17
3381.372 7.5144e-17
3382.907 8.029e-17
3384.442 6.6364e-17
3385.978 1.1156e-16
3387.513 8.2017e-17
3389.048 7.2409e-17
3390.584 8.3992e-17
3392.119 5.3796e-17
3393.654 7.2994e-17
3395.19 8.1666e-17
3396.725 9.316e-17
3398.26 5.1705e-17
3399.796 6.7958e-17
3401.331 1.1134e-16
3402.866 1.0931e-16
3404.402 1.2242e-16
3405.937 9.9242e-17
3407.472 5.9892e-17
3409.008 7.7129e-17
3410.543 1.0028e-16
3412.078 8.1882e-17
3413.614 1.1533e-16
3415.149 1.2196e-16
3416.684 8.0029e-17
3418.219 1.4066e-16
3419.755 7.6708e-17
3421.29 8.609e-17
3422.825 1.4564e-16
3424.361 8.8382e-17
3425.896 9.3945e-17
3427.431 4.2884e-17
3428.967 8.2707e-17
3430.502 9.7754e-17
3432.037 5.8687e-17
3433.573 9.4734e-17
3435.108 1.2227e-16
3436.643 1.2218e-16
3438.178 7.3485e-17
3439.714 9.7952e-17
3441.249 9.3825e-17
3442.784 6.9373e-17
3444.32 8.9229e-17
3445.855 8.3629e-17
3447.39 4.4932e-17
3448.926 3.8207e-17
3450.461 3.4677e-17
3451.996 2.8348e-17
3453.532 2.9006e-17
3455.067 3.349e-17
3456.602 4.3795e-17
3458.138 5.6163e-17
3459.673 5.696e-18
3461.208 5.2998e-17
3462.744 8.1974e-17
3464.279 4.783e-17
3465.814 7.1244e-17
3467.35 6.53e-17
3468.885 9.2486e-17
3470.42 1.2019e-16
3471.956 7.7282e-17
3473.491 1.0279e-16
3475.026 6.8995e-17
3476.562 6.3555e-17
3478.097 2.6112e-17
3479.632 6.6696e-17
3481.167 8.8094e-17
3482.703 6.8314e-17
3484.238 7.3348e-17
3485.773 4.0312e-17
3487.309 9.8516e-17
3488.844 7.1888e-17
3490.379 5.6119e-17
3491.915 9.3633e-17
3493.45 6.9707e-17
3494.985 4.0755e-17
3496.521 5.5741e-17
3498.056 6.8855e-17
3499.591 5.5175e-17
3501.126 4.8045e-17
3502.662 6.5624e-17
3504.197 2.9702e-17
3505.732 6.5575e-17
3507.268 7.6514e-17
3508.803 6.322e-17
3510.338 5.3199e-17
3511.874 5.8696e-17
3513.409 5.33e-17
3514.944 5.9015e-17
3516.48 3.5577e-17
3518.015 1.8292e-17
3519.55 4.0439e-17
3521.086 5.0975e-17
3522.621 6.6516e-17
3524.156 5.4804e-17
3525.692 3.0456e-17
3527.227 3.5768e-17
3528.762 4.5207e-17
3530.298 6.0286e-17
3531.833 7.1449e-17
3533.368 5.9593e-17
3534.904 5.5283e-17
3536.439 6.8063e-17
3537.974 7.2741e-17
3539.51 6.6524e-17
3541.045 5.4659e-17
3542.58 8.8181e-17
3544.115 8.159e-17
3545.651 6.0381e-17
3547.186 5.1211e-17
3548.721 6.6722e-17
3550.257 8.9865e-17
3551.792 5.9677e-17
3553.327 8.2179e-17
3554.863 7.5198e-17
3556.398 5.1199e-17
3557.933 5.7005e-17
3559.469 8.2694e-17
3561.004 4.5543e-17
3562.539 5.3756e-17
3564.074 3.2938e-17
3565.61 5.9282e-17
3567.145 3.9886e-17
3568.68 6.4991e-17
3570.216 3.6003e-17
3571.751 3.966e-17
3573.286 3.0281e-17
3574.822 3.5335e-17
3576.357 5.7504e-17
3577.892 3.9369e-17
3579.428 5.4921e-17
3580.963 5.6202e-17
3582.498 4.7441e-17
3584.034 6.1451e-17
3585.569 5.7335e-17
3587.104 4.0295e-17
3588.64 5.5522e-17
3590.175 5.8215e-17
3591.71 5.3713e-17
3593.246 5.594e-17
3594.781 5.0264e-17
3596.316 3.9559e-17
3597.852 4.2589e-17
3599.387 4.7301e-17
3600.922 2.8663e-17
3602.458 5.5373e-17
3603.993 3.9614e-17
3605.528 4.2969e-17
3607.063 6.5891e-17
3608.599 4.7471e-17
3610.134 4.2433e-17
3611.669 4.968e-17
3613.205 6.2589e-17
3614.74 3.2206e-17
3616.275 5.23e-17
3617.811 6.6601e-17
3619.346 5.1976e-17
3620.881 5.3357e-17
3622.417 3.7671e-17
3623.952 2.6346e-17
3625.487 3.3975e-17
3627.022 3.6956e-17
3628.558 4.9613e-17
3630.093 4.9099e-17
3631.628 5.9201e-17
3633.164 7.0985e-17
3634.699 7.2177e-17
3636.234 6.945e-17
3637.77 4.1927e-17
3639.305 4.3089e-17
3640.84 2.276e-17
3642.376 3.4176e-17
3643.911 2.92e-17
3645.446 2.9783e-17
3646.982 4.2495e-17
3648.517 4.964e-17
3650.052 3.9977e-17
3651.588 4.3962e-17
3653.123 4.5806e-17
3654.658 5.6453e-17
3656.194 2.6525e-17
3657.729 3.4901e-17
3659.264 1.9123e-17
3660.8 2.1389e-17
3662.335 4.2261e-17
3663.87 3.4016e-17
3665.406 3.1274e-17
3666.941 1.4476e-17
3668.476 1.4988e-17
3670.011 2.5371e-17
3671.547 2.4648e-17
3673.082 4.3412e-17
3674.617 6.275e-17
3676.153 5.5137e-17
3677.688 4.2286e-17
3679.223 4.895e-17
3680.759 3.8811e-17
3682.294 2.6305e-17
3683.829 3.3395e-17
3685.365 4.1159e-17
3686.9 4.9434e-17
3688.435 2.7328e-17
3689.97 4.0159e-17
3691.506 4.5287e-17
3693.041 4.6084e-17
3694.576 4.2816e-17
3696.112 3.5552e-17
3697.647 2.8909e-17
3699.182 3.069e-17
3700.718 4.4685e-17
3702.253 3.3643e-17
3703.788 4.5604e-17
3705.324 5.2476e-17
3706.859 5.4616e-17
3708.394 5.4814e-17
3709.93 4.2415e-17
3711.465 4.2186e-17
3713.0 4.1884e-17
3714.536 5.7258e-17
3716.071 2.3102e-17
3717.606 2.3397e-17
3719.142 3.1752e-17
3720.677 4.4933e-17
3722.212 6.7158e-17
3723.748 3.6381e-17
3725.283 4.7083e-17
3726.818 4.0186e-17
3728.354 3.6981e-17
3729.889 2.5718e-17
3731.424 4.5655e-17
3732.959 4.5425e-17
3734.495 5.9591e-17
3736.03 2.6454e-17
3737.565 3.1944e-17
3739.101 3.6283e-17
3740.636 4.2938e-17
3742.171 4.5874e-17
3743.707 2.9603e-17
3745.242 2.5782e-17
3746.777 3.9733e-17
3748.312 5.8338e-17
3749.848 2.2832e-17
3751.383 4.1275e-17
3752.918 3.8557e-17
3754.454 5.1443e-17
3755.989 3.2817e-17
3757.524 3.7489e-17
3759.06 2.3739e-17
3760.595 2.7963e-17
3762.13 3.0289e-17
3763.666 4.1498e-17
3765.201 3.357e-17
3766.736 3.1866e-17
3768.272 3.3416e-17
3769.807 2.3816e-17
3771.342 2.0256e-17
3772.878 3.5169e-17
3774.413 3.2381e-17
3775.948 4.7098e-17
3777.484 3.0262e-17
3779.019 3.7591e-17
3780.554 3.9297e-17
3782.09 4.6559e-17
3783.625 3.196e-17
3785.16 3.3951e-17
3786.696 2.3864e-17
3788.231 3.4651e-17
3789.766 4.2376e-17
3791.302 5.7431e-17
3792.837 3.1053e-17
3794.372 3.1039e-17
3795.907 4.0805e-17
3797.443 3.5452e-17
3798.978 3.7878e-17
3800.513 3.2549e-17
3802.049 2.8484e-17
3803.584 3.2629e-17
3805.119 4.0061e-17
3806.655 3.4928e-17
3808.19 4.5755e-17
3809.725 4.9783e-17
3811.26 4.1701e-17
3812.796 4.9809e-17
3814.331 4.0203e-17
3815.866 3.2844e-17
3817.402 2.7918e-17
3818.937 4.7205e-17
3820.472 6.3268e-17
3822.008 5.4663e-17
3823.543 4.9392e-17
3825.078 3.1506e-17
3826.614 3.298e-17
3828.149 3.9889e-17
3829.684 3.3423e-17
3831.22 3.4413e-17
3832.755 5.4834e-17
3834.29 4.9556e-17
3835.826 4.6428e-17
3837.361 5.4332e-17
3838.896 4.9041e-17
3840.432 4.876e-17
3841.967 5.3839e-17
3843.502 3.3282e-17
3845.038 5.1658e-17
3846.573 6.1024e-17
3848.108 6.03e-17
3849.644 6.1467e-17
3851.179 6.2153e-17
3852.714 4.8614e-17
3854.25 5.9531e-17
3855.785 5.9437e-17
3857.32 6.5075e-17
3858.855 5.7402e-17
3860.391 5.983e-17
3861.926 3.7147e-17
3863.461 3.9135e-17
3864.997 4.9568e-17
3866.532 4.705e-17
3868.067 5.6973e-17
3869.603 5.2661e-17
3871.138 3.7082e-17
3872.673 4.976e-17
3874.208 5.4756e-17
3875.744 5.968e-17
3877.279 5.8675e-17
3878.814 6.3001e-17
3880.35 6.6946e-17
3881.885 6.1803e-17
3883.42 6.496e-17
3884.956 7.2616e-17
3886.491 5.7544e-17
3888.026 6.6429e-17
3889.562 7.7984e-17
3891.097 9.1123e-17
3892.632 8.9314e-17
3894.168 9.6967e-17
3895.703 9.1472e-17
3897.238 9.817e-17
3898.774 7.8434e-17
3900.309 7.6191e-17
3901.844 6.9368e-17
3903.38 7.4554e-17
3904.915 9.1183e-17
3906.45 8.5239e-17
3907.986 6.6598e-17
3909.521 6.3877e-17
3911.056 8.4291e-17
3912.592 8.3153e-17
3914.127 7.9675e-17
3915.662 8.4866e-17
3917.198 8.1868e-17
3918.733 8.4887e-17
3920.268 9.1169e-17
3921.803 8.6254e-17
3923.339 7.9139e-17
3924.874 8.2068e-17
3926.409 9.8196e-17
3927.945 8.1273e-17
3929.48 8.1376e-17
3931.015 7.1282e-17
3932.551 6.8663e-17
3934.086 7.7591e-17
3935.621 8.9996e-17
3937.156 8.4991e-17
3938.692 8.8981e-17
3940.227 9.5374e-17
3941.762 9.4822e-17
3943.298 1.0643e-16
3944.833 9.5385e-17
3946.368 9.9971e-17
3947.904 1.0084e-16
3949.439 1.0376e-16
3950.974 8.3994e-17
3952.51 9.0433e-17
3954.045 9.2679e-17
3955.58 9.1657e-17
3957.116 9.6769e-17
3958.651 8.8848e-17
3960.186 8.2229e-17
3961.722 7.7189e-17
3963.257 9.6693e-17
3964.792 9.775e-17
3966.328 8.0112e-17
3967.863 7.7495e-17
3969.398 7.9819e-17
3970.934 9.1205e-17
3972.469 8.8681e-17
3974.004 7.7935e-17
3975.54 8.7385e-17
3977.075 9.5254e-17
3978.61 7.1885e-17
3980.146 7.0377e-17
3981.681 8.4182e-17
3983.216 7.7895e-17
3984.751 8.6452e-17
3986.287 8.6976e-17
3987.822 7.2028e-17
3989.357 8.0094e-17
3990.893 7.0003e-17
3992.428 7.9663e-17
3993.963 8.7395e-17
3995.499 7.0614e-17
3997.034 8.5376e-17
3998.569 9.2027e-17
4000.104 8.1288e-17
4001.64 6.3635e-17
4003.175 7.9509e-17
4004.71 7.5975e-17
4006.246 6.1916e-17
4007.781 6.9884e-17
4009.316 7.112e-17
4010.852 6.92e-17
4012.387 7.4628e-17
4013.922 6.8211e-17
4015.458 5.6666e-17
4016.993 7.0993e-17
4018.528 7.6834e-17
4020.064 7.0597e-17
4021.599 8.0417e-17
4023.134 7.4004e-17
4024.67 7.7713e-17
4026.205 7.0829e-17
4027.74 6.7203e-17
4029.276 6.3237e-17
4030.811 6.1955e-17
4032.346 6.0706e-17
4033.882 7.3461e-17
4035.417 8.9602e-17
4036.952 7.1418e-17
4038.488 6.1123e-17
4040.023 5.5769e-17
4041.558 6.7152e-17
4043.094 9.1424e-17
4044.629 7.4761e-17
4046.164 8.4918e-17
4047.699 9.7372e-17
4049.235 6.5566e-17
4050.77 8.5069e-17
4052.305 8.7845e-17
4053.841 7.8736e-17
4055.376 7.5416e-17
4056.911 8.1458e-17
4058.447 7.4555e-17
4059.982 8.8393e-17
4061.517 5.9189e-17
4063.052 6.4292e-17
4064.588 9.0942e-17
4066.123 9.4221e-17
4067.658 8.619e-17
4069.194 7.7892e-17
4070.729 6.9214e-17
4072.264 8.2305e-17
4073.8 8.5735e-17
4075.335 9.3433e-17
4076.87 9.5401e-17
4078.406 8.9048e-17
4079.941 8.7642e-17
4081.476 1.03e-16
4083.012 9.4312e-17
4084.547 9.2908e-17
4086.082 8.5288e-17
4087.618 8.6793e-17
4089.153 9.1932e-17
4090.688 8.1615e-17
4092.224 8.9201e-17
4093.759 8.2205e-17
4095.294 8.2246e-17
4096.83 9.4559e-17
4098.365 9.2837e-17
4099.9 9.1115e-17
4101.436 8.1926e-17
4102.971 9.134e-17
4104.506 8.6474e-17
4106.042 8.3081e-17
4107.577 8.7661e-17
4109.112 9.321e-17
4110.647 8.8751e-17
4112.183 9.8005e-17
4113.718 7.9168e-17
4115.253 8.1223e-17
4116.789 9.5391e-17
4118.324 1.0024e-16
4119.859 9.3683e-17
4121.395 9.7045e-17
4122.93 9.4062e-17
4124.465 8.1183e-17
4126.0 9.882e-17
4127.536 9.9215e-17
4129.071 8.6334e-17
4130.606 7.69e-17
4132.142 8.5769e-17
4133.677 8.9644e-17
4135.212 9.3978e-17
4136.748 8.817e-17
4138.283 8.1696e-17
4139.818 7.8531e-17
4141.354 8.4176e-17
4142.889 7.9771e-17
4144.424 7.8128e-17
4145.959 9.316e-17
4147.495 1.0008e-16
4149.03 1.0287e-16
4150.565 9.2549e-17
4152.101 9.3385e-17
4153.636 8.9913e-17
4155.171 8.7479e-17
4156.707 8.9406e-17
4158.242 9.1829e-17
4159.777 7.3322e-17
4161.313 1.0113e-16
4162.848 9.4823e-17
4164.383 8.6692e-17
4165.919 8.524e-17
4167.454 8.8583e-17
4168.989 8.9649e-17
4170.525 9.2965e-17
4172.06 8.751e-17
4173.595 8.3593e-17
4175.131 8.5234e-17
4176.666 8.8589e-17
4178.201 1.006e-16
4179.737 9.1391e-17
4181.272 1.018e-16
4182.807 1.0518e-16
4184.343 1.0292e-16
4185.878 8.3323e-17
4187.413 7.819e-17
4188.949 8.5679e-17
4190.484 8.0991e-17
4192.019 9.8679e-17
4193.555 8.671e-17
4195.09 9.7166e-17
4196.625 8.3313e-17
4198.16 7.4774e-17
4199.696 6.3561e-17
4201.231 8.7744e-17
4202.766 8.5963e-17
4204.302 7.2939e-17
4205.837 8.6189e-17
4207.372 8.0405e-17
4208.908 7.8009e-17
4210.443 8.1242e-17
4211.978 8.5291e-17
4213.514 8.6814e-17
4215.049 9.2099e-17
4216.584 9.242e-17
4218.12 8.3308e-17
4219.655 7.7955e-17
4221.19 8.0946e-17
4222.726 8.1375e-17
4224.261 8.5672e-17
4225.796 8.3228e-17
4227.332 8.0252e-17
4228.867 1.0297e-16
4230.402 7.9979e-17
4231.938 6.6033e-17
4233.473 1.056e-16
4235.008 9.8629e-17
4236.543 8.4921e-17
4238.079 8.7641e-17
4239.614 8.6568e-17
4241.149 8.808e-17
4242.685 7.594e-17
4244.22 7.0794e-17
4245.755 8.2501e-17
4247.291 9.5035e-17
4248.826 7.7372e-17
4250.361 7.623e-17
4251.896 7.7183e-17
4253.432 8.424e-17
4254.967 7.0766e-17
4256.502 7.9122e-17
4258.038 6.9599e-17
4259.573 6.4976e-17
4261.108 6.8825e-17
4262.644 8.0774e-17
4264.179 7.7462e-17
4265.714 7.9362e-17
4267.25 7.5821e-17
4268.785 6.9381e-17
4270.32 7.7223e-17
4271.855 8.0335e-17
4273.391 8.156e-17
4274.926 7.3359e-17
4276.461 8.8925e-17
4277.997 8.084e-17
4279.532 8.8562e-17
4281.067 9.6904e-17
4282.603 8.3313e-17
4284.138 7.5878e-17
4285.673 7.3884e-17
4287.209 7.7007e-17
4288.744 8.9769e-17
4290.279 8.1263e-17
4291.815 7.8175e-17
4293.35 8.1477e-17
4294.885 7.6627e-17
4296.421 8.0597e-17
4297.956 8.2393e-17
4299.491 6.8416e-17
4301.027 8.434e-17
4302.562 7.9181e-17
4304.097 7.4484e-17
4305.633 7.8003e-17
4307.168 8.0687e-17
4308.703 8.4671e-17
4310.239 8.6209e-17
4311.774 6.9597e-17
4313.309 7.6618e-17
4314.844 8.77e-17
4316.38 7.5095e-17
4317.915 8.3913e-17
4319.45 9.4605e-17
4320.986 8.1183e-17
4322.521 8.6493e-17
4324.056 9.5608e-17
4325.592 8.4927e-17
4327.127 7.2754e-17
4328.662 8.2965e-17
4330.198 6.4196e-17
4331.733 6.024e-17
4333.268 7.8497e-17
4334.804 7.9243e-17
4336.339 8.0484e-17
4337.874 7.9962e-17
4339.41 7.9239e-17
4340.945 7.08e-17
4342.48 6.9825e-17
4344.016 8.8365e-17
4345.551 8.9747e-17
4347.086 8.0125e-17
4348.622 8.8951e-17
4350.157 8.0318e-17
4351.692 6.4049e-17
4353.228 8.1735e-17
4354.763 7.4563e-17
4356.298 5.6842e-17
4357.833 5.8909e-17
4359.369 7.7352e-17
4360.904 6.4185e-17
4362.439 7.947e-17
4363.975 7.5021e-17
4365.51 7.2893e-17
4367.045 7.492e-17
4368.581 8.0553e-17
4370.116 7.6179e-17
4371.651 6.6157e-17
4373.187 6.652e-17
4374.722 6.6847e-17
4376.257 7.6445e-17
4377.792 8.0989e-17
4379.328 7.1689e-17
4380.863 7.4996e-17
4382.398 7.8316e-17
4383.934 8.1327e-17
4385.469 7.4893e-17
4387.004 7.9333e-17
4388.54 8.5694e-17
4390.075 8.2426e-17
4391.61 8.0111e-17
4393.146 7.7365e-17
4394.681 5.942e-17
4396.216 7.3284e-17
4397.751 7.3719e-17
4399.287 6.7794e-17
4400.822 6.4951e-17
4402.357 7.7871e-17
4403.893 7.8442e-17
4405.428 6.9181e-17
4406.963 8.24e-17
4408.499 8.6123e-17
4410.034 7.6406e-17
4411.569 7.5449e-17
4413.105 7.162e-17
4414.64 9.2231e-17
4416.175 8.9732e-17
4417.711 7.4651e-17
4419.246 7.7279e-17
4420.781 8.1902e-17
4422.317 7.762e-17
4423.852 7.7345e-17
4425.387 8.1394e-17
4426.923 7.5301e-17
4428.458 7.1642e-17
4429.993 7.3946e-17
4431.529 6.8498e-17
4433.064 6.7059e-17
4434.599 8.9031e-17
4436.134 9.1337e-17
4437.67 8.6868e-17
4439.205 9.4575e-17
4440.74 8.7395e-17
4442.276 8.2156e-17
4443.811 7.0849e-17
4445.346 7.9999e-17
4446.882 7.5302e-17
4448.417 7.3604e-17
4449.952 6.6554e-17
4451.488 7.5878e-17
4453.023 8.4117e-17
4454.558 8.6844e-17
4456.094 6.7786e-17
4457.629 6.3078e-17
4459.164 7.4207e-17
4460.7 7.7275e-17
4462.235 6.1256e-17
4463.77 7.3479e-17
4465.306 8.0364e-17
4466.841 7.1175e-17
4468.376 5.8171e-17
4469.912 6.5003e-17
4471.447 6.7492e-17
4472.982 6.5238e-17
4474.518 6.872e-17
4476.053 7.0023e-17
4477.588 5.8537e-17
4479.124 6.9771e-17
4480.659 6.1432e-17
4482.194 6.2531e-17
4483.729 5.7973e-17
4485.265 6.4093e-17
4486.8 6.0456e-17
4488.335 4.7257e-17
4489.871 6.3104e-17
4491.406 7.5093e-17
4492.941 6.2451e-17
4494.477 7.5114e-17
4496.012 9.1079e-17
4497.547 8.1197e-17
4499.083 8.254e-17
4500.618 8.2063e-17
4502.153 8.3442e-17
4503.688 8.8053e-17
4505.224 8.4137e-17
4506.759 6.8639e-17
4508.294 5.1791e-17
4509.83 6.17e-17
4511.365 7.535e-17
4512.9 7.0909e-17
4514.436 7.0429e-17
4515.971 8.369e-17
4517.506 7.5926e-17
4519.042 8.0212e-17
4520.577 7.6405e-17
4522.112 7.4252e-17
4523.647 9.6295e-17
4525.183 9.817e-17
4526.718 8.139e-17
4528.253 7.6664e-17
4529.789 8.069e-17
4531.324 8.5024e-17
4532.859 7.9862e-17
4534.395 6.1339e-17
4535.93 7.5613e-17
4537.465 7.5284e-17
4539.001 7.7758e-17
4540.536 6.8399e-17
4542.071 8.1709e-17
4543.607 7.1849e-17
4545.142 6.7045e-17
4546.677 6.7942e-17
4548.213 8.5458e-17
4549.748 8.7003e-17
4551.283 9.629e-17
4552.818 7.9967e-17
4554.354 7.3603e-17
4555.889 7.3217e-17
4557.424 6.4938e-17
4558.96 8.1604e-17
4560.495 7.4392e-17
4562.03 7.6042e-17
4563.566 7.1676e-17
4565.101 8.1091e-17
4566.636 6.433e-17
4568.172 5.85e-17
4569.707 9.1259e-17
4571.242 8.5075e-17
4572.778 7.8529e-17
4574.313 8.3218e-17
4575.848 7.851e-17
4577.384 7.2345e-17
4578.919 8.4781e-17
4580.454 7.3125e-17
4581.99 9.0792e-17
4583.525 7.2997e-17
4585.06 8.1578e-17
4586.596 8.3743e-17
4588.131 6.9355e-17
4589.666 7.5525e-17
4591.202 7.7215e-17
4592.737 7.1019e-17
4594.272 6.7837e-17
4595.808 7.7109e-17
4597.343 7.663e-17
4598.878 6.955e-17
4600.414 7.7731e-17
4601.949 7.5976e-17
4603.484 7.8188e-17
4605.02 8.9937e-17
4606.555 8.0583e-17
4608.09 6.9209e-17
4609.625 7.0075e-17
4611.161 7.8e-17
4612.696 8.0712e-17
4614.231 6.5601e-17
4615.767 7.9798e-17
4617.302 7.3924e-17
4618.837 7.5821e-17
4620.373 8.0068e-17
4621.908 8.744e-17
4623.443 7.1087e-17
4624.979 6.79e-17
4626.514 6.8202e-17
4628.049 6.8843e-17
4629.584 8.2311e-17
4631.12 6.9825e-17
4632.655 7.4545e-17
4634.19 6.5725e-17
4635.726 8.3697e-17
4637.261 7.9807e-17
4638.796 7.5689e-17
4640.332 7.54e-17
4641.867 7.504e-17
4643.402 7.6367e-17
4644.938 6.9606e-17
4646.473 7.2384e-17
4648.008 6.8903e-17
4649.543 6.9508e-17
4651.079 6.4682e-17
4652.614 8.0283e-17
4654.149 7.8255e-17
4655.685 6.628e-17
4657.22 6.8262e-17
4658.755 6.9985e-17
4660.291 6.6358e-17
4661.826 5.9992e-17
4663.361 6.9077e-17
4664.897 6.196e-17
4666.432 5.8479e-17
4667.967 6.6804e-17
4669.503 6.7439e-17
4671.038 7.8748e-17
4672.573 9.147e-17
4674.108 8.1244e-17
4675.644 7.3542e-17
4677.179 6.6432e-17
4678.714 5.7511e-17
4680.25 6.2098e-17
4681.785 6.0646e-17
4683.32 5.454e-17
4684.856 7.2241e-17
4686.391 6.8382e-17
4687.926 6.8995e-17
4689.462 7.3426e-17
4690.997 7.7584e-17
4692.532 7.8669e-17
4694.068 7.6628e-17
4695.603 7.4533e-17
4697.138 6.3256e-17
4698.674 7.2101e-17
4700.209 8.7309e-17
4701.744 7.1664e-17
4703.28 6.8494e-17
4704.815 6.2633e-17
4706.35 6.3472e-17
4707.886 6.3658e-17
4709.421 7.5884e-17
4710.956 7.111e-17
4712.492 7.6439e-17
4714.027 6.9125e-17
4715.562 6.668e-17
4717.098 7.1705e-17
4718.633 7.5191e-17
4720.168 7.114e-17
4721.704 7.2609e-17
4723.239 6.8113e-17
4724.774 6.7776e-17
4726.31 7.3294e-17
4727.845 7.0197e-17
4729.38 6.6134e-17
4730.916 5.9601e-17
4732.451 6.8948e-17
4733.986 5.4183e-17
4735.521 7.506e-17
4737.057 6.3988e-17
4738.592 6.2763e-17
4740.127 5.508e-17
4741.663 6.4525e-17
4743.198 5.8104e-17
4744.733 6.3244e-17
4746.269 4.9773e-17
4747.804 5.8229e-17
4749.339 6.9601e-17
4750.875 6.7563e-17
4752.41 5.7649e-17
4753.945 6.9446e-17
4755.48 6.7627e-17
4757.016 5.992e-17
4758.551 5.0737e-17
4760.086 5.2317e-17
4761.622 6.4327e-17
4763.157 6.4617e-17
4764.692 5.6479e-17
4766.228 6.2682e-17
4767.763 6.8914e-17
4769.298 5.7794e-17
4770.833 5.4116e-17
4772.369 5.4186e-17
4773.904 5.4398e-17
4775.439 5.4939e-17
4776.975 4.5252e-17
4778.51 5.9978e-17
4780.045 6.1006e-17
4781.581 5.2318e-17
4783.116 6.1329e-17
4784.651 5.1913e-17
4786.187 5.7636e-17
4787.722 6.0775e-17
4789.257 6.3863e-17
4790.792 6.3073e-17
4792.328 5.206e-17
4793.863 5.4291e-17
4795.398 6.6601e-17
4796.934 5.675e-17
4798.469 6.2716e-17
4800.004 7.4398e-17
4801.54 6.2404e-17
4803.075 5.2925e-17
4804.61 5.5363e-17
4806.146 5.0299e-17
4807.681 5.5517e-17
4809.216 5.5609e-17
4810.752 5.0232e-17
4812.287 7.0413e-17
4813.822 7.0878e-17
4815.358 5.1153e-17
4816.893 5.373e-17
4818.428 6.0418e-17
4819.964 5.8544e-17
4821.499 6.9731e-17
4823.034 6.1887e-17
4824.57 5.9737e-17
4826.105 6.429e-17
4827.64 6.1543e-17
4829.176 7.9743e-17
4830.711 7.2783e-17
4832.246 6.6489e-17
4833.782 5.6651e-17
4835.317 6.1421e-17
4836.852 8.1804e-17
4838.388 7.4947e-17
4839.923 7.9284e-17
4841.458 6.5481e-17
4842.994 6.2444e-17
4844.529 7.3958e-17
4846.064 7.0306e-17
4847.6 6.8407e-17
4849.135 7.2058e-17
4850.67 6.5474e-17
4852.206 7.396e-17
4853.741 7.4066e-17
4855.276 6.6226e-17
4856.812 7.8028e-17
4858.347 7.4929e-17
4859.882 6.5699e-17
4861.417 7.032e-17
4862.953 6.641e-17
4864.488 7.2557e-17
4866.023 6.4973e-17
4867.559 7.7077e-17
4869.094 7.2061e-17
4870.629 6.8358e-17
4872.165 6.3325e-17
4873.7 7.3242e-17
4875.235 7.7406e-17
4876.771 5.7001e-17
4878.306 6.2509e-17
4879.841 7.0564e-17
4881.376 5.849e-17
4882.912 6.0987e-17
4884.447 7.5477e-17
4885.982 7.6411e-17
4887.518 7.1619e-17
4889.053 7.0734e-17
4890.588 5.8007e-17
4892.124 7.3855e-17
4893.659 7.417e-17
4895.194 6.9882e-17
4896.729 7.1842e-17
4898.265 6.3696e-17
4899.8 7.3538e-17
4901.335 6.7663e-17
4902.871 6.4717e-17
4904.406 7.5642e-17
4905.941 6.899e-17
4907.477 6.6743e-17
4909.012 7.5789e-17
4910.547 6.4839e-17
4912.083 7.9485e-17
4913.618 7.4478e-17
4915.153 6.7862e-17
4916.688 7.3317e-17
4918.224 7.9283e-17
4919.759 6.6338e-17
4921.294 6.0857e-17
4922.83 6.0563e-17
4924.365 7.6744e-17
4925.9 8.661e-17
4927.436 6.2475e-17
4928.971 6.5616e-17
4930.506 6.6662e-17
4932.042 6.8692e-17
4933.577 7.5119e-17
4935.112 6.734e-17
4936.648 6.941e-17
4938.183 7.3749e-17
4939.718 7.06e-17
4941.254 7.0611e-17
4942.789 6.1942e-17
4944.324 7.2294e-17
4945.86 7.6055e-17
4947.395 6.1521e-17
4948.93 7.4192e-17
4950.466 7.2852e-17
4952.001 8.1161e-17
4953.536 7.6316e-17
4955.072 7.0483e-17
4956.607 8.6384e-17
4958.142 8.5024e-17
4959.678 6.5004e-17
4961.213 6.3881e-17
4962.748 6.3456e-17
4964.284 8.2823e-17
4965.819 7.297e-17
4967.354 6.2569e-17
4968.89 6.2324e-17
4970.425 7.3586e-17
4971.96 7.4679e-17
4973.496 6.7424e-17
4975.031 6.1862e-17
4976.566 5.7616e-17
4978.102 6.5045e-17
4979.637 6.741e-17
4981.172 7.7833e-17
4982.708 6.9646e-17
4984.243 7.4827e-17
4985.778 7.2518e-17
4987.313 6.7589e-17
4988.849 6.6399e-17
4990.384 6.3541e-17
4991.919 7.3202e-17
4993.455 7.1287e-17
4994.99 7.3599e-17
4996.525 6.5724e-17
4998.061 6.2868e-17
4999.596 6.3387e-17
5001.131 6.9071e-17
5002.667 6.2632e-17
5004.202 6.7021e-17
5005.737 7.2944e-17
5007.272 7.309e-17
5008.808 7.4566e-17
5010.343 7.352e-17
5011.878 8.0538e-17
5013.414 7.7801e-17
5014.949 7.1068e-17
5016.484 6.7414e-17
5018.02 6.9885e-17
5019.555 6.947e-17
5021.09 8.2263e-17
5022.625 8.1464e-17
5024.161 8.7016e-17
5025.696 7.9091e-17
5027.231 7.299e-17
5028.767 7.7682e-17
5030.302 8.2531e-17
5031.837 7.0927e-17
5033.373 7.7654e-17
5034.908 6.4463e-17
5036.443 6.8154e-17
5037.979 6.5988e-17
5039.514 7.09e-17
5041.049 7.9628e-17
5042.584 7.1482e-17
5044.12 6.769e-17
5045.655 6.3245e-17
5047.19 6.5422e-17
5048.726 7.688e-17
5050.261 8.6076e-17
5051.796 8.0092e-17
5053.332 6.6576e-17
5054.867 6.3691e-17
5056.402 6.7975e-17
5057.938 7.7553e-17
5059.473 9.0664e-17
5061.008 8.1918e-17
5062.544 7.3232e-17
5064.079 6.6979e-17
5065.614 6.8943e-17
5067.15 7.4318e-17
5068.685 7.4674e-17
5070.22 5.9947e-17
5071.756 6.356e-17
5073.291 6.5341e-17
5074.826 5.873e-17
5076.362 6.6902e-17
5077.897 6.8763e-17
5079.432 7.5911e-17
5080.968 6.8579e-17
5082.503 7.1548e-17
5084.038 7.3215e-17
5085.574 6.8828e-17
5087.109 7.4718e-17
5088.644 7.6261e-17
5090.18 6.5606e-17
5091.715 5.7355e-17
5093.25 6.9655e-17
5094.786 6.7751e-17
5096.321 7.6267e-17
5097.856 6.7293e-17
5099.392 6.9109e-17
5100.927 7.7136e-17
5102.462 7.073e-17
5103.998 6.6681e-17
5105.533 7.0297e-17
5107.068 8.2913e-17
5108.604 7.2512e-17
5110.139 7.1885e-17
5111.674 7.1154e-17
5113.209 6.3359e-17
5114.745 6.8535e-17
5116.28 7.438e-17
5117.815 7.346e-17
5119.351 5.7153e-17
5120.886 6.6651e-17
5122.421 6.5521e-17
5123.957 6.819e-17
5125.492 8.2371e-17
5127.027 6.9095e-17
5128.562 6.5956e-17
5130.098 6.0747e-17
5131.633 7.1896e-17
5133.168 6.5314e-17
5134.704 7.3377e-17
5136.239 7.8659e-17
5137.774 6.0514e-17
5139.31 5.6839e-17
5140.845 7.7961e-17
5142.38 6.7965e-17
5143.916 6.3601e-17
5145.451 6.1332e-17
5146.986 6.9595e-17
5148.521 7.7572e-17
5150.057 6.9817e-17
5151.592 7.1474e-17
5153.127 5.3826e-17
5154.663 6.1527e-17
5156.198 7.5877e-17
5157.733 7.6034e-17
5159.269 6.8525e-17
5160.804 5.9409e-17
5162.339 6.4529e-17
5163.875 7.0437e-17
5165.41 5.4984e-17
5166.945 5.5011e-17
5168.48 6.6283e-17
5170.016 6.5901e-17
5171.551 5.4299e-17
5173.086 4.8284e-17
5174.622 7.6824e-17
5176.157 7.1407e-17
5177.692 7.5965e-17
5179.228 6.7156e-17
5180.763 6.2008e-17
5182.298 6.3194e-17
5183.834 8.2352e-17
5185.369 8.3363e-17
5186.904 6.5528e-17
5188.44 7.103e-17
5189.975 7.5666e-17
5191.51 7.4064e-17
5193.046 6.7261e-17
5194.581 6.4236e-17
5196.116 7.6705e-17
5197.652 6.4237e-17
5199.187 5.9665e-17
5200.722 6.0761e-17
5202.258 5.2986e-17
5203.793 6.4399e-17
5205.328 6.853e-17
5206.864 8.2389e-17
5208.399 7.3473e-17
5209.934 5.3705e-17
5211.47 6.6217e-17
5213.005 6.2985e-17
5214.54 6.1139e-17
5216.076 6.0841e-17
5217.611 6.5712e-17
5219.146 8.0785e-17
5220.682 7.4778e-17
5222.217 7.5771e-17
5223.752 8.637e-17
5225.288 6.0695e-17
5226.823 5.1715e-17
5228.358 6.4795e-17
5229.894 7.1377e-17
5231.429 6.2994e-17
5232.964 5.0925e-17
5234.5 5.7659e-17
5236.035 7.492e-17
5237.57 7.7977e-17
5239.105 7.0835e-17
5240.641 5.4014e-17
5242.176 6.2319e-17
5243.711 7.0942e-17
5245.247 6.4809e-17
5246.782 5.915e-17
5248.317 7.2051e-17
5249.853 7.1669e-17
5251.388 7.4788e-17
5252.923 5.8021e-17
5254.458 5.9729e-17
5255.994 7.4224e-17
5257.529 5.1006e-17
5259.064 5.0325e-17
5260.6 5.9191e-17
5262.135 6.1803e-17
5263.67 6.4105e-17
5265.206 6.1565e-17
5266.741 6.3641e-17
5268.276 5.6247e-17
5269.812 5.0913e-17
5271.347 4.08e-17
5272.882 5.0729e-17
5274.417 4.3188e-17
5275.953 5.176e-17
5277.488 4.8329e-17
5279.023 6.5867e-17
5280.559 7.0331e-17
5282.094 6.1382e-17
5283.629 5.642e-17
5285.165 4.8939e-17
5286.7 6.6174e-17
5288.235 6.3839e-17
5289.771 4.8431e-17
5291.306 5.8043e-17
5292.841 5.5027e-17
5294.376 6.3423e-17
5295.912 5.3761e-17
5297.447 6.7958e-17
5298.982 6.4197e-17
5300.518 6.2453e-17
5302.053 6.5943e-17
5303.588 5.6927e-17
5305.124 5.3187e-17
5306.659 6.533e-17
5308.194 6.287e-17
5309.73 5.107e-17
5311.265 4.7879e-17
5312.8 4.0639e-17
5314.336 6.9322e-17
5315.871 8.0064e-17
5317.406 6.9686e-17
5318.942 6.0783e-17
5320.477 7.0123e-17
5322.012 7.0396e-17
5323.548 6.5767e-17
5325.083 5.5897e-17
5326.618 5.5013e-17
5328.154 5.2499e-17
5329.689 5.8816e-17
5331.224 7.2818e-17
5332.76 6.4926e-17
5334.295 5.9372e-17
5335.83 7.1706e-17
5337.366 7.3152e-17
5338.901 7.3996e-17
5340.436 6.5605e-17
5341.972 6.4527e-17
5343.507 3.5891e-17
5345.042 5.2727e-17
5346.578 7.9482e-17
5348.113 6.8237e-17
5349.648 5.6279e-17
5351.184 6.6433e-17
5352.719 7.0983e-17
5354.254 6.9355e-17
5355.79 6.0362e-17
5357.325 5.2589e-17
5358.86 5.91e-17
5360.396 5.9041e-17
5361.931 7.3673e-17
5363.466 6.9319e-17
5365.001 7.6492e-17
5366.537 7.8476e-17
5368.072 6.3338e-17
5369.607 5.7064e-17
5371.143 4.877e-17
5372.678 4.6379e-17
5374.213 4.8712e-17
5375.749 6.5258e-17
5377.284 6.4093e-17
5378.819 7.8684e-17
5380.354 6.0339e-17
5381.89 4.4364e-17
5383.425 5.9468e-17
5384.96 4.6064e-17
5386.496 3.4465e-17
5388.031 6.2871e-17
5389.566 3.8983e-17
5391.102 5.417e-17
5392.637 4.8422e-17
5394.172 5.4682e-17
5395.708 4.5109e-17
5397.243 4.7022e-17
5398.778 5.661e-17
5400.313 6.4789e-17
5401.849 6.2432e-17
5403.384 4.5452e-17
5404.919 5.903e-17
5406.455 6.0556e-17
5407.99 7.7986e-17
5409.525 7.4905e-17
5411.061 8.0683e-17
5412.596 7.5348e-17
5414.131 6.3546e-17
5415.667 6.6446e-17
5417.202 6.3892e-17
5418.737 8.3034e-17
5420.272 8.0248e-17
5421.808 5.2228e-17
5423.343 6.1994e-17
5424.878 7.7386e-17
5426.414 6.7508e-17
5427.949 5.007e-17
5429.484 4.0143e-17
5431.02 6.513e-17
5432.555 6.7278e-17
5434.09 6.4162e-17
5435.626 6.3199e-17
5437.161 6.3882e-17
5438.696 5.5875e-17
5440.232 4.7758e-17
5441.767 5.7307e-17
5443.302 7.0961e-17
5444.838 5.207e-17
5446.373 6.4157e-17
5447.908 7.0655e-17
5449.444 3.2444e-17
5450.979 3.352e-17
5452.514 3.9056e-17
5454.05 7.1072e-17
5455.585 6.7032e-17
5457.12 6.7985e-17
5458.656 5.4578e-17
5460.191 7.87e-17
5461.726 4.7628e-17
5463.262 7.0399e-17
5464.797 2.7997e-17
5466.332 5.2564e-17
5467.868 6.3484e-17
5469.403 8.7265e-17
5470.938 6.0169e-17
5472.474 3.5836e-17
5474.009 3.9246e-17
5475.544 5.7369e-17
5477.08 6.0969e-17
5478.615 7.081e-17
5480.15 6.3631e-17
5481.686 6.5855e-17
5483.221 7.316e-17
5484.756 6.5394e-17
5486.292 7.1852e-17
5487.827 6.1546e-17
5489.362 8.7642e-17
5490.897 6.5283e-17
5492.433 6.2897e-17
5493.968 1.0007e-16
5495.503 7.4363e-17
5497.039 8.6509e-17
5498.574 8.1991e-17
5500.109 7.9846e-17
5501.645 7.8618e-17
5503.18 7.349e-17
5504.715 6.4373e-17
5506.25 5.8459e-17
5507.786 7.1519e-17
5509.321 7.3399e-17
5510.856 8.0759e-17
5512.392 7.405e-17
5513.927 7.0326e-17
5515.462 7.5012e-17
5516.998 7.109e-17
5518.533 7.3394e-17
5520.068 7.9984e-17
5521.604 7.4048e-17
5523.139 5.3676e-17
5524.674 5.5775e-17
5526.209 5.6852e-17
5527.745 6.8461e-17
5529.28 7.7789e-17
5530.815 6.2824e-17
5532.351 6.7807e-17
5533.886 7.308e-17
5535.421 6.5862e-17
5536.957 5.7246e-17
5538.492 6.2603e-17
5540.027 5.4109e-17
5541.562 5.1258e-17
5543.098 5.4759e-17
5544.633 7.2274e-17
5546.168 7.7902e-17
5547.704 6.6929e-17
5549.239 7.073e-17
5550.774 5.867e-17
5552.31 6.3223e-17
5553.845 8.2186e-17
5555.38 7.3395e-17
5556.916 7.1918e-17
5558.451 7.5414e-17
5559.986 7.3222e-17
5561.522 7.1255e-17
5563.057 7.2699e-17
5564.592 6.5399e-17
5566.128 6.693e-17
5567.663 6.736e-17
5569.198 6.3965e-17
5570.734 5.7299e-17
5572.269 5.7479e-17
5573.804 7.3341e-17
5575.34 1.0335e-16
5576.875 1.2301e-16
5578.41 8.4907e-17
5579.946 7.9301e-17
5581.481 8.1041e-17
5583.016 7.1963e-17
5584.552 5.763e-17
5586.087 5.5393e-17
5587.622 5.6871e-17
5589.158 5.5635e-17
5590.693 6.9064e-17
5592.228 7.1454e-17
5593.764 7.0937e-17
5595.299 6.7109e-17
5596.834 6.5906e-17
5598.37 7.2604e-17
5599.905 6.8013e-17
5601.44 6.712e-17
5602.976 5.8707e-17
5604.511 5.6392e-17
5606.046 5.5047e-17
5607.582 6.2326e-17
5609.117 6.3197e-17
5610.652 6.4951e-17
5612.188 6.0808e-17
5613.723 5.6373e-17
5615.258 4.4897e-17
5616.793 4.0807e-17
5618.329 4.8916e-17
5619.864 5.6629e-17
5621.399 5.7425e-17
5622.935 6.2291e-17
5624.47 6.8526e-17
5626.005 6.1213e-17
5627.541 5.165e-17
5629.076 5.7487e-17
5630.611 6.2627e-17
5632.146 5.6604e-17
5633.682 4.7657e-17
5635.217 4.4849e-17
5636.752 3.75e-17
5638.288 4.3781e-17
5639.823 5.3871e-17
5641.358 4.1854e-17
5642.894 4.1411e-17
5644.429 4.9392e-17
5645.964 4.6373e-17
5647.5 4.9164e-17
5649.035 5.4084e-17
5650.57 5.7228e-17
5652.105 5.31e-17
5653.641 5.7999e-17
5655.176 6.2288e-17
5656.711 5.4227e-17
5658.247 5.076e-17
5659.782 5.7441e-17
5661.317 5.8122e-17
5662.853 5.5822e-17
5664.388 5.8472e-17
5665.923 5.8274e-17
5667.458 5.5468e-17
5668.994 4.7337e-17
5670.529 4.3271e-17
5672.064 4.1587e-17
5673.6 4.4713e-17
5675.135 4.1716e-17
5676.67 4.6249e-17
5678.206 4.9388e-17
5679.741 4.9823e-17
5681.276 5.2582e-17
5682.812 5.8727e-17
5684.347 4.5355e-17
5685.882 3.7078e-17
5687.418 3.4197e-17
5688.953 3.5676e-17
5690.488 4.0455e-17
5692.024 3.9945e-17
5693.559 3.7124e-17
5695.094 4.2938e-17
5696.63 5.5658e-17
5698.165 5.0798e-17
5699.7 5.1436e-17
5701.236 4.9447e-17
5702.771 4.7007e-17
5704.306 5.3575e-17
5705.842 4.6859e-17
5707.377 4.3471e-17
5708.912 4.3304e-17
5710.448 5.0991e-17
5711.983 5.7476e-17
5713.518 5.6777e-17
5715.054 5.6388e-17
5716.589 5.9216e-17
5718.124 6.3507e-17
5719.66 5.7867e-17
5721.195 5.1694e-17
5722.73 5.052e-17
5724.266 5.8176e-17
5725.801 5.6478e-17
5727.336 5.1169e-17
5728.872 5.3868e-17
5730.407 5.3059e-17
5731.942 4.5671e-17
5733.478 5.0986e-17
5735.013 5.6371e-17
5736.548 5.3312e-17
5738.083 5.6513e-17
5739.619 5.8502e-17
5741.154 5.2226e-17
5742.689 5.6493e-17
5744.225 6.3449e-17
5745.76 5.8225e-17
5747.295 4.7484e-17
5748.831 4.4889e-17
5750.366 5.1788e-17
5751.901 5.8869e-17
5753.437 6.4028e-17
5754.972 5.4211e-17
5756.507 4.8929e-17
5758.042 5.2417e-17
5759.578 5.0281e-17
5761.113 5.4174e-17
5762.648 5.6097e-17
5764.184 4.8536e-17
5765.719 4.6831e-17
5767.254 5.1132e-17
5768.79 4.9002e-17
5770.325 4.7149e-17
5771.86 5.4322e-17
5773.396 5.3235e-17
5774.931 4.8667e-17
5776.466 4.9857e-17
5778.001 4.7103e-17
5779.537 4.2416e-17
5781.072 4.191e-17
5782.607 4.4626e-17
5784.143 4.7799e-17
5785.678 5.3788e-17
5787.213 5.4602e-17
5788.749 4.5804e-17
5790.284 4.2914e-17
5791.819 4.9199e-17
5793.354 5.1729e-17
5794.89 4.5449e-17
5796.425 4.9187e-17
5797.96 5.5655e-17
5799.496 5.181e-17
5801.031 4.793e-17
5802.566 4.6315e-17
5804.102 4.8519e-17
5805.637 5.0706e-17
5807.172 5.4067e-17
5808.708 5.9126e-17
5810.243 4.9967e-17
5811.778 4.3117e-17
5813.314 4.5182e-17
5814.849 4.6804e-17
5816.384 4.9867e-17
5817.92 5.7753e-17
5819.455 5.2229e-17
5820.99 5.0232e-17
5822.526 5.1379e-17
5824.061 5.987e-17
5825.596 5.7573e-17
5827.132 5.4386e-17
5828.667 4.468e-17
5830.202 4.6321e-17
5831.738 5.5791e-17
5833.273 5.7937e-17
5834.808 5.8871e-17
5836.344 4.9722e-17
5837.879 5.1099e-17
5839.414 5.4892e-17
5840.95 5.2043e-17
5842.485 4.829e-17
5844.02 5.4746e-17
5845.556 5.7125e-17
5847.091 4.5373e-17
5848.626 4.5158e-17
5850.162 4.411e-17
5851.697 4.2817e-17
5853.232 4.7054e-17
5854.768 4.3908e-17
5856.303 4.3707e-17
5857.838 5.1463e-17
5859.374 5.2165e-17
5860.909 4.3281e-17
5862.444 3.7189e-17
5863.979 4.2696e-17
5865.515 4.4786e-17
5867.05 4.2521e-17
5868.585 4.4498e-17
5870.121 5.0965e-17
5871.656 4.5538e-17
5873.191 4.0965e-17
5874.727 4.1862e-17
5876.262 4.3966e-17
5877.797 4.993e-17
5879.333 5.0632e-17
5880.868 5.0052e-17
5882.403 4.6515e-17
5883.938 5.1066e-17
5885.474 5.6076e-17
5887.009 4.992e-17
5888.544 4.9414e-17
5890.08 5.8107e-17
5891.615 6.3353e-17
5893.15 6.5748e-17
5894.686 6.024e-17
5896.221 5.4567e-17
5897.756 4.0552e-17
5899.292 4.0507e-17
5900.827 4.5972e-17
5902.362 4.6291e-17
5903.897 4.3115e-17
5905.433 3.9523e-17
5906.968 4.3398e-17
5908.503 4.7472e-17
5910.039 4.5996e-17
5911.574 4.4126e-17
5913.109 4.821e-17
5914.645 5.1744e-17
5916.18 5.321e-17
5917.715 5.5073e-17
5919.25 5.4212e-17
5920.786 4.9177e-17
5922.321 5.529e-17
5923.856 6.0374e-17
5925.392 5.0261e-17
5926.927 4.5218e-17
5928.462 5.0963e-17
5929.998 4.9883e-17
5931.533 4.4648e-17
5933.068 4.4303e-17
5934.604 4.2596e-17
5936.139 4.4528e-17
5937.674 4.4966e-17
5939.21 4.2001e-17
5940.745 4.327e-17
5942.28 4.1869e-17
5943.816 4.2167e-17
5945.351 4.7776e-17
5946.886 4.9221e-17
5948.422 4.7248e-17
5949.957 5.1349e-17
5951.492 4.7157e-17
5953.028 4.2837e-17
5954.563 4.6264e-17
5956.098 4.9806e-17
5957.634 4.7146e-17
5959.169 4.86e-17
5960.704 5.0759e-17
5962.24 4.969e-17
5963.775 4.7241e-17
5965.31 4.5763e-17
5966.846 4.8426e-17
5968.381 4.8449e-17
5969.916 4.8429e-17
5971.452 4.5516e-17
5972.987 5.5327e-17
5974.522 5.141e-17
5976.058 3.5122e-17
5977.593 3.0935e-17
5979.128 4.3067e-17
5980.664 5.4013e-17
5982.199 5.1837e-17
5983.734 4.9077e-17
5985.269 4.4012e-17
5986.805 4.4723e-17
5988.34 4.3503e-17
5989.875 4.6467e-17
5991.411 5.0105e-17
5992.946 5.0887e-17
5994.481 4.6397e-17
5996.017 4.2192e-17
5997.552 4.3913e-17
5999.087 4.5713e-17
6000.623 3.9748e-17
6002.158 4.2335e-17
6003.693 4.9626e-17
6005.229 4.7128e-17
6006.764 4.3741e-17
6008.299 4.9913e-17
6009.834 5.1439e-17
6011.37 5.031e-17
6012.905 5.0369e-17
6014.44 4.8451e-17
6015.976 4.7581e-17
6017.511 4.298e-17
6019.046 4.3555e-17
6020.582 4.378e-17
6022.117 4.8281e-17
6023.652 4.7112e-17
6025.188 5.1312e-17
6026.723 4.0009e-17
6028.258 3.8772e-17
6029.793 4.5266e-17
6031.329 4.3965e-17
6032.864 4.8813e-17
6034.399 5.0151e-17
6035.935 4.0669e-17
6037.47 4.3025e-17
6039.005 3.7201e-17
6040.541 3.774e-17
6042.076 4.6449e-17
6043.611 4.5187e-17
6045.146 3.4399e-17
6046.682 3.4519e-17
6048.217 4.1608e-17
6049.752 4.1132e-17
6051.288 4.5806e-17
6052.823 4.2584e-17
6054.358 3.6374e-17
6055.894 4.5187e-17
6057.429 4.4249e-17
6058.964 4.0744e-17
6060.5 4.0179e-17
6062.035 3.5217e-17
6063.57 3.3597e-17
6065.106 3.6775e-17
6066.641 4.361e-17
6068.176 4.1387e-17
6069.712 4.0997e-17
6071.247 4.932e-17
6072.782 5.536e-17
6074.318 5.3162e-17
6075.853 4.7236e-17
6077.388 4.7755e-17
6078.924 4.6852e-17
6080.459 3.9233e-17
6081.994 4.1572e-17
6083.53 4.5366e-17
6085.065 4.649e-17
6086.6 4.8356e-17
6088.136 4.3629e-17
6089.671 3.7193e-17
6091.206 4.3242e-17
6092.742 4.9954e-17
6094.277 4.7953e-17
6095.812 4.4651e-17
6097.348 4.1087e-17
6098.883 4.108e-17
6100.418 4.5598e-17
6101.953 4.5493e-17
6103.489 4.6167e-17
6105.024 4.393e-17
6106.559 4.2071e-17
6108.095 4.7533e-17
6109.63 4.7049e-17
6111.165 4.255e-17
6112.701 3.6187e-17
6114.236 3.7427e-17
6115.771 4.3628e-17
6117.307 3.9954e-17
6118.842 3.8406e-17
6120.377 3.8504e-17
6121.913 3.6022e-17
6123.448 3.954e-17
6124.983 4.827e-17
6126.519 4.3976e-17
6128.054 3.4639e-17
6129.589 3.7262e-17
6131.125 4.3345e-17
6132.66 3.9898e-17
6134.195 3.8369e-17
6135.73 3.6298e-17
6137.266 3.6431e-17
6138.801 3.9893e-17
6140.336 4.0384e-17
6141.872 3.9699e-17
6143.407 4.0576e-17
6144.942 4.0264e-17
6146.478 4.2367e-17
6148.013 5.1448e-17
6149.548 4.6968e-17
6151.083 3.6792e-17
6152.619 3.623e-17
6154.154 4.2475e-17
6155.689 4.1274e-17
6157.225 3.6891e-17
6158.76 4.2077e-17
6160.295 4.0495e-17
6161.831 3.8475e-17
6163.366 4.5346e-17
6164.901 5.1924e-17
6166.437 4.7543e-17
6167.972 3.9196e-17
6169.507 3.923e-17
6171.042 3.9494e-17
6172.578 4.001e-17
6174.113 4.5627e-17
6175.648 4.545e-17
6177.184 4.1279e-17
6178.719 4.0411e-17
6180.254 4.1235e-17
6181.79 4.4293e-17
6183.325 5.2175e-17
6184.86 4.8239e-17
6186.396 4.0935e-17
6187.931 4.4718e-17
6189.466 4.2609e-17
6191.002 3.7822e-17
6192.537 3.7103e-17
6194.072 4.1298e-17
6195.608 4.5827e-17
6197.143 4.7136e-17
6198.678 4.3652e-17
6200.214 4.2316e-17
6201.749 4.4808e-17
6203.284 4.2283e-17
6204.82 4.1132e-17
6206.355 4.6204e-17
6207.89 4.8243e-17
6209.426 4.0564e-17
6210.961 4.2158e-17
6212.496 5.1619e-17
6214.032 4.9773e-17
6215.567 4.3426e-17
6217.102 4.1331e-17
6218.638 4.0369e-17
6220.173 4.421e-17
6221.708 4.9686e-17
6223.243 4.6183e-17
6224.779 4.4395e-17
6226.314 4.7353e-17
6227.849 4.3593e-17
6229.385 4.3087e-17
6230.92 4.1207e-17
6232.455 4.0645e-17
6233.991 4.3642e-17
6235.526 4.7403e-17
6237.061 4.3737e-17
6238.597 4.5902e-17
6240.132 4.9199e-17
6241.667 5.2945e-17
6243.203 5.0624e-17
6244.738 4.2699e-17
6246.273 4.9993e-17
6247.809 5.0393e-17
6249.344 4.2564e-17
6250.879 4.4111e-17
6252.415 4.2836e-17
6253.95 4.3812e-17
6255.485 3.682e-17
6257.021 3.4611e-17
6258.556 4.2879e-17
6260.091 4.0633e-17
6261.626 3.9891e-17
6263.162 4.8066e-17
6264.697 4.8636e-17
6266.232 4.6629e-17
6267.768 4.3865e-17
6269.303 4.1344e-17
6270.838 4.135e-17
6272.374 4.0146e-17
6273.909 4.2593e-17
6275.444 4.106e-17
6276.979 4.3407e-17
6278.515 4.2786e-17
6280.05 3.9714e-17
6281.585 3.8392e-17
6283.121 4.5509e-17
6284.656 4.7834e-17
6286.191 4.1865e-17
6287.727 4.5493e-17
6289.262 4.6227e-17
6290.797 3.8882e-17
6292.333 4.3135e-17
6293.868 4.2534e-17
6295.403 3.9331e-17
6296.938 5.2359e-17
6298.474 5.445e-17
6300.009 4.329e-17
6301.544 4.36e-17
6303.08 3.8364e-17
6304.615 4.7498e-17
6306.15 4.7575e-17
6307.686 4.6241e-17
6309.221 4.4009e-17
6310.756 4.2239e-17
6312.292 3.9878e-17
6313.827 3.8847e-17
6315.362 4.212e-17
6316.898 4.2067e-17
6318.433 4.0736e-17
6319.968 4.3034e-17
6321.504 4.8104e-17
6323.039 4.7216e-17
6324.574 4.3674e-17
6326.11 4.6124e-17
6327.645 4.6007e-17
6329.18 4.4315e-17
6330.716 4.2659e-17
6332.251 4.6641e-17
6333.786 5.0079e-17
6335.322 4.5761e-17
6336.857 4.0819e-17
6338.392 3.5977e-17
6339.927 3.8483e-17
6341.463 4.0979e-17
6342.998 3.8824e-17
6344.533 4.0948e-17
6346.069 4.659e-17
6347.604 4.6337e-17
6349.139 4.2633e-17
6350.675 3.7858e-17
6352.21 3.5877e-17
6353.745 4.1454e-17
6355.281 4.3724e-17
6356.816 3.8989e-17
6358.351 4.0409e-17
6359.887 5.2335e-17
6361.422 5.1492e-17
6362.957 4.3562e-17
6364.493 3.963e-17
6366.028 3.6898e-17
6367.563 4.0542e-17
6369.099 4.5609e-17
6370.634 4.3178e-17
6372.169 3.9208e-17
6373.705 4.1833e-17
6375.24 4.5983e-17
6376.775 5.0567e-17
6378.311 4.7347e-17
6379.846 4.2469e-17
6381.381 4.6136e-17
6382.917 4.7565e-17
6384.452 4.3533e-17
6385.987 4.4859e-17
6387.522 4.8002e-17
6389.058 4.5978e-17
6390.593 4.0192e-17
6392.128 4.0679e-17
6393.664 4.2992e-17
6395.199 4.4289e-17
6396.734 3.8803e-17
6398.27 3.7259e-17
6399.805 4.1677e-17
6401.34 4.2429e-17
6402.875 4.471e-17
6404.411 4.548e-17
6405.946 4.1744e-17
6407.481 4.1691e-17
6409.017 4.1163e-17
6410.552 4.0155e-17
6412.087 4.4268e-17
6413.623 4.6329e-17
6415.158 4.6527e-17
6416.693 4.2172e-17
6418.229 4.2282e-17
6419.764 4.6451e-17
6421.299 4.2826e-17
6422.834 3.7719e-17
6424.37 3.8477e-17
6425.905 4.172e-17
6427.44 3.9991e-17
6428.976 4.137e-17
6430.511 4.516e-17
6432.046 4.4372e-17
6433.582 4.0749e-17
6435.117 4.2888e-17
6436.652 4.5039e-17
6438.188 4.2815e-17
6439.723 4.0306e-17
6441.258 4.0315e-17
6442.794 4.1272e-17
6444.329 4.0588e-17
6445.864 3.8848e-17
6447.4 3.7588e-17
6448.935 3.8283e-17
6450.47 4.0551e-17
6452.006 4.1263e-17
6453.541 4.427e-17
6455.076 4.1169e-17
6456.612 4.0276e-17
6458.147 4.3885e-17
6459.682 4.2426e-17
6461.217 4.0987e-17
6462.753 3.5195e-17
6464.288 4.124e-17
6465.823 4.5359e-17
6467.359 4.2754e-17
6468.894 4.382e-17
6470.429 4.8908e-17
6471.965 4.4488e-17
6473.5 4.462e-17
6475.035 4.2161e-17
6476.571 4.0833e-17
6478.106 3.8376e-17
6479.641 3.8879e-17
6481.177 4.2057e-17
6482.712 3.9404e-17
6484.247 3.8125e-17
6485.783 4.0875e-17
6487.318 4.1194e-17
6488.853 4.2959e-17
6490.389 3.9493e-17
6491.924 3.6881e-17
6493.459 4.1659e-17
6494.995 4.1054e-17
6496.53 4.6168e-17
6498.065 4.5073e-17
6499.601 4.1843e-17
6501.136 3.7783e-17
6502.671 3.7693e-17
6504.207 3.9737e-17
6505.742 3.6143e-17
6507.277 3.6873e-17
6508.812 4.3408e-17
6510.348 3.8603e-17
6511.883 3.1189e-17
6513.418 3.6414e-17
6514.954 3.9525e-17
6516.489 3.9139e-17
6518.024 3.6466e-17
6519.56 3.6784e-17
6521.095 3.753e-17
6522.63 3.8872e-17
6524.166 4.0564e-17
6525.701 4.1436e-17
6527.236 3.9411e-17
6528.771 3.8152e-17
6530.307 3.5044e-17
6531.842 3.6183e-17
6533.377 3.986e-17
6534.913 3.8957e-17
6536.448 3.7481e-17
6537.983 3.9141e-17
6539.519 3.8871e-17
6541.054 3.952e-17
6542.589 3.8791e-17
6544.125 3.8676e-17
6545.66 4.2242e-17
6547.195 4.4955e-17
6548.73 4.3489e-17
6550.266 4.0586e-17
6551.801 4.3278e-17
6553.336 4.4473e-17
6554.872 4.2467e-17
6556.407 3.9309e-17
6557.942 3.7272e-17
6559.478 3.4587e-17
6561.013 3.2282e-17
6562.548 3.7949e-17
6564.084 4.2343e-17
6565.619 3.8318e-17
6567.154 3.7039e-17
6568.69 4.1094e-17
6570.225 4.6203e-17
6571.76 4.4775e-17
6573.296 4.383e-17
6574.831 3.9993e-17
6576.366 3.7955e-17
6577.901 3.6605e-17
6579.437 3.4077e-17
6580.972 3.6264e-17
6582.507 4.0359e-17
6584.043 4.4404e-17
6585.578 4.2268e-17
6587.113 4.4395e-17
6588.649 4.2295e-17
6590.184 4.0709e-17
6591.719 3.6139e-17
6593.255 3.2319e-17
6594.79 3.8218e-17
6596.325 4.256e-17
6597.861 4.0098e-17
6599.396 3.6135e-17
6600.931 3.3662e-17
6602.467 3.2248e-17
6604.002 3.8719e-17
6605.537 4.2496e-17
6607.073 3.5109e-17
6608.608 2.9878e-17
6610.143 3.2037e-17
6611.679 3.2571e-17
6613.214 3.1326e-17
6614.749 3.4565e-17
6616.285 3.9527e-17
6617.82 3.9919e-17
6619.355 3.7624e-17
6620.891 4.113e-17
6622.426 3.8927e-17
6623.961 3.3963e-17
6625.497 3.5402e-17
6627.032 3.8858e-17
6628.567 4.0228e-17
6630.103 3.9614e-17
6631.638 3.4713e-17
6633.173 3.3897e-17
6634.708 3.7033e-17
6636.244 3.547e-17
6637.779 3.4216e-17
6639.314 3.4174e-17
6640.85 3.8375e-17
6642.385 3.9377e-17
6643.92 3.3006e-17
6645.456 3.2428e-17
6646.991 3.7453e-17
6648.526 3.7542e-17
6650.062 3.4244e-17
6651.597 3.677e-17
6653.132 3.6151e-17
6654.667 3.4509e-17
6656.203 3.1141e-17
6657.738 3.2059e-17
6659.273 3.328e-17
6660.809 3.0979e-17
6662.344 3.5162e-17
6663.879 3.4175e-17
6665.415 2.9078e-17
6666.95 3.0786e-17
6668.485 3.4337e-17
6670.021 3.3416e-17
6671.556 2.8227e-17
6673.091 3.1669e-17
6674.626 3.3255e-17
6676.162 3.3278e-17
6677.697 3.4807e-17
6679.232 3.5625e-17
6680.768 3.5713e-17
6682.303 3.5089e-17
6683.838 3.1013e-17
6685.374 2.9436e-17
6686.909 3.2534e-17
6688.444 3.4095e-17
6689.98 3.5978e-17
6691.515 3.6669e-17
6693.05 3.4052e-17
6694.586 3.1292e-17
6696.121 3.0122e-17
6697.656 2.8189e-17
6699.191 2.9161e-17
6700.727 3.1532e-17
6702.262 3.316e-17
6703.797 3.0511e-17
6705.333 2.868e-17
6706.868 3.0675e-17
6708.403 3.4969e-17
6709.939 3.474e-17
6711.474 3.1862e-17
6713.009 3.1418e-17
6714.545 3.415e-17
6716.08 3.1989e-17
6717.615 2.6548e-17
6719.151 2.8809e-17
6720.686 2.9013e-17
6722.221 3.0888e-17
6723.757 3.1824e-17
6725.292 3.0212e-17
6726.827 3.1379e-17
6728.363 3.1123e-17
6729.898 2.7701e-17
6731.433 2.6721e-17
6732.969 2.8513e-17
6734.504 3.1283e-17
6736.039 3.011e-17
6737.575 2.8907e-17
6739.11 3.1599e-17
6740.645 3.0517e-17
6742.181 2.4761e-17
6743.716 2.3902e-17
6745.251 2.8338e-17
6746.787 3.4119e-17
6748.322 3.3304e-17
6749.857 2.9795e-17
6751.393 2.9965e-17
6752.928 3.0279e-17
6754.463 3.091e-17
6755.999 3.3477e-17
6757.534 3.5619e-17
6759.069 3.5949e-17
6760.604 3.9146e-17
6762.14 4.8905e-17
6763.675 5.072e-17
6765.21 4.2537e-17
6766.746 3.7069e-17
6768.281 3.4894e-17
6769.816 3.2982e-17
6771.352 2.9281e-17
6772.887 3.0316e-17
6774.422 3.2749e-17
6775.958 2.916e-17
6777.493 2.6964e-17
6779.028 3.0458e-17
6780.563 3.307e-17
6782.099 3.0487e-17
6783.634 2.6405e-17
6785.169 2.2881e-17
6786.705 2.7409e-17
6788.24 3.0699e-17
6789.775 3.3394e-17
6791.311 3.1151e-17
6792.846 2.4433e-17
6794.381 2.2385e-17
6795.917 2.5889e-17
6797.452 3.0387e-17
6798.987 3.5331e-17
6800.522 4.1364e-17
6802.058 4.5523e-17
6803.593 4.9369e-17
6805.128 4.8997e-17
6806.664 4.3339e-17
6808.199 3.6932e-17
6809.734 2.9614e-17
6811.27 2.62e-17
6812.805 2.9171e-17
6814.34 2.832e-17
6815.876 2.625e-17
6817.411 2.5205e-17
6818.946 2.677e-17
6820.481 3.2304e-17
6822.017 3.0398e-17
6823.552 2.7156e-17
6825.087 3.1748e-17
6826.623 2.9904e-17
6828.158 2.9103e-17
6829.693 3.2369e-17
6831.229 3.0086e-17
6832.764 2.9337e-17
6834.299 3.1694e-17
6835.835 3.3486e-17
6837.37 3.24e-17
6838.905 2.969e-17
6840.441 2.9463e-17
6841.976 3.231e-17
6843.511 3.5026e-17
6845.047 3.5038e-17
6846.582 3.4721e-17
6848.117 3.2048e-17
6849.653 3.0194e-17
6851.188 2.947e-17
6852.723 2.787e-17
6854.259 2.9896e-17
6855.794 2.7705e-17
6857.329 2.4063e-17
6858.865 2.7858e-17
6860.4 3.0146e-17
6861.935 3.1612e-17
6863.471 3.3739e-17
6865.006 2.8261e-17
6866.541 2.3993e-17
6868.077 2.5463e-17
6869.612 2.7419e-17
6871.147 2.6612e-17
6872.683 2.754e-17
6874.218 3.4748e-17
6875.753 3.6665e-17
6877.289 3.685e-17
6878.824 3.4641e-17
6880.359 3.0021e-17
6881.895 3.1204e-17
6883.43 3.2149e-17
6884.965 3.5118e-17
6886.5 3.3705e-17
6888.036 2.939e-17
6889.571 2.8106e-17
6891.106 2.527e-17
6892.642 3.0344e-17
6894.177 3.4385e-17
6895.712 3.1768e-17
6897.248 3.4641e-17
6898.783 3.7094e-17
6900.318 3.4168e-17
6901.854 3.2359e-17
6903.389 3.4161e-17
6904.924 3.6368e-17
6906.459 3.0857e-17
6907.995 3.2298e-17
6909.53 3.8988e-17
6911.065 3.7456e-17
6912.601 3.5602e-17
6914.136 3.6958e-17
6915.671 3.2946e-17
6917.207 3.2813e-17
6918.742 3.865e-17
6920.277 3.6007e-17
6921.812 3.6446e-17
6923.348 4.0417e-17
6924.883 3.5979e-17
6926.418 3.2154e-17
6927.954 3.0847e-17
6929.489 3.0835e-17
6931.024 3.1287e-17
6932.56 3.0637e-17
6934.095 3.3749e-17
6935.63 3.6593e-17
6937.166 4.4764e-17
6938.701 6.5267e-17
6940.236 7.9738e-17
6941.771 7.5326e-17
6943.307 6.2274e-17
6944.842 5.0355e-17
6946.377 4.1553e-17
6947.913 3.6533e-17
6949.448 3.1188e-17
6950.983 3.1045e-17
6952.519 3.1991e-17
6954.054 2.9182e-17
6955.589 2.8592e-17
6957.125 3.3082e-17
6958.66 3.8296e-17
6960.195 3.9753e-17
6961.731 3.5168e-17
6963.266 3.3026e-17
6964.801 3.3703e-17
6966.337 3.2494e-17
6967.872 3.036e-17
6969.407 3.0999e-17
6970.943 3.4448e-17
6972.478 3.2671e-17
6974.013 3.4616e-17
6975.549 3.68e-17
6977.084 3.2368e-17
6978.619 3.3729e-17
6980.155 3.26e-17
6981.69 2.6444e-17
6983.225 2.7616e-17
6984.761 2.4872e-17
6986.296 2.7105e-17
6987.831 3.3188e-17
6989.367 2.9978e-17
6990.902 2.8941e-17
6992.437 2.8209e-17
6993.973 2.8982e-17
6995.508 3.3162e-17
6997.043 3.0659e-17
6998.579 2.9534e-17
7000.114 3.2835e-17
7001.649 3.7887e-17
7003.185 5.2972e-17
7004.72 8.9522e-17
7006.255 1.3801e-16
7007.791 1.519e-16
7009.326 1.1789e-16
7010.861 7.6611e-17
7012.396 5.2134e-17
7013.932 4.2313e-17
7015.467 3.3471e-17
7017.002 2.7866e-17
7018.538 2.7509e-17
7020.073 2.9716e-17
7021.608 2.9042e-17
7023.144 2.6321e-17
7024.679 2.5111e-17
7026.214 2.5661e-17
7027.75 2.7799e-17
7029.285 2.7493e-17
7030.82 2.6677e-17
7032.355 2.4448e-17
7033.891 2.5991e-17
7035.426 3.56e-17
7036.961 4.0806e-17
7038.497 4.0807e-17
7040.032 4.4692e-17
7041.567 4.1888e-17
7043.103 3.2e-17
7044.638 2.7686e-17
7046.173 2.8401e-17
7047.708 3.0707e-17
7049.244 2.9079e-17
7050.779 2.7417e-17
7052.314 2.7718e-17
7053.85 2.7144e-17
7055.385 2.8241e-17
7056.92 2.9181e-17
7058.456 2.6384e-17
7059.991 2.5077e-17
7061.526 2.5306e-17
7063.062 2.6924e-17
7064.597 3.2052e-17
7066.132 2.9702e-17
7067.667 2.6057e-17
7069.203 2.3834e-17
7070.738 2.3191e-17
7072.273 2.6277e-17
7073.809 2.6303e-17
7075.344 2.9075e-17
7076.879 3.0149e-17
7078.415 2.6887e-17
7079.95 2.772e-17
7081.485 3.0673e-17
7083.021 2.7727e-17
7084.556 2.6884e-17
7086.091 3.2188e-17
7087.627 2.767e-17
7089.162 2.5036e-17
7090.697 2.9335e-17
7092.233 2.8528e-17
7093.768 2.4339e-17
7095.303 2.3469e-17
7096.839 2.622e-17
7098.374 2.6771e-17
7099.909 2.9708e-17
7101.445 2.9812e-17
7102.98 2.3895e-17
7104.515 2.5364e-17
7106.051 3.3617e-17
7107.586 3.0059e-17
7109.121 2.8308e-17
7110.657 3.2927e-17
7112.192 3.1201e-17
7113.727 2.5419e-17
7115.263 3.016e-17
7116.798 3.2352e-17
7118.333 3.2712e-17
7119.869 3.432e-17
7121.404 3.5029e-17
7122.939 3.585e-17
7124.475 3.2473e-17
7126.01 3.0886e-17
7127.545 3.0121e-17
7129.081 3.0715e-17
7130.616 3.4278e-17
7132.151 3.3521e-17
7133.687 3.1504e-17
7135.222 3.2355e-17
7136.757 3.0178e-17
7138.292 2.8935e-17
7139.828 3.1487e-17
7141.363 3.2661e-17
7142.898 3.3585e-17
7144.434 3.5053e-17
7145.969 3.6837e-17
7147.504 3.472e-17
7149.04 3.406e-17
7150.575 3.7068e-17
7152.11 3.6287e-17
7153.646 3.104e-17
7155.181 3.1044e-17
7156.716 3.3013e-17
7158.251 3.1604e-17
7159.787 2.9992e-17
7161.322 2.8722e-17
7162.857 3.1034e-17
7164.393 3.5429e-17
7165.928 3.4651e-17
7167.463 3.1553e-17
7168.999 3.172e-17
7170.534 3.6202e-17
7172.069 3.6758e-17
7173.604 3.2131e-17
7175.14 3.0563e-17
7176.675 2.9626e-17
7178.21 3.0615e-17
7179.746 2.8815e-17
7181.281 2.8859e-17
7182.816 2.6729e-17
7184.352 2.7716e-17
7185.887 3.1673e-17
7187.422 3.377e-17
7188.958 3.1188e-17
7190.493 3.172e-17
7192.028 3.0346e-17
7193.563 2.7323e-17
7195.099 2.9311e-17
7196.634 3.1251e-17
7198.169 3.3178e-17
7199.705 3.1456e-17
7201.24 3.0328e-17
7202.775 3.4386e-17
7204.311 3.4813e-17
7205.846 3.218e-17
7207.381 3.1255e-17
7208.917 3.0553e-17
7210.452 3.0968e-17
7211.987 3.2727e-17
7213.523 3.4555e-17
7215.058 3.3791e-17
7216.593 2.9467e-17
7218.129 2.6816e-17
7219.664 2.8454e-17
7221.199 3.2111e-17
7222.735 3.1748e-17
7224.27 3.2273e-17
7225.805 3.5355e-17
7227.341 3.3866e-17
7228.876 3.2345e-17
7230.411 3.3772e-17
7231.947 3.7618e-17
7233.482 4.0156e-17
7235.017 3.8918e-17
7236.553 3.3221e-17
7238.088 3.8412e-17
7239.623 4.0795e-17
7241.159 3.156e-17
7242.694 3.1638e-17
7244.229 3.7813e-17
7245.765 3.2966e-17
7247.3 2.7051e-17
7248.835 3.0874e-17
7250.371 3.2854e-17
7251.906 3.2427e-17
7253.441 3.392e-17
7254.977 3.5565e-17
7256.512 3.6282e-17
7258.047 3.704e-17
7259.583 3.3289e-17
7261.118 3.3148e-17
7262.653 3.207e-17
7264.188 3.0215e-17
7265.724 3.3082e-17
7267.259 3.4972e-17
7268.794 3.0517e-17
7270.33 2.6669e-17
7271.865 3.2547e-17
7273.4 3.682e-17
7274.936 4.2823e-17
7276.471 4.5302e-17
7278.006 3.334e-17
7279.542 3.1241e-17
7281.077 3.9312e-17
7282.612 4.0235e-17
7284.147 3.4475e-17
7285.683 3.0138e-17
7287.218 3.2905e-17
7288.753 3.2448e-17
7290.289 3.2789e-17
7291.824 3.2852e-17
7293.359 3.2874e-17
7294.895 2.9651e-17
7296.43 2.9552e-17
7297.965 3.0006e-17
7299.5 3.1506e-17
7301.036 3.2946e-17
7302.571 3.331e-17
7304.106 3.2751e-17
7305.642 3.2121e-17
7307.177 3.2477e-17
7308.712 3.2564e-17
7310.248 3.4593e-17
7311.783 2.9007e-17
7313.318 2.8277e-17
7314.854 3.5631e-17
7316.389 3.3791e-17
7317.924 2.784e-17
7319.459 2.7198e-17
7320.995 3.5076e-17
7322.53 3.6508e-17
7324.065 3.3648e-17
7325.601 3.4884e-17
7327.136 3.2385e-17
7328.671 2.9106e-17
7330.207 3.0059e-17
7331.742 3.1472e-17
7333.277 3.3594e-17
7334.813 3.3178e-17
7336.348 3.2355e-17
7337.883 3.0068e-17
7339.419 2.2911e-17
7340.954 2.5346e-17
7342.489 2.5459e-17
7344.025 2.8006e-17
7345.56 2.6707e-17
7347.095 2.3969e-17
7348.631 2.7225e-17
7350.166 2.8797e-17
7351.701 2.6438e-17
7353.237 2.7029e-17
7354.772 3.109e-17
7356.307 3.4708e-17
7357.843 3.4051e-17
7359.378 3.1596e-17
7360.913 2.7533e-17
7362.449 2.8556e-17
7363.984 3.1835e-17
7365.519 3.0616e-17
7367.055 3.4758e-17
7368.59 3.3933e-17
7370.125 3.1641e-17
7371.661 3.0018e-17
7373.196 2.8111e-17
7374.731 2.4831e-17
7376.267 2.8167e-17
7377.802 3.1793e-17
7379.337 2.873e-17
7380.873 2.8259e-17
7382.408 3.0767e-17
7383.943 2.7987e-17
7385.479 2.814e-17
7387.014 3.1474e-17
7388.549 3.0533e-17
7390.084 3.0853e-17
7391.62 3.3478e-17
7393.155 3.1688e-17
7394.69 2.8534e-17
7396.226 2.7475e-17
7397.761 3.1191e-17
7399.296 2.7323e-17
7400.832 2.4294e-17
7402.367 2.5461e-17
7403.902 2.5724e-17
7405.438 2.8415e-17
7406.973 2.8316e-17
7408.508 2.7385e-17
7410.043 2.6081e-17
7411.579 2.5389e-17
7413.114 2.6252e-17
7414.649 2.8571e-17
7416.185 2.7404e-17
7417.72 2.7312e-17
7419.255 2.6456e-17
7420.791 2.4003e-17
7422.326 2.4869e-17
7423.861 2.9616e-17
7425.396 3.1246e-17
7426.932 2.9367e-17
7428.467 2.9236e-17
7430.002 2.954e-17
7431.538 2.8605e-17
7433.073 2.8499e-17
7434.608 2.7427e-17
7436.144 2.197e-17
7437.679 2.7022e-17
7439.214 3.073e-17
7440.75 2.9417e-17
7442.285 2.758e-17
7443.82 2.9439e-17
7445.355 3.0231e-17
7446.891 3.2845e-17
7448.426 2.9891e-17
7449.961 2.5595e-17
7451.497 2.6637e-17
7453.032 2.6388e-17
7454.567 2.5167e-17
7456.103 2.6313e-17
7457.638 2.7448e-17
7459.173 2.9165e-17
7460.709 2.9176e-17
7462.244 2.968e-17
7463.779 2.751e-17
7465.315 2.7849e-17
7466.85 2.8359e-17
7468.385 2.8005e-17
7469.921 2.792e-17
7471.456 3.1735e-17
7472.991 3.166e-17
7474.527 2.8645e-17
7476.062 2.3031e-17
7477.597 2.0374e-17
7479.133 2.795e-17
7480.668 2.3965e-17
7482.203 2.1627e-17
7483.739 2.9257e-17
7485.274 3.0253e-17
7486.809 2.5204e-17
7488.345 2.5447e-17
7489.88 2.5792e-17
7491.415 2.4916e-17
7492.951 2.6319e-17
7494.486 2.9281e-17
7496.021 2.8414e-17
7497.557 2.6694e-17
7499.092 2.6531e-17
7500.627 2.8223e-17
7502.163 2.9163e-17
7503.698 2.8862e-17
7505.233 2.7416e-17
7506.769 2.5492e-17
7508.304 2.5762e-17
7509.839 2.5169e-17
7511.375 2.3038e-17
7512.91 2.3007e-17
7514.445 2.7626e-17
7515.98 2.46e-17
7517.516 2.1723e-17
7519.051 2.7376e-17
7520.586 2.7826e-17
7522.122 2.5514e-17
7523.657 2.4599e-17
7525.192 2.8376e-17
7526.728 2.694e-17
7528.263 2.6515e-17
7529.798 3.1261e-17
7531.333 2.8503e-17
7532.869 2.3715e-17
7534.404 2.5404e-17
7535.939 2.8516e-17
7537.475 2.8646e-17
7539.01 2.7025e-17
7540.545 2.5876e-17
7542.081 2.7679e-17
7543.616 2.7718e-17
7545.151 2.5855e-17
7546.687 2.4336e-17
7548.222 2.4756e-17
7549.757 2.4504e-17
7551.292 2.4792e-17
7552.828 2.5402e-17
7554.363 2.4336e-17
7555.898 2.4043e-17
7557.434 2.3532e-17
7558.969 2.3986e-17
7560.504 2.8065e-17
7562.04 2.9206e-17
7563.575 2.4497e-17
7565.11 2.1201e-17
7566.646 2.4222e-17
7568.181 2.9348e-17
7569.716 3.0288e-17
7571.251 2.5399e-17
7572.787 2.2431e-17
7574.322 2.2119e-17
7575.857 1.872e-17
7577.393 1.6526e-17
7578.928 2.0694e-17
7580.463 2.3939e-17
7581.999 2.7594e-17
7583.534 2.8814e-17
7585.069 2.3565e-17
7586.605 1.996e-17
7588.14 2.033e-17
7589.675 2.2492e-17
7591.211 2.3861e-17
7592.746 2.4636e-17
7594.281 2.3098e-17
7595.817 2.0659e-17
7597.352 1.8517e-17
7598.887 2.168e-17
7600.423 2.7698e-17
7601.958 2.4702e-17
7603.493 1.9892e-17
7605.029 2.3537e-17
7606.564 2.6901e-17
7608.099 2.0258e-17
7609.635 1.5924e-17
7611.17 1.602e-17
7612.705 1.8274e-17
7614.241 2.2798e-17
7615.776 2.5783e-17
7617.311 2.1155e-17
7618.847 1.6903e-17
7620.382 1.809e-17
7621.917 1.7408e-17
7623.453 1.8956e-17
7624.988 2.0205e-17
7626.523 1.9601e-17
7628.059 2.1384e-17
7629.594 1.9022e-17
7631.129 1.5126e-17
7632.665 1.504e-17
7634.2 1.831e-17
7635.735 2.1034e-17
7637.271 1.9386e-17
7638.806 1.891e-17
7640.341 2.3083e-17
7641.876 2.2734e-17
7643.412 1.9448e-17
7644.947 1.8494e-17
7646.482 1.5796e-17
7648.018 1.7936e-17
7649.553 2.1372e-17
7651.088 1.9773e-17
7652.624 1.6359e-17
7654.159 1.9463e-17
7655.694 2.4798e-17
7657.229 2.4701e-17
7658.765 2.38e-17
7660.3 2.1387e-17
7661.835 2.2052e-17
7663.371 2.2085e-17
7664.906 2.1237e-17
7666.441 1.9904e-17
7667.977 2.3304e-17
7669.512 2.3533e-17
7671.047 2.1734e-17
7672.583 2.3393e-17
7674.118 2.2319e-17
7675.653 2.1752e-17
7677.188 2.335e-17
7678.724 2.3884e-17
7680.259 2.3763e-17
7681.794 1.9907e-17
7683.33 1.7518e-17
7684.865 2.3287e-17
7686.4 2.4392e-17
7687.936 2.5451e-17
7689.471 2.584e-17
7691.006 2.5414e-17
7692.542 2.7193e-17
7694.077 2.6664e-17
7695.612 2.3791e-17
7697.147 2.2109e-17
7698.683 2.3614e-17
7700.218 2.357e-17
7701.753 2.1286e-17
7703.289 2.133e-17
7704.824 2.2568e-17
7706.359 2.2886e-17
7707.895 2.4542e-17
7709.43 2.1644e-17
7710.965 2.3297e-17
7712.501 2.71e-17
7714.036 2.433e-17
7715.571 2.369e-17
7717.107 2.3379e-17
7718.642 2.3645e-17
7720.177 2.0657e-17
7721.713 1.9699e-17
7723.248 2.1652e-17
7724.783 2.2897e-17
7726.319 2.1549e-17
7727.854 2.0783e-17
7729.389 2.1501e-17
7730.925 2.0114e-17
7732.46 2.1379e-17
7733.995 2.1072e-17
7735.531 1.8155e-17
7737.066 1.588e-17
7738.601 1.8593e-17
7740.137 2.1373e-17
7741.672 2.3248e-17
7743.207 2.4364e-17
7744.743 1.6498e-17
7746.278 1.9408e-17
7747.813 3.1038e-17
7749.349 2.989e-17
7750.884 2.1931e-17
7752.419 1.8706e-17
7753.955 2.0336e-17
7755.49 2.1612e-17
7757.025 2.0655e-17
7758.561 2.1539e-17
7760.096 2.3658e-17
7761.631 2.2704e-17
7763.167 2.1555e-17
7764.702 2.0512e-17
7766.237 2.0159e-17
7767.772 2.3133e-17
7769.308 1.811e-17
7770.843 1.4417e-17
7772.378 1.9084e-17
7773.914 2.5845e-17
7775.449 2.6731e-17
7776.984 2.2881e-17
7778.52 2.0516e-17
7780.055 1.6687e-17
7781.59 1.5695e-17
7783.125 1.9444e-17
7784.661 2.4459e-17
7786.196 2.5061e-17
7787.731 2.3322e-17
7789.267 2.1147e-17
7790.802 2.129e-17
7792.337 2.4882e-17
7793.873 2.6971e-17
7795.408 2.0879e-17
7796.943 2.089e-17
7798.479 1.9781e-17
7800.014 2.3367e-17
7801.549 2.4563e-17
7803.084 2.1999e-17
7804.62 1.6807e-17
7806.155 1.5867e-17
7807.69 1.8421e-17
7809.226 1.8628e-17
7810.761 1.9158e-17
7812.296 2.0537e-17
7813.832 1.9332e-17
7815.367 1.9701e-17
7816.902 2.3719e-17
7818.438 2.5042e-17
7819.973 2.5994e-17
7821.508 2.4461e-17
7823.043 2.2179e-17
7824.579 1.906e-17
7826.114 1.8858e-17
7827.649 2.1154e-17
7829.185 2.503e-17
7830.72 1.9774e-17
7832.255 1.7979e-17
7833.791 2.1186e-17
7835.326 2.5578e-17
7836.861 2.2329e-17
7838.397 1.7602e-17
7839.932 2.4897e-17
7841.467 2.7944e-17
7843.003 2.2538e-17
7844.538 1.9931e-17
7846.073 2.0257e-17
7847.609 2.1135e-17
7849.144 2.6517e-17
7850.679 2.6925e-17
7852.215 1.8727e-17
7853.75 2.2763e-17
7855.285 2.6534e-17
7856.821 2.4858e-17
7858.356 2.5619e-17
7859.891 2.4378e-17
7861.427 2.1726e-17
7862.962 2.0327e-17
7864.497 1.9944e-17
7866.033 2.2587e-17
7867.568 2.3988e-17
7869.103 1.9011e-17
7870.639 1.43e-17
7872.174 1.5393e-17
7873.709 1.8084e-17
7875.245 2.0228e-17
7876.78 1.8956e-17
7878.315 1.5653e-17
7879.851 1.6335e-17
7881.386 1.9214e-17
7882.921 1.9728e-17
7884.457 1.9012e-17
7885.992 2.1508e-17
7887.527 1.9087e-17
7889.062 1.6137e-17
7890.598 2.1708e-17
7892.133 2.4064e-17
7893.668 1.8746e-17
7895.204 1.7427e-17
7896.739 1.7829e-17
7898.274 1.6716e-17
7899.81 1.8048e-17
7901.345 1.6471e-17
7902.88 1.4752e-17
7904.416 1.6946e-17
7905.951 1.5946e-17
7907.486 1.18e-17
7909.021 1.5398e-17
7910.557 2.2256e-17
7912.092 2.5013e-17
7913.627 2.4824e-17
7915.163 1.796e-17
7916.698 1.5251e-17
7918.233 1.663e-17
7919.769 1.6584e-17
7921.304 1.8578e-17
7922.839 1.8892e-17
7924.375 2.0339e-17
7925.91 1.9925e-17
7927.445 1.802e-17
7928.98 1.918e-17
7930.516 2.4555e-17
7932.051 2.8218e-17
7933.586 2.3779e-17
7935.122 1.9386e-17
7936.657 2.1102e-17
7938.192 1.971e-17
7939.728 1.9818e-17
7941.263 2.2583e-17
7942.798 2.5888e-17
7944.333 2.6192e-17
7945.869 2.3964e-17
7947.404 2.1867e-17
7948.939 2.1579e-17
7950.475 2.1091e-17
7952.01 1.8715e-17
7953.545 1.9039e-17
7955.081 2.0679e-17
7956.616 1.7674e-17
7958.151 1.6984e-17
7959.687 1.8203e-17
7961.222 1.9939e-17
7962.757 2.2797e-17
7964.293 2.7289e-17
7965.828 2.2754e-17
7967.363 1.8437e-17
7968.899 2.0621e-17
7970.434 1.9169e-17
7971.969 1.9061e-17
7973.505 1.7941e-17
7975.04 1.9051e-17
7976.575 2.3279e-17
7978.111 2.5559e-17
7979.646 1.8791e-17
7981.181 1.8915e-17
7982.717 1.8349e-17
7984.252 1.8418e-17
7985.787 1.4196e-17
7987.323 1.3296e-17
7988.858 1.8775e-17
7990.393 1.853e-17
7991.929 1.294e-17
7993.464 1.25e-17
7994.999 1.5655e-17
7996.535 1.9679e-17
7998.07 2.1493e-17
7999.605 2.2895e-17
8001.141 1.8779e-17
8002.676 1.5829e-17
8004.211 1.5461e-17
8005.747 1.734e-17
8007.282 2.0658e-17
8008.817 2.0982e-17
8010.352 1.9797e-17
8011.888 2.3546e-17
8013.423 2.3093e-17
8014.958 2.0429e-17
8016.494 1.8542e-17
8018.029 1.5759e-17
8019.564 1.6351e-17
8021.1 1.8513e-17
8022.635 2.0178e-17
8024.17 1.8987e-17
8025.706 1.8435e-17
8027.241 1.8424e-17
8028.776 1.5132e-17
8030.312 1.6673e-17
8031.847 1.8654e-17
8033.382 1.8289e-17
8034.917 2.035e-17
8036.453 2.1045e-17
8037.988 1.8697e-17
8039.523 1.6388e-17
8041.059 1.7128e-17
8042.594 1.9276e-17
8044.129 1.8571e-17
8045.665 1.66e-17
8047.2 1.5747e-17
8048.735 1.3698e-17
8050.271 1.4884e-17
8051.806 2.0034e-17
8053.341 1.7384e-17
8054.876 1.6366e-17
8056.412 1.8126e-17
8057.947 1.8921e-17
8059.482 1.9769e-17
8061.018 1.6938e-17
8062.553 1.5544e-17
8064.088 1.7706e-17
8065.624 1.9404e-17
8067.159 1.547e-17
8068.694 1.7112e-17
8070.229 1.7001e-17
8071.765 1.6735e-17
8073.3 1.9027e-17
8074.835 1.7079e-17
8076.371 1.3537e-17
8077.906 1.3802e-17
8079.441 1.5445e-17
8080.977 1.6315e-17
8082.512 1.651e-17
8084.047 1.552e-17
8085.583 1.6683e-17
8087.118 1.9648e-17
8088.653 1.9937e-17
8090.189 2.0454e-17
8091.724 1.6609e-17
8093.259 1.5745e-17
8094.795 1.5877e-17
8096.33 1.5376e-17
8097.865 1.6869e-17
8099.401 1.8175e-17
8100.936 2.1217e-17
8102.471 2.101e-17
8104.007 1.8796e-17
8105.542 1.7906e-17
8107.077 1.5442e-17
8108.613 1.7498e-17
8110.148 1.747e-17
8111.683 1.613e-17
8113.219 1.6607e-17
8114.754 1.745e-17
8116.289 1.891e-17
8117.825 1.7849e-17
8119.36 1.6144e-17
8120.895 1.6463e-17
8122.431 1.765e-17
8123.966 1.8169e-17
8125.501 1.816e-17
8127.037 1.807e-17
8128.572 1.9149e-17
8130.107 2.0709e-17
8131.642 2.2385e-17
8133.178 2.3593e-17
8134.713 2.1263e-17
8136.248 1.7583e-17
8137.784 1.409e-17
8139.319 1.4904e-17
8140.854 1.9602e-17
8142.39 1.8602e-17
8143.925 1.3965e-17
8145.46 1.7791e-17
8146.996 2.1946e-17
8148.531 1.6879e-17
8150.066 1.4487e-17
8151.602 1.7309e-17
8153.137 1.9714e-17
8154.672 2.0122e-17
8156.208 1.8968e-17
8157.743 1.8009e-17
8159.278 1.5957e-17
8160.813 1.8053e-17
8162.349 1.9415e-17
8163.884 1.6499e-17
8165.419 1.5272e-17
8166.955 1.609e-17
8168.49 1.9606e-17
8170.025 2.0889e-17
8171.561 2.1396e-17
8173.096 1.9877e-17
8174.631 1.5311e-17
8176.167 1.3842e-17
8177.702 1.7433e-17
8179.237 2.0918e-17
8180.772 2.1836e-17
8182.308 2.2361e-17
8183.843 2.2449e-17
8185.378 1.9386e-17
8186.914 1.6523e-17
8188.449 1.437e-17
8189.984 1.8577e-17
8191.52 2.1851e-17
8193.055 1.8434e-17
8194.59 1.9181e-17
8196.126 2.1855e-17
8197.661 2.2245e-17
8199.196 2.245e-17
8200.731 2.3193e-17
8202.267 1.8739e-17
8203.802 1.3746e-17
8205.338 1.5622e-17
8206.873 1.6367e-17
8208.408 1.5207e-17
8209.943 1.3714e-17
8211.479 1.655e-17
8213.014 1.6863e-17
8214.55 1.8225e-17
8216.085 2.1044e-17
8217.62 1.9019e-17
8219.155 1.7601e-17
8220.69 2.1055e-17
8222.226 2.1175e-17
8223.762 1.7791e-17
8225.297 1.834e-17
8226.832 1.8487e-17
8228.367 1.4775e-17
8229.902 1.5924e-17
8231.438 1.7724e-17
8232.974 2.0986e-17
8234.509 1.9594e-17
8236.044 1.7893e-17
8237.579 1.5936e-17
8239.114 1.559e-17
8240.649 1.5348e-17
8242.186 1.552e-17
8243.721 1.5667e-17
8245.256 1.5488e-17
8246.791 1.5393e-17
8248.326 1.4988e-17
8249.861 1.4609e-17
8251.397 1.6207e-17
8252.933 1.6452e-17
8254.468 1.7108e-17
8256.003 1.8767e-17
8257.538 1.6199e-17
8259.073 1.6456e-17
8260.609 1.7852e-17
8262.145 1.9115e-17
8263.68 1.8227e-17
8265.215 1.5868e-17
8266.75 1.7729e-17
8268.285 1.8833e-17
8269.821 1.9608e-17
8271.356 1.7473e-17
8272.892 1.6561e-17
8274.427 2.0148e-17
8275.962 2.116e-17
8277.497 1.5078e-17
8279.033 1.6774e-17
8280.568 2.2019e-17
8282.104 1.6755e-17
8283.639 1.5378e-17
8285.174 1.5442e-17
8286.709 1.2633e-17
8288.245 1.3986e-17
8289.78 1.8844e-17
8291.315 1.6638e-17
8292.851 1.6881e-17
8294.386 1.8068e-17
8295.921 1.2478e-17
8297.457 1.0823e-17
8298.992 1.8891e-17
8300.527 2.23e-17
8302.062 1.6979e-17
8303.598 1.4111e-17
8305.133 1.4643e-17
8306.668 1.5578e-17
8308.204 1.6372e-17
8309.739 1.8512e-17
8311.274 2.0084e-17
8312.81 1.9623e-17
8314.345 2.0304e-17
8315.88 1.8934e-17
8317.416 1.5028e-17
8318.951 1.5458e-17
8320.486 1.8639e-17
8322.021 1.7753e-17
8323.557 1.3945e-17
8325.092 1.5602e-17
8326.628 1.7147e-17
8328.163 1.5414e-17
8329.698 1.6899e-17
8331.233 1.7213e-17
8332.769 1.6086e-17
8334.304 1.8513e-17
8335.84 1.6514e-17
8337.375 1.4255e-17
8338.91 1.6092e-17
8340.445 2.261e-17
8341.98 1.8436e-17
8343.516 1.0975e-17
8345.052 1.545e-17
8346.587 9.0133e-18
8348.122 1.0249e-17
8349.657 2.0784e-17
8351.192 1.9184e-17
8352.728 1.7788e-17
8354.264 1.4938e-17
8355.799 1.1441e-17
8357.334 1.506e-17
8358.869 1.9788e-17
8360.404 1.8042e-17
8361.939 1.562e-17
8363.476 1.692e-17
8365.011 1.6115e-17
8366.546 1.6634e-17
8368.081 1.9292e-17
8369.616 2.0036e-17
8371.151 1.6628e-17
8372.688 1.2865e-17
8374.223 1.673e-17
8375.758 2.2153e-17
8377.293 1.8858e-17
8378.828 1.1634e-17
8380.363 1.4483e-17
8381.899 1.9218e-17
8383.435 1.9625e-17
8384.97 1.8557e-17
8386.505 1.7411e-17
8388.04 1.9621e-17
8389.575 1.8166e-17
8391.111 1.5738e-17
8392.646 1.2066e-17
8394.182 1.2924e-17
8395.717 2.1925e-17
8397.252 2.8603e-17
8398.787 2.073e-17
8400.323 1.1848e-17
8401.858 1.2551e-17
8403.394 1.405e-17
8404.929 1.3334e-17
8406.464 1.35e-17
8407.999 1.4314e-17
8409.535 1.5705e-17
8411.07 1.8105e-17
8412.605 1.7167e-17
8414.141 1.6403e-17
8415.676 1.9171e-17
8417.211 2.1466e-17
8418.747 1.2379e-17
8420.282 9.9002e-18
8421.817 1.5083e-17
8423.353 1.4981e-17
8424.888 1.1179e-17
8426.423 9.4533e-18
8427.958 7.6359e-18
8429.494 7.2462e-18
8431.029 8.5118e-18
8432.564 6.5189e-18
8434.1 1.0077e-17
8435.635 1.543e-17
8437.17 1.6841e-17
8438.706 1.4573e-17
8440.241 1.3271e-17
8441.776 1.5112e-17
8443.312 1.5579e-17
8444.847 1.5508e-17
8446.382 1.6351e-17
8447.918 1.8962e-17
8449.453 2.3222e-17
8450.988 2.2229e-17
8452.523 1.8508e-17
8454.059 1.8017e-17
8455.594 1.959e-17
8457.13 1.6559e-17
8458.665 1.6189e-17
8460.2 1.6152e-17
8461.735 1.8842e-17
8463.271 1.3275e-17
8464.806 1.8582e-17
8466.342 2.3433e-17
8467.877 1.3654e-17
8469.412 1.3767e-17
8470.947 1.6864e-17
8472.482 1.5421e-17
8474.018 1.6612e-17
8475.554 1.9533e-17
8477.089 1.9012e-17
8478.624 1.6119e-17
8480.159 1.7821e-17
8481.694 1.7897e-17
8483.229 1.4395e-17
8484.766 1.2007e-17
8486.301 1.3123e-17
8487.836 1.5074e-17
8489.371 1.7126e-17
8490.906 2.1113e-17
8492.441 2.6543e-17
8493.978 1.7946e-17
8495.513 2.6392e-17
8497.048 3.5852e-17
8498.583 1.9859e-17
8500.118 1.3076e-17
8501.653 1.5562e-17
8503.189 1.3697e-17
8504.725 1.4811e-17
8506.26 1.4932e-17
8507.795 1.6568e-17
8509.33 1.3628e-17
8510.865 1.4823e-17
8512.401 1.7403e-17
8513.937 1.5477e-17
8515.472 1.6163e-17
8517.007 1.9001e-17
8518.542 1.6993e-17
8520.077 1.3565e-17
8521.613 1.5664e-17
8523.148 1.6548e-17
8524.684 1.9492e-17
8526.219 1.9196e-17
8527.754 1.4645e-17
8529.289 1.2126e-17
8530.825 1.451e-17
8532.36 1.6848e-17
8533.896 1.8748e-17
8535.431 1.6393e-17
8536.966 1.816e-17
8538.501 2.0135e-17
8540.037 1.7833e-17
8541.572 1.6586e-17
8543.107 1.6789e-17
8544.643 1.4477e-17
8546.178 1.3412e-17
8547.713 1.8103e-17
8549.248 2.16e-17
8550.784 1.6699e-17
8552.319 1.6654e-17
8553.854 1.7577e-17
8555.39 1.712e-17
8556.925 2.0124e-17
8558.46 2.0095e-17
8559.996 1.683e-17
8561.531 1.8041e-17
8563.066 1.6114e-17
8564.602 1.456e-17
8566.137 1.5959e-17
8567.672 1.6206e-17
8569.208 1.718e-17
8570.743 1.7258e-17
8572.278 1.6746e-17
8573.813 1.68e-17
8575.349 1.6803e-17
8576.884 1.4301e-17
8578.42 1.5984e-17
8579.955 1.9271e-17
8581.49 1.6322e-17
8583.025 1.5161e-17
8584.561 1.7443e-17
8586.096 1.5252e-17
8587.632 1.3896e-17
8589.167 1.7791e-17
8590.702 1.8189e-17
8592.237 1.4396e-17
8593.772 1.2763e-17
8595.308 1.4434e-17
8596.844 1.4412e-17
8598.379 1.5377e-17
8599.914 1.7475e-17
8601.449 1.6825e-17
8602.984 1.1967e-17
8604.52 1.0666e-17
8606.056 1.4737e-17
8607.591 1.8003e-17
8609.126 1.6378e-17
8610.661 1.5101e-17
8612.196 1.4747e-17
8613.731 1.5843e-17
8615.268 1.7188e-17
8616.803 1.6523e-17
8618.338 1.6054e-17
8619.873 1.773e-17
8621.408 2.0257e-17
8622.943 1.8522e-17
8624.479 1.8545e-17
8626.015 1.7536e-17
8627.55 1.1628e-17
8629.085 1.2757e-17
8630.62 1.4353e-17
8632.155 1.1412e-17
8633.691 1.3843e-17
8635.227 1.4075e-17
8636.762 2.0052e-17
8638.297 2.0825e-17
8639.832 1.853e-17
8641.367 1.8351e-17
8642.903 1.6419e-17
8644.438 1.5248e-17
8645.974 1.7785e-17
8647.509 2.1614e-17
8649.044 1.9432e-17
8650.579 1.733e-17
8652.115 1.1507e-17
8653.65 1.358e-17
8655.186 1.4695e-17
8656.721 9.131e-18
8658.256 1.3254e-17
8659.791 1.9773e-17
8661.327 1.9911e-17
8662.862 1.3256e-17
8664.397 2.0251e-17
8665.933 2.0774e-17
8667.468 1.5846e-17
8669.003 1.8643e-17
8670.538 2.4926e-17
8672.074 2.2727e-17
8673.609 1.9162e-17
8675.145 1.2572e-17
8676.68 1.6213e-17
8678.215 1.4547e-17
8679.75 1.2729e-17
8681.286 1.6559e-17
8682.821 1.4999e-17
8684.356 1.1684e-17
8685.892 1.4363e-17
8687.427 1.7721e-17
8688.962 2.1583e-17
8690.498 2.2811e-17
8692.033 1.9486e-17
8693.568 1.4581e-17
8695.104 1.6655e-17
8696.639 1.4983e-17
8698.174 1.0942e-17
8699.71 1.274e-17
8701.245 1.4912e-17
8702.78 1.8221e-17
8704.315 1.5738e-17
8705.851 1.2061e-17
8707.386 1.3886e-17
8708.922 1.6564e-17
8710.457 1.7047e-17
8711.992 1.6406e-17
8713.527 1.5169e-17
8715.062 1.2039e-17
8716.598 1.0832e-17
8718.134 1.1622e-17
8719.669 1.4939e-17
8721.204 1.9565e-17
8722.739 1.6027e-17
8724.274 1.1813e-17
8725.81 1.414e-17
8727.346 1.4782e-17
8728.881 1.2277e-17
8730.416 1.5507e-17
8731.951 1.2705e-17
8733.486 1.3741e-17
8735.021 1.6038e-17
8736.558 1.2635e-17
8738.093 1.483e-17
8739.628 1.4587e-17
8741.163 1.2401e-17
8742.698 1.2179e-17
8744.233 1.3191e-17
8745.77 1.6306e-17
8747.305 2.0865e-17
8748.84 1.9751e-17
8750.375 1.4809e-17
8751.91 1.2173e-17
8753.445 1.209e-17
8754.981 1.5652e-17
8756.517 1.7673e-17
8758.052 2.3313e-17
8759.587 2.2102e-17
8761.122 1.5987e-17
8762.657 2.3143e-17
8764.193 2.7523e-17
8765.729 2.4432e-17
8767.264 2.0798e-17
8768.799 1.6419e-17
8770.334 1.1839e-17
8771.869 8.0316e-18
8773.405 9.2058e-18
8774.94 1.423e-17
8776.476 1.772e-17
8778.011 1.2379e-17
8779.546 6.3525e-18
8781.081 9.273e-18
8782.617 1.0548e-17
8784.152 1.0341e-17
8785.688 1.6282e-17
8787.223 1.999e-17
8788.758 1.8214e-17
8790.293 1.2114e-17
8791.828 8.9952e-18
8793.364 1.2844e-17
8794.899 1.3546e-17
8796.435 1.4372e-17
8797.97 1.3359e-17
8799.505 1.2707e-17
8801.04 1.5652e-17
8802.576 1.9663e-17
8804.111 2.1621e-17
8805.646 2.0066e-17
8807.182 1.9034e-17
8808.717 1.6798e-17
8810.252 1.5698e-17
8811.788 1.6093e-17
8813.323 1.6279e-17
8814.858 1.7676e-17
8816.394 1.7854e-17
8817.929 1.9308e-17
8819.464 1.5568e-17
8821.0 1.151e-17
8822.535 2e-17
8824.07 3.4733e-17
8825.605 2.6184e-17
8827.141 2.2306e-17
8828.676 1.9288e-17
8830.212 6.2687e-18
8831.747 1.1312e-17
8833.282 1.9665e-17
8834.817 1.8594e-17
8836.353 1.54e-17
8837.888 1.4227e-17
8839.424 1.3926e-17
8840.959 1.4858e-17
8842.494 1.4329e-17
8844.029 1.6447e-17
8845.564 1.822e-17
8847.1 1.9352e-17
8848.636 2.2436e-17
8850.171 2.3189e-17
8851.706 1.8378e-17
8853.241 1.3979e-17
8854.776 1.2551e-17
8856.312 1.2237e-17
8857.848 1.1766e-17
8859.383 1.4154e-17
8860.918 1.7102e-17
8862.453 2.0422e-17
8863.988 2.4555e-17
8865.523 1.789e-17
8867.06 1.3786e-17
8868.595 1.7982e-17
8870.13 1.4711e-17
8871.665 1.4464e-17
8873.2 1.6234e-17
8874.735 1.4702e-17
8876.271 1.3824e-17
8877.807 1.4476e-17
8879.342 1.1357e-17
8880.877 1.5182e-17
8882.412 1.9459e-17
8883.947 7.6848e-18
8885.483 1.8735e-17
8887.019 2.5369e-17
8888.554 1.5876e-17
8890.089 1.3085e-17
8891.624 1.5348e-17
8893.159 1.5152e-17
8894.695 1.7324e-17
8896.23 1.4096e-17
8897.766 1.51e-17
8899.301 2.4516e-17
8900.836 2.6851e-17
8902.371 1.9721e-17
8903.906 1.7444e-17
8905.442 1.1559e-17
8906.978 1.4082e-17
8908.513 1.852e-17
8910.048 1.5488e-17
8911.583 1.1838e-17
8913.118 9.4625e-18
8914.654 1.5024e-17
8916.189 2.4932e-17
8917.725 2.0339e-17
8919.26 1.8988e-17
8920.795 2.6295e-17
8922.33 1.8327e-17
8923.866 1.1738e-17
8925.401 1.052e-17
8926.937 1.0399e-17
8928.472 1.4019e-17
8930.007 1.6644e-17
8931.542 1.8278e-17
8933.078 1.5949e-17
8934.613 1.3289e-17
8936.148 1.2917e-17
8937.684 1.3619e-17
8939.219 1.6585e-17
8940.754 1.6187e-17
8942.29 1.9758e-17
8943.825 2.1741e-17
8945.36 1.6372e-17
8946.896 1.0279e-17
8948.431 9.712e-18
8949.966 1.0624e-17
8951.502 7.7338e-18
8953.037 1.5336e-17
8954.572 2.3146e-17
8956.107 2.0982e-17
8957.643 1.7967e-17
8959.178 1.6939e-17
8960.714 1.1631e-17
8962.249 6.3304e-18
8963.784 9.702e-18
8965.319 1.3168e-17
8966.854 1.4432e-17
8968.39 1.0899e-17
8969.926 8.146e-18
8971.461 9.0806e-18
8972.996 1.2111e-17
8974.531 1.6e-17
8976.066 1.7504e-17
8977.602 1.4276e-17
8979.138 1.1763e-17
8980.673 1.1844e-17
8982.208 1.3904e-17
8983.743 1.6043e-17
8985.278 1.2481e-17
8986.813 6.9511e-18
8988.35 1.0073e-17
8989.885 1.5217e-17
8991.42 1.4902e-17
8992.955 1.2375e-17
8994.49 8.19e-18
8996.025 6.6083e-18
8997.562 9.7146e-18
8999.097 1.2408e-17
9000.632 1.551e-17
9002.167 1.4424e-17
9003.702 9.931e-18
9005.237 1.0919e-17
9006.773 1.131e-17
9008.309 1.2753e-17
9009.844 1.2353e-17
9011.379 1.3249e-17
9012.914 1.1796e-17
9014.449 1.1736e-17
9015.985 1.2673e-17
9017.521 1.3884e-17
9019.056 1.4472e-17
9020.591 1.4325e-17
9022.126 1.1481e-17
9023.661 1.1157e-17
9025.196 1.4817e-17
9026.732 1.4878e-17
9028.268 1.3779e-17
9029.803 1.2835e-17
9031.338 1.1522e-17
9032.873 1.4318e-17
9034.408 1.301e-17
9035.944 9.7792e-18
9037.479 1.1058e-17
9039.015 1.4307e-17
9040.55 1.1902e-17
9042.085 1.3534e-17
9043.62 1.5643e-17
9045.156 1.7566e-17
9046.691 1.7895e-17
9048.227 1.6331e-17
9049.762 1.5425e-17
9051.297 1.1539e-17
9052.832 1.1727e-17
9054.368 1.5695e-17
9055.903 1.6274e-17
9057.438 1.6911e-17
9058.974 1.8331e-17
9060.509 1.2877e-17
9062.044 1.2649e-17
9063.58 1.6096e-17
9065.115 1.4271e-17
9066.65 1.1889e-17
9068.186 1.4696e-17
9069.721 1.2796e-17
9071.256 1.224e-17
9072.792 1.533e-17
9074.327 1.3739e-17
9075.862 1.3614e-17
9077.397 1.3666e-17
9078.933 1.2309e-17
9080.468 1.248e-17
9082.004 1.7753e-17
9083.539 1.9975e-17
9085.074 1.8691e-17
9086.609 1.6899e-17
9088.145 1.7381e-17
9089.68 1.7954e-17
9091.216 1.52e-17
9092.751 1.1923e-17
9094.286 1.0166e-17
9095.821 1.4853e-17
9097.356 1.8139e-17
9098.892 1.6446e-17
9100.428 1.114e-17
9101.963 1.078e-17
9103.498 1.0291e-17
9105.033 9.873e-18
9106.568 1.2966e-17
9108.104 1.6152e-17
9109.64 1.4556e-17
9111.175 1.2901e-17
9112.71 1.5923e-17
9114.245 1.4202e-17
9115.78 1.2883e-17
9117.315 1.4399e-17
9118.852 1.7348e-17
9120.387 1.6808e-17
9121.922 1.7683e-17
9123.457 1.9006e-17
9124.992 1.766e-17
9126.527 1.7015e-17
9128.063 1.8882e-17
9129.599 2.0993e-17
9131.134 2.0393e-17
9132.669 1.9739e-17
9134.204 1.8445e-17
9135.739 1.4852e-17
9137.275 1.394e-17
9138.811 1.6258e-17
9140.346 1.7232e-17
9141.881 1.6139e-17
9143.416 1.7262e-17
9144.951 1.7506e-17
9146.486 1.6262e-17
9148.022 1.6087e-17
9149.558 1.6263e-17
9151.093 1.6694e-17
9152.628 1.3457e-17
9154.163 1.2846e-17
9155.698 1.3577e-17
9157.234 1.533e-17
9158.77 1.679e-17
9160.305 1.947e-17
9161.84 1.8454e-17
9163.375 1.6308e-17
9164.91 1.536e-17
9166.446 1.3816e-17
9167.981 1.588e-17
9169.517 1.7125e-17
9171.052 1.8669e-17
9172.587 1.9132e-17
9174.122 1.7177e-17
9175.658 1.5762e-17
9177.193 1.8027e-17
9178.729 2.4335e-17
9180.264 3.1309e-17
9181.799 4.5379e-17
9183.334 7.178e-17
9184.87 8.6158e-17
9186.405 8.0803e-17
9187.94 6.3776e-17
9189.476 3.9379e-17
9191.011 2.4883e-17
9192.546 1.8196e-17
9194.082 1.6308e-17
9195.617 1.9039e-17
9197.152 1.8314e-17
9198.688 1.596e-17
9200.223 1.4329e-17
9201.758 1.477e-17
9203.294 1.4291e-17
9204.829 1.7679e-17
9206.364 1.7545e-17
9207.899 1.4871e-17
9209.435 1.6045e-17
9210.97 1.8752e-17
9212.506 2.0066e-17
9214.041 1.8809e-17
9215.576 1.7526e-17
9217.111 1.665e-17
9218.646 1.8106e-17
9220.182 1.8921e-17
9221.718 2.1444e-17
9223.253 1.8644e-17
9224.788 1.5478e-17
9226.323 1.381e-17
9227.858 1.3883e-17
9229.394 1.2416e-17
9230.93 1.2178e-17
9232.465 1.2641e-17
9234.0 1.5566e-17
9235.535 1.4894e-17
9237.07 1.299e-17
9238.605 1.7505e-17
9240.142 1.8851e-17
9241.677 1.5546e-17
9243.212 1.3104e-17
9244.747 1.377e-17
9246.282 1.3211e-17
9247.817 1.326e-17
9249.354 1.5033e-17
9250.889 1.4176e-17
9252.424 1.1712e-17
9253.959 1.1122e-17
9255.494 1.4083e-17
9257.029 1.5253e-17
9258.565 1.4205e-17
9260.101 1.6407e-17
9261.636 1.8107e-17
9263.171 1.584e-17
9264.706 1.4817e-17
9266.241 1.4037e-17
9267.776 1.2339e-17
9269.312 1.1523e-17
9270.848 1.2217e-17
9272.383 1.1445e-17
9273.918 1.2133e-17
9275.453 1.2634e-17
9276.988 1.6054e-17
9278.524 1.6416e-17
9280.06 1.5753e-17
9281.595 1.7498e-17
9283.13 1.806e-17
9284.665 1.4943e-17
9286.2 7.0906e-18
9287.736 9.1844e-18
9289.271 1.5063e-17
9290.807 1.4905e-17
9292.342 9.6182e-18
9293.877 1.2766e-17
9295.412 1.9367e-17
9296.948 1.8171e-17
9298.483 1.1229e-17
9300.019 1.0532e-17
9301.554 1.3488e-17
9303.089 8.1827e-18
9304.624 1.4679e-17
9306.16 1.5188e-17
9307.695 5.5235e-18
9309.23 1.38e-17
9310.766 1.8279e-17
9312.301 5.5596e-18
9313.836 7.7409e-18
9315.372 8.9376e-18
9316.907 3.229e-18
9318.442 1.1122e-17
9319.978 1.6059e-17
9321.513 2.6278e-17
9323.048 2.0585e-17
9324.584 1.0282e-17
9326.119 1.7232e-17
9327.654 1.437e-17
9329.189 6.7344e-18
9330.725 4.2782e-18
9332.26 1.1793e-17
9333.796 2.1893e-17
9335.331 3.2417e-17
9336.866 3.6201e-17
9338.401 3.6569e-17
9339.937 3.2624e-17
9341.472 2.088e-17
9343.008 2.1237e-17
9344.543 2.072e-17
9346.078 1.7263e-17
9347.613 1.9745e-17
9349.148 1.7229e-17
9350.684 1.2614e-17
9352.22 1.2118e-17
9353.755 1.7884e-17
9355.29 1.9963e-17
9356.825 1.8553e-17
9358.36 1.4431e-17
9359.896 1.738e-17
9361.432 2.0697e-17
9362.967 1.9542e-17
9364.502 1.8771e-17
9366.037 1.4669e-17
9367.572 1.4315e-17
9369.107 1.775e-17
9370.644 2.4905e-17
9372.179 3.9148e-17
9373.714 4.9896e-17
9375.249 3.6676e-17
9376.784 1.4879e-17
9378.319 -2.6535e-18
9379.854 9.699e-19
9381.391 2.1896e-17
9382.926 2.7973e-17
9384.461 1.9712e-17
9385.996 1.7868e-17
9387.531 2.4572e-17
9389.066 2.4881e-17
9390.603 2.3182e-17
9392.138 1.8282e-17
9393.673 1.7788e-17
9395.208 1.8944e-17
9396.743 1.4919e-17
9398.278 1.4152e-17
9399.814 1.7195e-17
9401.35 2.075e-17
9402.885 1.2681e-17
9404.42 9.5281e-18
9405.955 1.5471e-17
9407.49 1.8778e-17
9409.026 1.7048e-17
9410.562 1.7349e-17
9412.097 1.4711e-17
9413.632 1.3198e-17
9415.167 1.6063e-17
9416.702 2.22e-17
9418.238 1.7936e-17
9419.773 2.2753e-17
9421.309 1.9556e-17
9422.844 6.8775e-18
9424.379 9.2356e-18
9425.914 1.2261e-17
9427.45 1.1445e-17
9428.985 1.4863e-17
9430.521 1.5135e-17
9432.056 1.7896e-17
9433.591 2.1465e-17
9435.126 2.2051e-17
9436.662 1.159e-17
9438.197 1.2882e-17
9439.732 1.757e-17
9441.268 1.5539e-17
9442.803 2.3373e-18
9444.338 1.4596e-17
9445.874 1.9289e-17
9447.409 1.4172e-17
9448.944 1.863e-17
9450.479 1.8311e-17
9452.015 1.1263e-17
9453.55 1.8747e-17
9455.086 2.9681e-17
9456.621 2.1275e-17
9458.156 6.7546e-18
9459.691 3.7027e-18
9461.227 2.3397e-18
9462.762 7.685e-18
9464.298 1.3346e-17
9465.833 1.3305e-17
9467.368 8.891e-18
9468.903 1.0793e-17
9470.438 8.6425e-18
9471.974 1.7333e-17
9473.51 2.9326e-17
9475.045 1.9435e-17
9476.58 1.8219e-17
9478.115 9.381e-18
9479.65 -8.5878e-20
9481.186 1.585e-17
9482.722 1.6518e-17
9484.257 1.066e-17
9485.792 1.6428e-17
9487.327 1.7485e-17
9488.862 1.3532e-17
9490.397 1.691e-17
9491.934 1.903e-17
9493.469 1.4976e-17
9495.004 1.1711e-17
9496.539 3.444e-18
9498.074 2.7552e-18
9499.609 2.4389e-17
9501.145 3.0013e-17
9502.681 2.0671e-17
9504.216 1.6842e-17
9505.751 1.3012e-17
9507.286 1.5409e-17
9508.821 1.6742e-17
9510.356 1.3294e-17
9511.893 8.529e-18
9513.428 5.295e-18
9514.963 1.6214e-17
9516.498 3.6916e-17
9518.033 3.0613e-17
9519.568 1.2342e-17
9521.104 1.1026e-17
9522.64 9.3308e-18
9524.175 1.7085e-17
9525.71 2.2884e-17
9527.245 2.3671e-17
9528.78 1.9101e-17
9530.316 1.4046e-17
9531.852 1.7717e-17
9533.387 1.865e-17
9534.922 1.7025e-17
9536.457 1.8613e-17
9537.992 1.6385e-17
9539.528 1.601e-17
9541.063 1.9844e-17
9542.599 1.5353e-17
9544.134 1.3422e-17
9545.669 1.9269e-17
9547.204 2.2703e-17
9548.74 1.0188e-17
9550.275 1.0602e-17
9551.811 2.5345e-17
9553.346 2.1721e-17
9554.881 1.0604e-17
9556.416 1.4284e-17
9557.952 2.087e-17
9559.487 1.3771e-17
9561.022 6.4925e-18
9562.558 1.1508e-17
9564.093 2.0257e-17
9565.628 2.5325e-17
9567.164 2.4421e-17
9568.699 8.2568e-18
9570.234 1.6041e-21
9571.77 7.7349e-18
9573.305 8.9087e-18
9574.84 1.0722e-17
9576.376 1.5442e-17
9577.911 1.1811e-17
9579.446 1.3931e-17
9580.981 1.1382e-17
9582.517 1.6171e-17
9584.052 1.6706e-17
9585.588 1.4965e-17
9587.123 1.4406e-17
9588.658 1.4086e-17
9590.193 1.3981e-17
9591.729 1.16e-17
9593.264 1.1435e-17
9594.8 1.1968e-17
9596.335 1.5642e-17
9597.87 1.8211e-17
9599.405 1.6439e-17
9600.94 1.5098e-17
9602.476 1.7671e-17
9604.012 9.2385e-18
9605.547 7.7618e-18
9607.082 1.3121e-17
9608.617 1.4323e-17
9610.152 5.957e-18
9611.688 5.1132e-18
9613.224 1.3133e-17
9614.759 1.5588e-17
9616.294 1.653e-17
9617.829 1.5805e-17
9619.364 1.6765e-17
9620.899 1.402e-17
9622.435 8.851e-18
9623.971 1.0249e-17
9625.506 1.3794e-17
9627.041 1.4735e-17
9628.576 1.0416e-17
9630.111 1.0206e-17
9631.646 1.6303e-17
9633.183 2.2406e-17
9634.718 2.0938e-17
9636.253 1.6691e-17
9637.788 1.3491e-17
9639.323 1.1696e-17
9640.858 9.5693e-18
9642.395 1.1691e-17
9643.93 1.0526e-17
9645.465 1.2757e-17
9647.0 1.5069e-17
9648.535 1.5466e-17
9650.07 1.3695e-17
9651.606 7.9454e-18
9653.142 6.4049e-18
9654.677 5.997e-18
9656.212 9.8863e-18
9657.747 1.4912e-17
9659.282 1.4518e-17
9660.818 7.9963e-18
9662.354 9.6414e-18
9663.889 1.5697e-17
9665.424 1.7913e-17
9666.959 1.1654e-17
9668.494 1.3248e-17
9670.03 1.38e-17
9671.565 7.0761e-18
9673.101 5.7843e-18
9674.636 9.6377e-18
9676.171 1.3144e-17
9677.706 1.2219e-17
9679.242 9.1277e-18
9680.777 4.0648e-18
9682.312 2.8247e-18
9683.848 2.7252e-18
9685.383 2.4032e-18
9686.918 3.0455e-18
9688.454 2.5894e-18
9689.989 1.6651e-18
9691.524 1.3188e-18
9693.06 1.6185e-18
9694.595 1.6836e-18
9696.13 1.0913e-18
9697.666 5.3001e-19
9699.201 4.2139e-19
9700.736 2.7791e-19
