 log(Bfield)      Mns    Pspin  cutoff_power  cutoff_wavelength  fnickel    kappa  kappagamma  mejecta  log(nhhost)  temperature  texplosion  thetaPB     vejecta      A_V        MJD_0   log(KE)     M_Ni  Peak_mag     Peak_MJD 
    14.01052  1.80593  8.33814       0.24896         2448.87523  0.00122  0.09602     0.38703  0.66935      16.5678    4874.1114     -3.0386   1.3437  6476.75136    2e-05   58461.4714  51.83916  0.03362  18.58372  58502.63149 
    13.97602  1.66257  7.87004       0.01635         4030.16149  0.00274  0.06741     0.25134  0.94321     17.97011   7245.86477     -2.3114  1.31926  6424.63986  0.00052   58462.1986  51.90393  0.08907  18.58243  58500.62564 
    14.44383  1.93812  8.79511       0.08978         5089.44765  0.00905   0.0219         0.1  2.82984     18.65928   9324.32655    -2.35102  0.48386  6181.02085  0.00254  58462.15898  52.04298  0.43835  18.55312     58502.55 
    14.37134  1.81319  8.33687        0.1589         2936.85494  0.00355  0.03209     0.18649  1.84263     17.32202   6919.76199    -2.05611  0.51583  6434.51507  0.00012  58462.45389  52.01837     0.15  18.54491  58500.62564 
    14.33133  1.83972   8.4563       0.06216         2461.06527  0.00239  0.01788      0.0885  3.16412     19.12273   4845.68609    -2.84243  0.55082  6241.31092  0.00737  58461.66757  52.06566  0.11976  18.59302   58503.3903 
    14.05615  1.79937  8.20473       0.03503         5240.34666  0.00328  0.09489     0.44894   0.6005     18.91305   4794.57829     -2.1887  1.47949  6127.26593  0.00455   58462.3213  51.76554   0.0853  18.56355  58500.62564 
    14.02241  1.75221  8.09277       0.10514         3219.91987  0.00991  0.05925     0.25235  1.00385     19.18911   6595.10024    -2.59318  1.50598  6104.49154  0.00859  58461.91682  51.87139  0.33171  18.51752  58500.62564 
    14.18465  1.73919  8.09491       0.02122         2453.26992  0.00109  0.03043     0.19867  1.86932      18.8601   5816.23744    -2.24133  0.79401  6373.59863  0.00403  58462.26867  52.01224  0.04622  18.50372  58500.62564 
    13.79741  1.22856   6.1137       0.32936         2225.55082  0.00163  0.03759     0.17351  1.53035     19.73141   9172.08568    -2.49454  1.45997  6118.15849  0.02993  58462.01546  51.94605  0.06452  18.57877   58503.3903 
    14.09604  1.80537  8.28501       0.19798         3457.24915  0.00661   0.0301     0.13289  2.09896     19.55073   6633.90791    -2.60348  1.04954  6354.69296  0.01975  58461.90652  52.02648  0.29184  18.53286  58500.62564 
    14.12301  1.61891  7.70986       0.36944         2093.00046  0.00107    0.047     0.22733  1.16553     17.65889   7739.28493     -2.7179  0.78762  5856.92974  0.00025   58461.7921   51.8626  0.03824  18.54364  58502.27431 
    13.93045  1.46707  7.22265       0.07856          3212.5056  0.02618  0.02099       0.074  2.97343     16.35374   6949.66423    -2.61104  1.04675  6423.03659    1e-05  58461.89896  52.08272  1.28701  18.53614  58500.62564 
    14.40441  2.01864  9.00664       0.00105         5127.00908  0.00114   0.0516     0.23773  1.24191     19.54745    3149.8166     -2.2294  0.51822  6769.74476   0.0196   58462.2806  51.99946  0.04163  18.56763  58503.46431 
     14.0624  1.74307  8.02625       0.25039         2161.73128  0.00586  0.02242     0.11766  2.62036     19.28743   7500.23065    -2.91278  1.22064  6280.03154  0.01077  58461.59722   52.0467  0.27753  18.56402  58502.63149 
     14.4703  1.84845  8.59578       0.33547         3592.31796  0.00189  0.08309     0.38439  0.70677     16.37959   3204.33187    -2.76098  0.39159  6013.44169    1e-05  58461.74902   51.7869  0.05359  18.48025  58498.62873 
    14.11015  1.67321  7.78732       0.11683         5241.96732  0.00811  0.02503     0.19997  2.04898     17.83817   7486.38986    -2.75765  1.00689  5878.71368  0.00038  58461.75235  51.95541  0.35515  18.52648  58500.62564 
    14.02404  1.76185  8.06147       0.07752         3910.51699   0.0026   0.0197     0.09139  3.17862     19.82553   7846.48247    -1.71698  1.55128  6471.04988  0.03718  58462.79302  52.09763  0.13056  18.50194  58498.62873 
    14.49643  2.03577   9.0812       0.07057         5535.90045  0.01074  0.04183     0.19958  1.43423        17.39   4905.38214    -3.09674  0.44175  6155.74686  0.00014  58461.41326  51.94095  0.41461   18.5536  58502.27431 
    14.03807  1.48057  7.15492       0.15658         2013.68568  0.00128  0.06625     0.23185  0.98132     17.93469   4614.25944    -2.54923  0.77093  6550.73786  0.00048  58461.96077  51.92839  0.04234  18.53543  58502.27431 
    13.96902  1.41758  7.01897       0.33612         3134.39377  0.00306  0.01625     0.07119  3.86837     18.60085   8937.99596    -2.38145  0.85258   6667.8248  0.00222  58462.12855  52.14758  0.16225  18.55763  58502.27431 
    14.14386  2.12741  9.40947       0.05326         4211.04209  0.00677  0.04458     0.18837  1.41537     17.16568   3294.25228    -2.30133  1.46209  6636.68479    8e-05  58462.20867  52.00413  0.26002  18.56521  58500.62564 
    13.93922  1.52672  7.31157       0.18436         2629.00141  0.00964  0.12638     0.47001  0.51173      19.5051    4724.7194    -2.54039  1.12841  6538.52046  0.01778  58461.96961  51.78154  0.22859  18.54899  58500.62564 
    14.07706  1.78897  8.38436       0.08334         2484.21432  0.03017  0.02863     0.11242  2.36488     18.64942   6543.84578    -2.31242  0.98689  7020.40243  0.00248  58462.19758  52.12967  1.38329  18.55734  58502.27431 
    14.32875  1.65542  7.74628        0.0491         3599.88734  0.00235   0.0646     0.36869  0.89364     18.23908    6215.3808    -2.40065  0.50603  6256.94736  0.00096  58462.10935  51.87042  0.07481  18.56641  58502.27431 
    14.05116  1.82802  8.41635       0.08653         2829.00183  0.00663  0.06447     0.33345  0.96848     18.25632   8401.46724    -2.42671  1.45453  6603.50866    0.001  58462.08329  51.93286  0.21834  18.56889  58502.27431 
    14.02852  1.71177  8.12873       0.07338         5624.11465  0.00275  0.07482     0.36753  0.80309     16.25398    5199.5181    -3.01811  1.12465  6623.62697    1e-05  58461.49189  51.89824  0.08317   18.5859  58502.27431 
    14.12702  2.06471  9.19201       0.08559         5044.03307  0.00209  0.01747     0.07479  3.35314      16.4318   3701.66282    -2.96274  1.45123  5998.06519    2e-05  58461.54726  52.03835  0.10638  18.54928  58502.27431 
    14.14326  2.07446   9.2476       0.01524         3679.91745  0.00619  0.06281     0.29896  0.95865     19.48047   7959.42269     -2.0746  1.32717   6564.9168   0.0168   58462.4354  51.92582    0.203  18.55131  58502.27431 
    14.05809  1.68233  7.86387       0.07005         5883.09894   0.0037  0.01179     0.06282  4.05847     16.16783   4563.02965    -2.13918  1.14329   5640.0851    1e-05  58462.37082  52.00784  0.19853  18.57702  58500.62564 
    14.05199  1.74143  8.16946       0.23623         3250.09288  0.00152  0.04106     0.15557  1.38442     17.14254   8591.04484    -3.26461  1.08844  6109.83979    8e-05  58461.24539  51.92866   0.0578  18.56053     58502.55 
    13.89039  1.41117  7.00028       0.16962         5360.71257  0.00749  0.02928     0.11903  1.98437     16.56278   5910.89858    -2.31658  1.25583  6246.52545    2e-05  58462.19342   52.0035  0.32434  18.58827  58502.27431 
    14.03943  1.77277  8.26562       0.03704         2482.64135  0.00142  0.06803     0.36544  0.86438     17.16072   8679.46954    -2.71475  1.42353  6241.46831    8e-05  58461.79525  51.86164  0.04447  18.52751  58500.62564 
    14.13259  1.92234  8.81265       0.50548         3002.71686  0.00207  0.09467     0.48403  0.61937     16.85709   4972.08044    -2.49531  0.97533  6769.28807    4e-05  58462.01469   51.8595  0.05468  18.54255  58502.63149 
    14.07032  1.85673  8.59478       0.22618         2749.60092  0.00124  0.01398     0.05377   4.2826     16.96418   8380.34045    -2.88738   1.0881   6198.2558    5e-05  58461.62262  52.09605   0.0675  18.53461   58503.3903 
    13.89574  1.43743  7.05679       0.03964         5018.99101  0.00122  0.10189     0.44763  0.64279      17.7806   4157.49301    -2.21453  1.42534  6425.41363  0.00034  58462.29547  51.82293  0.03289  18.52569  58502.27431 
    14.27242  1.69794  8.08218       0.12013         3275.74082  0.00479  0.02133     0.09327  2.84107      18.0571   5079.85436    -2.51538  0.53754  6624.97668  0.00063  58461.99462  52.10375  0.23227   18.5425  58500.62564 
    14.23965  1.87065   8.5794       0.27156         5572.95111  0.00706  0.09473       0.364  0.47789     16.90412   5114.53129    -2.84261  0.67429  5449.19944    4e-05  58461.66739  51.60473  0.16036  18.53314  58500.62564 
    14.17809  2.14509  9.42702        0.1059         2490.87051  0.01828  0.09422     0.41551  0.59143     17.96202   9130.22573    -1.59751  1.24876  6316.71394  0.00051  58462.91249   51.7883  0.47159  18.59216  58502.27431 
    13.96425  1.57168  7.48107       0.50367         2137.36893  0.00128  0.07581     0.43248  0.76639     17.54631   4585.79237    -2.84794  1.43978  6476.70394   0.0002  58461.66206  51.86893  0.03776  18.53675     58502.48 
    14.21883  1.69155   8.0821       0.16465          2425.3048  0.00233  0.01184     0.05117  5.84247     18.90074   5708.42884    -2.41955  0.58551  7077.67851  0.00442  58462.09045  52.24573  0.13725  18.60835  58503.46431 
    14.11782  1.59845  7.52761       0.05447         4412.79971  0.00134  0.08291     0.39427  0.63966     17.15224   8541.68665    -2.55845  0.81912  5869.89341    8e-05  58461.95155  51.74325  0.03615  18.56604  58502.27431 
    14.17484  1.65269  7.35091        0.0508         2738.55634  0.00293  0.04914     0.22692  1.15189     20.15196   6076.97219    -2.74178  0.67245  6357.89923  0.07883  58461.76822  51.93181  0.10394  18.56275  58502.27431 
      14.302  1.57433  7.53268       0.06663         3347.13559  0.00723  0.04655      0.1853  1.45776     16.25534   7590.83703    -2.56591  0.43039  6864.77782    1e-05  58461.94409  52.03828  0.28078  18.56943  58502.27431 
    14.52788  1.67068  8.10136       0.01789         4830.07426  0.01928  0.01446     0.07712  3.82997     16.72049   3909.48974    -2.52979  0.30427  6237.95371    3e-05  58461.98021  52.08851  1.01862   18.5759  58502.63149 
    14.11038  1.62609  7.65112       0.11889         3973.84097  0.00133  0.01823      0.0957   3.4804     17.47492   4468.41157    -2.23368  0.87628  6388.57247  0.00017  58462.27632   52.0977  0.06851  18.55551  58502.27431 
    14.18867  1.87241  8.48607       0.02444          4479.1125  0.00324  0.07011     0.35066  0.86229      17.7786    5295.4726    -2.79434  0.88323   6393.3262  0.00033  58461.71566  51.88203  0.10137   18.5341  58500.62564 
    13.88795  1.31667  6.54988       0.18177         2470.54199  0.00203  0.07055     0.27052  0.89304     18.40074   6684.10189    -3.34904  0.99112  6117.36069   0.0014  58461.16096  51.85069  0.06445  18.56436     58502.48 
    14.03866  1.58836  7.42895        0.0038          3976.7703  0.00291  0.06057     0.33842  0.92216     17.88501   5656.14661    -2.44859  1.13983  6038.07075  0.00043  58462.06141  51.84566  0.09374  18.58351  58503.46431 
    14.22663  2.14285  9.65212        0.2629         4413.39721  0.01197  0.03869     0.16394  1.37087     18.76519   3053.11125      -2.454  0.96781  5729.97278  0.00324    58462.056  51.87128  0.45446  18.58972  58503.46431 
    14.03449  1.76397  8.32247       1.03759         2721.43818   0.0027  0.05526     0.25387  1.14712      17.3865   9962.02878    -2.35095  1.17133  6838.32203  0.00014  58462.15905  51.99435  0.09561  18.59969     58505.48 
    14.03185  1.50462  7.36723       0.21554         2415.56494  0.02206  0.01083     0.05192  5.66463     19.15377   7655.73295    -2.24617  0.94484  6417.57694  0.00792  58462.26383  52.15738  1.28999  18.54307  58502.27431 
    14.17287  1.40815  6.98837       0.05176          5721.7428  0.00155  0.07376       0.315  0.79079     18.19478   4337.80665    -2.09334  0.52761  6235.16568  0.00087  58462.41666  51.84252  0.04648  18.55279  58502.27431 
    14.09462  1.71562  7.96264         0.115         2213.31107  0.00132  0.04762     0.25772  1.18592     17.02545   7851.07999    -2.13647  0.96902  6227.70491    6e-05  58462.37353  51.91897  0.04728  18.56378  58503.46431 
    13.93589   1.5632  7.48018       0.23232         3542.21502  0.00226  0.01872     0.08958  3.32132     17.06121   5434.33893    -2.24357  1.38734  6807.27608    6e-05  58462.26643  52.14709  0.11477  18.55789  58502.63149 
    14.12527  2.18474  9.82279       1.91913          2087.2164  0.00698  0.01099     0.04908  5.20721     19.29414   5340.11863    -2.10412  1.45567  6350.77263  0.01094  58462.40588  52.13915  0.39971   18.5139  58500.62564 
    14.00637  1.62173  7.66127       0.41943         2315.38857  0.00421  0.02923     0.14638  2.23634     18.95866   8557.24538    -3.19246  1.15051  6572.25743  0.00505  58461.31754  52.06465  0.18966  18.58265   58503.3903 
     14.1786  1.57279  7.59398       0.08125         2348.35648  0.03101  0.10133     0.41996  0.63112      16.4027   9025.94151    -2.55924  0.59036  6595.32417    1e-05  58461.95076  51.84132  0.82924  18.52627  58502.27431 
    13.94477  1.50153  7.17878       1.01601         2171.19309  0.00185  0.03185     0.10939  2.12241     18.78895   4360.27455    -3.86504  0.89792  7010.13921  0.00342  58460.64496  52.11332  0.08196  18.56299  58502.63149 
    14.09419  1.92316  8.89644       0.53884         3049.26616  0.00311  0.05303     0.20504  1.06581     16.67934   9850.63601    -2.12324  1.09516  6278.97088    3e-05  58462.38676  51.90697   0.1068  18.58019  58502.63149 
    13.98538  1.61503    7.678       0.40069         2258.22555  0.00422  0.06408      0.3316  0.81057     18.84672   9686.24864    -2.74203  1.28782  6007.47547   0.0039  58461.76797  51.81535  0.12822  18.57565   58503.3903 
    13.92506  1.47826  7.04609       0.00228         5397.99998  0.00118  0.04194     0.21569  1.50248     19.81812   6738.10337    -2.67375  1.23118  6922.44881  0.03655  58461.83625   52.0504  0.04649  18.62995  58503.46431 
    13.93392  1.48788  7.26663       0.25254         3764.30706  0.00588  0.02889     0.14253  2.02242      18.4131      8139.23    -2.33154  1.37934  6250.10632  0.00144  58462.17846  52.00674  0.25613  18.50126  58500.62564 
    14.14545  1.84734  8.55942       0.06828         4815.08372  0.00282   0.0295     0.15204  1.96589     16.00361   7781.46087    -2.36325  0.97803  6272.95417    1e-05  58462.14675  52.00581  0.12181  18.52285  58500.62564 
    14.04428  1.80851  8.32505       0.02592         4765.71348  0.00148  0.04635     0.20759  1.30005     16.48692   5632.00925    -2.31319  1.44222  6301.22435    2e-05  58462.19681  51.94496  0.05512  18.52014  58500.62564 
    14.10412  1.95665  8.89032       0.04822         2885.68738  0.01245  0.07088     0.36404  0.83518     18.58466   9452.04175    -2.04948  1.34104  6809.19182  0.00213  58462.46052   51.9303  0.38353  18.55036  58502.63149 
    14.02269    1.737  8.06618       0.14431          5586.6536  0.00325   0.0336     0.16936  1.46922     16.70714   9716.08675    -2.61924  1.53655  5669.36876    3e-05  58461.89076  51.87336  0.12665  18.54211  58502.63149 
    14.00591  1.47909  7.24119       0.14668         2984.99416  0.01284  0.01116     0.04537  5.21703     16.22918    5453.0046    -2.72012  0.88138  6445.37589    1e-05  58461.78988   52.1522  0.73533  18.58088   58503.3903 
    14.31783  2.08984  9.28791       0.00421         3560.93598   0.0016  0.05012     0.19926  1.17069     18.50016   6734.62738    -2.94731  0.61596   6370.8648  0.00176  58461.56269  51.93644   0.0571   18.5418  58494.88086 
    14.30651  1.72081  7.98311       0.02395         3591.02405  0.00248  0.03845     0.14547  1.83181     18.13734   6075.89633    -2.60246  0.48202  6847.17646  0.00076  58461.90754  52.07149  0.10454  18.53652  58500.62564 
    14.18352  1.46199  7.04843       0.09856          2550.5471   0.0125  0.08994     0.36674  0.67314     19.03461   8332.39554    -3.16602  0.50333  6488.02637  0.00602  58461.34398  51.84196  0.34594  18.57781     58502.48 
    14.11096  1.83578   8.2233         0.284          2353.9665  0.00573  0.03817     0.14793   1.3247     19.24645   4011.16505    -2.30414  1.07037  5711.26816   0.0098  58462.20586  51.86274  0.21487  18.59557  58503.46431 
    14.04634   1.7034  7.90774       0.20269         4898.64013  0.00108   0.0202     0.11049  2.47515     16.27717   3611.46268    -2.11282  1.28124    5712.237    1e-05  58462.39718  51.95676   0.0504  18.56866  58502.27431 
    14.05105  1.60712  7.60678       0.05845         2827.17299  0.00603   0.0761     0.34483  0.74498     17.02504   3490.42375    -2.65558  0.93275  6434.83975    6e-05  58461.85442  51.85723  0.17568  18.56566   58503.3903 
    14.23445  1.69275  7.75461       0.06782         3277.91607  0.00752  0.02743     0.11432  2.05759     19.04039   4838.76585    -2.39082  0.66242  6022.50901   0.0061  58462.11918    51.977  0.32949  18.57523  58498.62873 
    13.92723  1.56824  7.60134       0.09839         3149.29595  0.00165  0.01343     0.06902  4.92889     17.46795   7071.16575    -2.80537  1.51304    7244.991  0.00016  58461.70463  52.24751  0.09342  18.52561  58500.62564 
     14.1102  1.84745  8.54346        0.7458         2886.92709  0.01586  0.02012     0.08826  2.92161     19.92887   8891.82537    -2.24302   1.0204  6270.84758  0.04716  58462.26698  52.05963   0.7754  18.53312     58502.48 
    14.21844  1.84158  8.55291       0.03521         3449.02165  0.00611  0.01259      0.0642  5.20453     16.21368    6800.5933    -2.40848  0.74276   7062.1793    1e-05  58462.10152  52.23132  0.34957  18.52366  58502.27431 
    14.05377  1.84791  8.49769       0.21609         2786.01536  0.00827  0.11932     0.49593  0.52204     17.32665   3409.07445     -2.6274  1.32003  6428.34954  0.00012   58461.8826  51.77203  0.19848  18.57725   58503.3903 
    14.14619   1.7691   8.3128       0.47607         2469.04678  0.00932  0.08547     0.33022  0.79197      18.2382   8572.13689     -2.7016  0.78441  6693.09639  0.00096   58461.8084  51.90439  0.27985  18.54996     58502.48 
    14.41946  1.87231  8.57699       0.37162         3001.10353   0.0487  0.01149     0.05356  4.86896     20.12061   8177.09669    -1.72675  0.48706  6230.73725  0.07334  58462.78325  52.11515  2.74123  18.52972  58502.27431 
    14.06948  1.86991  8.68477       0.00432         4956.56302  0.00177  0.04991     0.26432  1.29626     17.35653   4824.09381    -2.63271  1.29312   6828.7746  0.00013  58461.87729   52.0143  0.06587   18.5343  58502.27431 
    14.07305  1.95821  8.94048       0.28039          4792.8672  0.03175  0.08424      0.3046  0.61716     16.94286   4245.94141    -2.17319  1.41681  5847.48843    5e-05  58462.33681   51.7315  0.83875  18.56476  58502.27431 
    14.00669   1.7033  8.10734       0.12364         5062.09326  0.06323  0.09966     0.47583  0.56825     17.76741   5895.29006    -2.61134  1.40134  6110.12106  0.00033  58461.89866  51.74958  1.59511  18.56297     58502.55 
    14.14273  1.99856  9.06264       0.86495         2516.57853   0.0062  0.08565     0.30403  0.72998     16.69483   7889.23874    -2.00041  1.02211   6152.2946    3e-05  58462.50959  51.81382  0.17877   18.5608  58502.63149 
    14.03444  1.80881  8.25368       0.28418         2166.80983  0.00182  0.03184     0.14265  1.96896     19.55725   3411.87573    -2.99359  1.29582   6688.1593  0.02004  58461.51641   52.0617  0.07842  18.59379  58503.46431 
    13.98961  1.64284  7.90456       0.03791          4400.9838  0.01344   0.0224      0.1161  2.63365      17.4561   3004.00573    -2.18556   1.3246  6776.60327  0.00016  58462.32444  52.11347  0.63722  18.59206  58502.27431 
    14.11153  1.71893  8.14057       0.47942         2365.31537  0.00512  0.04728     0.18604  1.27711      18.4806   5967.28935    -2.59199  0.90228  6307.91083  0.00168  58461.91801  51.94286  0.18907  18.53476  58500.62564 
    14.19571  1.69188  7.83118       0.14246         2600.84534   0.0028  0.01411     0.05466  4.10367     16.36375    9934.2626    -2.45333  0.73877  5827.78312    1e-05  58462.05667  52.03757  0.15081  18.57996  58502.63149 
    13.97682  1.68441  8.07519       0.17689         5907.57866  0.00774  0.09065     0.47619  0.58891      17.6605   6807.59481    -2.47066   1.5511  6010.24722  0.00025  58462.03934  51.74406  0.19932  18.53881  58500.62564 
    14.02719  1.77075  8.30129       0.09771         4680.11484  0.02109  0.09562     0.42289   0.6729     16.32982   3973.15822    -2.33385  1.21841  6975.83172    1e-05  58462.17615  51.90484  0.58364  18.62593  58503.46431 
    14.13236  1.67752  7.86066       0.02062         3463.85266  0.00765  0.01216     0.05821  4.92215     17.05515   4855.50775    -2.65775  0.78895  6536.75478    6e-05  58461.85225  52.15801  0.43211  18.54435  58502.27431 
    14.16253  2.15642  9.41229       0.05775         2914.69564    0.003  0.01071     0.04388  5.80013     17.58798   8800.72193    -2.42522  1.18901  6643.89043  0.00022  58462.08478  52.19002  0.17634  18.55969  58500.62564 
    14.19775  1.53993   7.3354       0.11598         2347.19557  0.00996   0.0356     0.18168  1.75487     19.50862   3539.57375    -2.62816  0.57693  6622.09618  0.01792  58461.88184  52.03602  0.41387  18.57394  58502.27431 
    13.98922  1.52616  7.46554       0.12707         3438.30678  0.02164  0.02204     0.10168  2.75486     17.20435   5780.53532     -2.1298  1.09513  6362.75238    9e-05   58462.3802  52.06466  1.03986  18.56308  58503.46431 
     14.1371  1.86187  8.56963       0.36309         3445.08151   0.0094  0.07915     0.40617  0.71237     17.16488   4395.04089     -1.9829  1.12062  6193.50062    8e-05   58462.5271  51.81427  0.26778  18.54168     58502.48 
    14.07487  1.65011  7.77509       0.08978         3800.44356  0.00222  0.04064     0.23788  1.46943     18.59898   4300.18253    -2.58032  0.95815  6789.95122  0.00221  58461.92968  52.03005  0.08665  18.58426  58503.46431 
    14.11682  1.77171  8.30482       0.70376          2533.2314  0.01896  0.05592       0.255   0.9646      17.1739   3452.17725    -2.25495  0.96732  5969.53265    8e-05  58462.25505  51.84442  0.62335  18.51631  58500.62564 
    14.05265  1.60152  7.69837       0.01336         3883.54454  0.01037  0.06876     0.35041  0.90724     17.54385   8469.12664    -2.04642  0.92523  6737.05727  0.00019  58462.46358  51.93761  0.33168  18.51846  58500.62564 
    14.02162  1.67818  7.96932        0.3962         3016.21808  0.00315  0.01858     0.12473  2.91191     16.37609   4741.69242    -1.85601  1.51988   6095.6802    1e-05  58462.65399   52.0346  0.15377   18.5878   58503.3903 
     14.0512  1.61603  7.66518       0.09302         5816.83644  0.00167  0.09274     0.41083  0.58192     19.27873   8552.12982     -3.2252  0.87944  6167.17042  0.01056   58461.2848  51.76353  0.04264  18.54309  58502.63149 
    14.02215  1.70231  8.04423       0.35179         3215.24367  0.00277  0.01647     0.07497  3.53093     18.56102   8235.44283    -2.67102  1.32433  5980.04931  0.00202  58461.83898  52.04206   0.1431  18.56757  58502.63149 
    14.30868   1.5393   7.4212       0.39526         2245.75597  0.00142  0.05444     0.23324  1.23367     17.93601     5094.282    -2.55709  0.43452  6771.70152  0.00048  58461.95291  51.99856   0.0516  18.55152  58502.27431 
    14.06261  1.68327   7.9246       0.02985          5662.6235  0.00235   0.0778     0.35068   0.7349     17.20654   6798.95568    -2.53297  1.06096  6066.08416    9e-05  58461.97703  51.80302  0.06804  18.56639     58502.48 
    14.00727  1.73741  8.00248        0.1354          4907.2122   0.0187  0.03351     0.15427  1.78943     19.90967   6974.69228    -2.39929  1.45289  6547.83694  0.04512  58462.11071  52.02916    0.782  18.53957  58500.62564 
    14.00679   1.6334  7.72925       0.03788         3812.84293  0.00405   0.0799     0.40494  0.79681     18.82937   7959.91587    -3.18847  1.16265   6681.4825  0.00375  58461.32153  51.90416  0.12188  18.61467  58503.46431 
    14.04239  1.69958  8.03576       0.01849         2965.41558  0.03894  0.01696     0.08654  3.80557     19.85656   3253.10163    -2.47986  1.17944  6736.09495  0.03993  58462.03014  52.15448   2.0532  18.59414  58503.46431 
    14.17114  1.77763  8.31312       0.04598         2185.46213  0.00134  0.01802     0.12093  3.41069     17.72356   9797.47607     -2.3647  0.84751  6681.45053  0.00029   58462.1453  52.13416  0.06847  18.54613  58502.63149 
    14.00862  1.73498  7.94301       0.06852          5793.1776   0.0027  0.02869     0.12267  1.94881     19.64449   5397.95844    -2.79198  1.31439  6172.62538   0.0245  58461.71802  51.99053  0.11617  18.53899  58500.62564 
    13.90188  1.26141  6.41657       0.02075         5681.28086   0.0188  0.01886     0.08649  3.01512     16.67022   9967.38762    -2.69324  0.93006  6372.06328    3e-05  58461.81676  52.07757  0.92807  18.56464  58500.62564 
     14.0688  1.82565  8.47837       0.23343         5466.83477  0.00415  0.03986     0.22718  1.29855     17.32794   5840.57032    -1.97503  1.50817  6268.84878  0.00012  58462.53497  51.94029  0.15428  18.51651  58500.62564 
    14.32462  1.99469  8.95524       0.01716         4893.43137  0.00781  0.02818     0.15496  2.11382      17.9775   3962.17163    -2.07275  0.71374   6318.3266  0.00053  58462.43725   52.0225  0.34534  18.53287  58502.27431 
    13.84951  1.30328  6.56601       0.23605         2659.39121  0.00325  0.10038     0.47406  0.62548     16.38463   9518.58412    -2.44206  1.25235  6526.07338    1e-05  58462.06794  51.83004  0.08638  18.54922  58502.27431 
    14.18845  1.80281  8.41781       0.28742         2349.25107  0.01428  0.06885     0.39063  0.90615     16.55481   8502.33154    -2.33409  0.79923  6728.14564    2e-05  58462.17591  51.93623  0.45647  18.58984   58503.3903 
    14.24913  1.78334  8.27056       0.45306         2770.26308   0.0173  0.09759     0.41167  0.57954      16.7972   7438.34819    -2.73536  0.62466  5912.25917    3e-05  58461.77464  51.72586  0.44128  18.52827  58500.62564 
    14.57262  1.93088  8.82163       0.00201         3839.63613  0.00785  0.05363     0.32602  1.07108     16.57908   6540.50781    -2.17025  0.34403  6383.30036    2e-05  58462.33975  51.92219  0.27004  18.60252  58502.27431 
    14.04119  1.58559  7.65971       0.02039         4886.03504  0.00342  0.08464     0.36707  0.73973     16.23643   8782.90419    -2.57369  0.91513  6525.28088    1e-05  58461.93631  51.86783  0.09929  18.60409   58503.3903 
    14.32258  1.72146  8.00873       0.04441         3078.56656  0.00647  0.02471     0.10205  2.37952     17.59964   9997.29428    -3.39316  0.48621   6280.2983  0.00022  58461.11684  52.03375  0.29703  18.52657  58502.27431 
    14.44373  1.47672   7.1339       0.58126         2529.70626  0.00633  0.01967     0.06617  2.90944     18.29165   4047.48733    -3.02835  0.25688  5980.96343  0.00109  58461.48165  52.01799  0.30903  18.52677  58500.62564 
    14.14746  1.76481  8.05459       0.13061          5250.0076  0.00315  0.06721      0.3577  0.85777     19.78303   9408.47812    -2.12355  0.86019  6511.83627  0.03371  58462.38645  51.89693  0.09821  18.55959  58502.27431 
    14.04534  1.72648  8.10423       0.16275         2916.22845  0.03756  0.09698     0.46716  0.65811     16.48273   9528.39766    -2.28336  1.28933  6465.96485    2e-05  58462.22664  51.83384  1.02737  18.55682   58503.3903 
    14.05904  1.75064  8.04569       0.28556         2075.01353  0.00178  0.02061     0.12695  2.80374     18.40268   7239.01036    -2.37861  1.47031  6254.88399   0.0014  58462.13139   52.0521  0.08599  18.53408  58502.27431 
    14.29546  1.71061  8.07802       0.03154         2713.50233  0.00149  0.01559      0.0808  3.99934     17.07692    8805.1834    -1.87379  0.52167  6830.37825    7e-05  58462.63621  52.17243  0.07949  18.56936  58502.63149 
    14.10871  1.76331  8.11506       0.00892         4392.63658   0.0067  0.08301     0.36209  0.74381     19.30805   4551.53852    -2.50042  0.95018  6561.98719  0.01129  58462.00958  51.87388  0.19505  18.56722  58502.63149 
    13.97805   1.6561   7.7875       0.17673         3149.32181  0.00131  0.10483     0.40937  0.53326     16.25395   5774.63053     -2.7302  1.40743  6082.61318    1e-05   58461.7798  51.72954  0.03192  18.62681     58505.48 
    14.14632   1.8476  8.68357       1.47614         2902.82889  0.00446  0.04147     0.17019  1.40679     16.92586   9313.92619     -2.3063  0.87239  6041.47759    5e-05   58462.2037  51.92152  0.17079  18.53171     58502.55 
    13.98491  1.45413  6.99857       0.07112         3361.71595  0.00363  0.02447     0.12996  2.37219     17.78248   9940.92132    -3.35611  1.09093  6030.34413  0.00034  58461.15389  51.99805  0.16681  18.57287  58503.46431 
    14.27509  1.69835  8.06944       0.34459         2261.18067  0.03138  0.06568     0.35234  0.84178     16.61122   7661.39021    -2.21753  0.55667  6447.06326    2e-05  58462.29247  51.88444  0.96986  18.59033     58505.48 
    14.14208  1.98974  8.93952       0.01591         5478.75689  0.00696  0.01156     0.05912  4.65011     16.71315   5351.46944    -2.62355  1.42883  5683.98937    3e-05  58461.88645  52.03022  0.38734  18.52613  58500.62564 
    14.18758  1.79331  8.38682       0.11441         4672.89768  0.01939  0.06271     0.24319  0.95331     16.07078   7923.60534     -2.4352  0.77822   6099.4227    1e-05   58462.0748  51.86087  0.63421  18.56023   58503.3903 
    14.38934  1.52693  7.28368       0.05012         4552.19997  0.00302  0.01542     0.08807  3.82571     17.56818    3231.5158    -2.38137  0.37895  6171.83662  0.00021  58462.12863  52.07913  0.15957  18.56786  58500.62564 
    14.19022  1.58973  7.31077       0.12731         2598.81453  0.00241  0.08202     0.37252  0.69263     19.90375     6454.286    -2.78422  0.61209  6173.37327  0.04451  58461.72578   51.8052  0.06766  18.55641  58503.46431 
    13.89234   1.5095  7.36117       0.03324         3985.45093  0.00111  0.07506     0.32765  0.82347     16.43406   9159.90611     -2.3779   1.5462  6683.17146    2e-05   58462.1321  51.91119    0.034  18.58042   58503.3903 
    14.18333  1.91421  8.15754       0.05721          2197.6476  0.01038  0.03514     0.17974   1.6624     20.14468   9687.78701    -2.47081  1.00455  5821.25697  0.07752  58462.03919  51.91579  0.42296  18.63129  58502.27431 
    14.02284  1.66131  7.75826       0.05144         5909.01937  0.02696  0.10498     0.48393  0.58239     18.54033   3269.29233    -2.85812  1.11884  6292.88651  0.00193  58461.65188  51.78126  0.68973   18.5685  58502.27431 
    14.27563  1.84258   8.5481       0.01922         5113.18836  0.00368  0.08296     0.39479  0.68421     17.34754   7122.17342    -3.01822  0.63055  6139.35142  0.00012  58461.49178  51.79766  0.10267   18.5705   58503.3903 
    14.41869  2.17021  9.69491       0.30278         2342.16829  0.03112  0.02102     0.09052  2.88561     19.18418   7241.61861    -2.64604  0.58277  6376.66471  0.00849  58461.86396  52.07257  1.51619  18.55048  58503.46431 
    14.00874  1.69694  7.82931       0.64668         2053.58686  0.00121   0.0283     0.14378  2.00527     19.47576   4784.82774    -3.01917  1.51262  6064.08793  0.01661  58461.49083  51.97927  0.05267   18.5352  58502.27431 
     14.2859  1.63964  7.86121       0.43079         2288.81319   0.0055  0.02172     0.11309  2.69146     17.28554     7033.142    -1.97767  0.51074  6472.37384  0.00011  58462.53233  52.07644  0.26259   18.6038  58502.63149 
    14.24713  1.69445  8.00504       0.09346          3438.7242  0.00515  0.05201     0.22912  1.16903     18.50069   9446.74339    -2.44108  0.55964  6570.34561  0.00176  58462.06892  51.96297   0.1837  18.49195  58500.62564 
     14.1339   1.7982  8.17144       0.28431         5984.80907  0.00563  0.02567     0.11468  1.51898     17.32297   5298.80838     -2.2001  1.01489  5017.54798  0.00012   58462.3099  51.77261  0.22215  18.52548  58502.27431 
    13.95645  1.56828  7.57524       0.23461         4320.71748  0.00676  0.04738     0.19079  1.23729     18.27325   3091.97551    -2.36216  1.35188  6209.37881  0.00104  58462.14784  51.92377  0.24664  18.58982   58503.3903 
    14.16672  1.39853  6.82294       0.04302         5154.29411  0.00399  0.09531     0.46402  0.58231     17.87156   4855.07597    -3.00585  0.56052  5920.99618  0.00041  58461.50415  51.72831  0.10201  18.53783  58502.27431 
    14.12157  1.95083  8.82633        0.0331         5959.16426  0.00432  0.01009     0.04906  5.21963     17.24302   9791.60201     -2.0199  1.42629  5852.26038   0.0001   58462.4901  52.06841  0.24742  18.59882  58502.27431 
    14.05352  1.74685  8.03359       0.00763         5424.05397  0.00333  0.09476      0.4955  0.56443     19.26262   7831.58332    -2.24734  1.36295  5850.94803  0.01017  58462.26266  51.71025  0.08375   18.5167  58496.67087 
    13.93929  1.57621  7.52197       0.08227         2199.25963  0.00941  0.09772     0.41759  0.57129     16.26188   6975.72408    -2.47726  1.56947   6138.9118    1e-05  58462.03274  51.75499  0.23798  18.53728  58502.27431 
    14.27695  1.88901  8.64024       0.40713         2081.55509  0.00239  0.07067     0.37705  0.86043     18.82376   7922.88212    -2.59071  0.65681  6686.47643   0.0037  58461.91929  51.92054  0.07467   18.5796   58503.3903 
    14.08658  1.75571  8.25956       0.01062         3305.53044  0.00881  0.03669     0.18744  1.67977     16.49901   6137.53106    -2.45161  1.07514  6586.96905    2e-05  58462.05839  52.02473  0.36032  18.56285  58503.46431 
    14.01004  1.66421  7.80094        0.0826         2324.82902  0.02255  0.04693     0.18156  1.27047     16.20806   7155.27914    -2.35359  1.18808  6283.65394    1e-05  58462.15641  51.93863  0.83109  18.50422  58500.62564 
    14.09907  1.83434    8.301       0.11097         5352.38272  0.00102  0.09332      0.4374  0.57298      18.6709   4479.38396    -2.93454  1.28893  5591.22795   0.0026  58461.57546  51.67455  0.02581  18.52243  58500.62564 
    14.14561  2.04831  9.22976       0.26108         2440.91279  0.00221  0.05946     0.27868  1.03775      16.5482   3354.99354    -2.29802  1.12703  6507.38202    2e-05  58462.21198   51.9331  0.07508  18.57465  58502.63149 
