 texplosion  fnickel    Pspin  log(Bfield)      Mns  thetaPB  mejecta    kappa  kappagamma     vejecta  temperature    alpha  cutoff_wavelength  log(nhhost)      A_V         MJD0  kenergy  mnickel           TSD   log(L0)  Peak_mag     Peak_MJD  log(E_rad)  log(Peak_lum)  Rise_Time    E_fold  tau_1  delta_m15     r_peak     frac 
   -5.34035  0.06039  2.66127     14.75721  1.41581  1.17099   6.7851  0.01372     0.01037  6437.53989   5395.23823  3.71004         2555.50874      20.7232  0.29371  55490.14065  1.67735  0.40974   28482.04285   47.1151  19.53425  55501.06702    50.52286       44.29703    5.93244  12.22124   18.0    1.03296  -20.46531  0.98787 
   -7.25891  0.00408   8.2041     14.99152  1.90709  0.75403   6.7712  0.01071     0.06124  6501.06893   7250.00179  3.48599          2646.7285     16.31908    1e-05  55488.22209  1.70711  0.02765   123941.1375  45.62794    19.538  55501.06702    50.30567       44.09954    5.93244  11.86487   20.5    1.06811   -19.9639  0.99168 
   -6.09885  0.06771  2.60992     15.00577  1.77813  1.31353  6.14461  0.01784     0.01503  8040.60938   5684.85202  2.57155         2641.13069     19.69069  0.02725  55489.38215  2.36973  0.41607   10951.94635  47.64606  19.54794  55501.06702    50.32684       44.08689    7.90992  13.04794   20.0    1.10117  -20.02667  0.99589 
   -5.41347  0.01932  5.98954      14.9432  1.73414  0.98608  8.14866  0.01013     0.06037  7152.78299   5036.53915  4.99356         2391.57813     18.72356  0.00294  55490.06753  2.48693   0.1574   75040.25788  46.07785  19.52733  55503.45186    50.30395        44.0987    5.93244  11.86487   18.0    1.16958  -20.11146  0.97321 
  -13.31488  0.00316  4.58245      14.7455  1.56842  0.91999  9.26184  0.01469      0.1759   6985.0334   6101.42001  1.53969         2592.37277     18.39529  0.00138  55482.16612  2.69564   0.0293   98735.12325  46.14764   19.5288  55503.45186    50.29144       44.07585    5.93244  12.22124   25.5    0.75826  -19.63205  0.99641 
   -4.72811    0.003  6.38057     14.79188  1.62339  1.45566  3.63528  0.01887      0.3177  5766.37587   7518.80951  4.91714         2595.22871     18.81964  0.00367  55490.75289  0.72106  0.01089  160024.44086  45.66536  19.55607  55501.06702    50.34621       44.09515    5.93244  12.22124   16.0    1.16373  -20.10102  0.99752 
   -6.06131   0.0016   6.5136     14.83857  1.85842  1.56097  1.73833  0.04623     0.18003  6486.30414    7389.9429  4.23537          2547.9382      20.2011  0.08827  55489.41969  0.43627  0.00278  153978.85846  45.72288  19.52126  55501.06702    50.32749       44.11159    5.93244  11.86487   18.0    1.11321  -20.15908  0.99946 
   -7.23366  0.01256  5.76869     14.73553  1.55128  1.42512  2.48831  0.03736     0.40607   6606.9925   4856.72411  4.31203         2487.40949     16.31826    1e-05  55488.24734  0.64795  0.03126  162029.13942  45.72779  19.58067  55503.45186    50.35685       44.12412    4.97209  12.82523   20.0    1.00075  -19.92951  0.99381 
   -3.96579  0.05922  5.01076     15.16988  1.80147  0.76782  5.61307  0.01385      0.1059  6786.41609   4028.42406  4.54121         2625.85738      18.3742  0.00132  55491.51521  1.54209  0.33243   19208.08502  46.84118  19.63702  55503.45186    50.43077       44.18456    5.93244  13.84235   16.5    1.24675  -20.10355  0.97194 
   -5.03841  0.00254   6.1155      14.6911  1.41702  1.52869  4.58365   0.0149     0.42231  5765.74082   5949.52532  4.24936         2630.96437     19.01285  0.00572  55490.44259  0.90897  0.01166  204102.43326  45.53751  19.45572  55501.06702     50.3735        44.1662    5.93244  13.84235   17.0    1.15467  -20.01667  0.99699 
    -5.4506  0.00512  8.07709     14.91541  1.72213  0.79771  1.64812  0.04092     0.07795  7228.33853   6382.42829  3.67155         2636.07977     18.88896   0.0043   55490.0304  0.51368  0.00844  154014.99358  45.50284  19.53522  55501.06702    50.32343       44.10174    5.93244  12.22124   18.5    1.16676  -20.09959  0.99711 
   -5.88961  0.01496  7.02947     14.75396  1.64356  1.50286  2.22271  0.03368     0.31665  7462.97457   6150.32412  2.99685          2678.6561     16.89569    4e-05  55489.59139  0.73847  0.03325  234167.31026  45.42126  19.52216  55503.45186    50.32399       44.10251    5.93244  13.04794   18.5    1.17484   -20.1071  0.99088 
   -7.26302  0.00187  7.06168     14.79422  1.66184  1.09169   1.5054  0.06039     0.28991  7085.10893   6063.44292  4.37909         2477.40204     17.57924  0.00021  55488.21798  0.45079  0.00281  198506.23488  45.49385   19.5853  55501.06702    50.32689       44.10658    7.90992   12.1831   20.5    1.00826  -19.97145  0.99923 
   -5.00977  0.05025  5.39937     14.89448  1.45757  0.84099  3.05474  0.02411     0.08149  6591.01303   6952.39871  4.47112         2523.43382     16.65773    3e-05  55490.47123   0.7916   0.1535   64146.27324  46.16062  19.49798  55503.45186    50.50736       44.33497    3.95496  11.86487   17.0    1.23683  -20.07896  0.97255 
   -5.88392  0.12242  3.30528     15.04911  1.60449  0.83445  3.40081  0.02504     0.01774  6149.37178   6205.21746  2.85828         2951.72073     19.78532  0.03389  55489.59708  0.76713  0.41634    12982.2922  47.32241  19.44021  55501.06702    50.33773       44.12266    5.93244  12.22124   17.0    1.05138  -20.16271  0.98701 
   -7.81682  0.00123  7.82144     15.00837  1.85216  0.64623  3.76172  0.02316     0.08082  7501.27962   4572.78784  2.96672          2574.2091     16.27938    1e-05  55487.66418  1.26265  0.00462  101236.64406  45.74461  19.52164  55503.45186    50.41157       44.20311    7.90992  11.07046   22.0    1.03184  -19.95176  0.99867 
   -5.33251   0.1512  4.50928       15.097  1.88146  1.03466  2.42887   0.0359     0.07208  6778.82569   3857.57904  2.80807         2878.13261      18.3513  0.00125  55490.14849  0.66579  0.36724   22726.15816   46.8786  19.56694  55501.06702    50.36911       44.16727    5.93244  11.86487   17.5    1.15857  -20.10655  0.97913 
   -5.61378  0.00655  6.90757     14.98856  1.72323  0.69979  3.84618  0.01895       0.182  6519.51558   5136.26259  2.75081         2854.83355     16.14437    1e-05  55489.86722  0.97519  0.02519   80480.46634  45.92085  19.64363  55501.06702    50.35102        44.1103    6.94956  13.18159   18.0    1.15466  -20.06554  0.99381 
   -5.99211  0.02515  5.80667     15.07634  1.64513  0.62685  7.43159  0.01198     0.01369  6990.47148   5940.11136  4.13508          2522.6128     17.53281  0.00019  55489.48889  2.16632  0.18687   36239.87638    46.398  19.56979  55501.06702    50.42102       44.23013    3.95496  11.86487   19.0    1.09561  -20.02944  0.96806 
   -7.04626  0.00717  6.59043     14.85407  1.82733  1.38737  7.37034   0.0133     0.29247  6794.10875   5685.08375  3.79905         2596.43608     18.43977  0.00153  55488.43474  2.02946  0.05287  144317.29136  45.73352  19.48888  55501.06702    50.33664       44.13325    5.93244  11.86487   20.0    1.03429  -19.95157  0.98939 
    -5.2788  0.02802   7.3108     14.84898  1.75551  1.22818  2.85816  0.02576     0.06092  6699.60185   5089.78604   3.0893         2809.54954     16.26179    1e-05   55490.2022  0.76527  0.08009  174658.03594  45.54313  19.52724  55503.45186    50.30512       44.06362    5.93244  13.04794   18.0    1.20487  -20.08121  0.97887 
    -5.8182  0.02147  5.33184     14.88752  1.64115  1.28635  6.93852  0.01746     0.46611  7860.10581   5840.79922  3.30301          2602.5627     16.08966    1e-05   55489.6628  2.55712  0.14894   72722.61899  46.16857  19.55458  55501.06702    50.39445       44.19314    5.93244   12.1831   18.0    1.06255  -19.99284  0.97936 
   -7.84957  0.01232  6.65941     14.80227  1.65238  1.11627   6.5838  0.01445     0.29168  7360.86239   6340.78389  2.22039          2886.7301     16.99248    5e-05  55487.63143  2.12795  0.08112  169140.72189  45.61183  19.51547  55503.45186    50.28385        44.0714    7.90992  11.07046   21.5    0.99575  -19.91404  0.98049 
   -5.43657  0.06242  5.25025     14.57439  1.16694  1.48191  2.17635  0.03281      0.2924  7097.64059   6886.36382  3.53033         2641.74084      19.9612  0.05081  55490.04443  0.65401  0.13585    212055.818  45.56908  19.50873  55503.45186    50.28532       44.07809    7.90992  11.07046   18.0    1.21658  -20.11075  0.96655 
   -5.65266  0.05485  7.28663     14.85767  1.69987  1.26062  2.31042  0.03733     0.12055  7110.61642   5003.09697  4.92989         2503.73823     17.92557  0.00047  55489.82834  0.69684  0.12671  161412.27445  45.56627  19.63107  55503.45186     50.3089       44.03035    5.93244  13.87464   18.5    1.10177  -20.00775  0.96583 
   -4.63906  0.02422  4.82143     14.75344  1.31716  0.96713  4.28986  0.01778     0.09671  5411.67535   7928.48772   4.7239         2594.12015     19.84203  0.03861  55490.84194  0.74943  0.10388   88497.66958   46.0752  19.57683  55501.06702    50.30943       44.07087    5.93244  13.04794   18.0    1.08091  -20.04277  0.98241 
   -6.11533  0.01936  7.20978     14.88812  1.78656  1.01861  3.95943  0.01834     0.21416   6685.4067   7269.01052  3.43009         2634.68464     19.97618  0.05259  55489.36567  1.05564  0.07664  144357.59201  45.64558  19.56924  55503.45186    50.35167       44.10005    5.93244  12.22124   19.0    1.14956  -20.06962  0.98079 
    -6.6911  0.06177  2.83784     14.93115  1.28134  0.70187  6.08631  0.01992     0.17545  8754.77062   3803.17992  2.34822         2513.47714     17.87403  0.00042   55488.7899  2.78273  0.37596   13157.09591  47.35138  19.51947  55501.06702    50.31843       44.10283    7.90992  11.86487   21.0    0.99405  -19.88131  0.98633 
   -7.03774  0.00358  6.19745     14.79593  1.61129  1.13433  4.89025  0.01644     0.06739  6730.53053   7058.52587  3.11181         2633.14994     18.53041  0.00188  55488.44326  1.32147  0.01749  147083.62361  45.72403  19.53854  55503.45186    50.34715       44.15089    5.93244  12.18476   19.5    1.10126  -19.95088  0.99619 
   -7.55821  0.03065  6.61826     14.74601  1.65357  1.43609  2.29869  0.04132     0.05586  8494.33152   7035.47391  3.10181         2401.12315     18.27001  0.00103  55487.92279  0.98939  0.07045  216621.82409  45.51008  19.54981  55501.06702    50.36043       44.13189    3.95496  11.86487   21.0    1.04508  -19.99593   0.9832 
   -7.97407  0.00191  7.43649     15.12959  2.12191  0.60963  6.00865  0.01466     0.13425  7430.36104   4330.06077   2.3162         2699.93535      19.8727  0.04144  55487.50693   1.9789  0.01145   59992.47229  46.07474   19.5351  55501.06702    50.29663       44.04156    5.93244  13.04794   21.5    1.04662  -19.96351  0.99759 
   -4.49842  0.03727  4.68094     14.84941  1.51399  1.38542  7.35966  0.01108     0.01484  7251.51427   5513.03604  3.45021         2618.67891     18.15845   0.0008  55490.98258  2.30857  0.27427   61630.18098  46.31851   19.5419  55503.45186    50.31725       44.08343    5.93244  13.04794   17.0    1.18498  -20.08597  0.96947 
   -6.74236  0.04759  6.35303     14.94564  1.73999  0.91178  3.66183  0.02626     0.02853  6600.16903   7508.40632  3.90918         2593.88518      17.5581   0.0002  55488.73864  0.95156  0.17428   83761.24817  45.98039  19.53653  55501.06702    50.38602       44.14341    4.97209  12.82523   21.0     0.9947  -19.93094   0.9662 
    -6.5316  0.00144  4.28703     14.78354   1.5539   0.8472  1.93463   0.0316     0.14675  5545.61305   5882.48424  3.04198         2542.61171     20.66678  0.25793   55488.9494  0.35491  0.00279   71858.28047  46.33948  19.49775  55501.06702    50.29658       44.09925    7.90992    9.8874   18.0    1.07765  -20.22644   0.9997 
   -6.25162  0.03763  4.98401     14.83885  1.53479  1.09165  5.93372  0.01421     0.11125  6858.58044   4965.83714  3.70507         2465.74351     17.40028  0.00014  55489.22938  1.66503   0.2233    74358.1284  46.18841   19.5672  55503.45186    50.31032       44.11802    5.93244  11.86487   19.5     1.0697  -20.00666   0.9695 
   -8.59508  0.00109  5.96791     15.12931  1.81632  0.50194  4.57397  0.01838     0.02051  6246.10533   7927.89047  3.37693         2614.36309      18.9098  0.00451  55486.88592  1.06448  0.00499   33115.88865  46.45636  19.53706  55501.06702    50.30496       44.07933    7.90992  12.22124   21.0    1.00845  -19.85034  0.99917 
   -5.16489  0.03986  5.68634      15.0123  1.47145  0.57777  3.94905  0.02188     0.11526  7385.08413   6570.38287  4.07964         2539.83904     19.35685  0.01264  55490.31611  1.28479  0.15741   41747.76962  46.30629  19.51874  55503.45186    50.30618       44.06016    7.90992  11.85985   18.5    1.17639  -20.09185   0.9686 
   -4.87693  0.08577  6.33624     14.84728  1.64074  1.39411  3.22832    0.023     0.02584  7503.04531   6275.65037  3.09683         2682.39269     19.37961  0.01331  55490.60407  1.08412   0.2769  123582.24755  45.78827  19.56218  55503.45186    50.29547        44.0601    5.93244  11.07046   18.0    1.22206  -20.09885   0.9435 
    -5.2991  0.00134  6.58844     14.78157  1.73283   1.3754  1.40767  0.04262     0.21254  5346.09854   8154.13505   3.8007         2684.67389     20.25758  0.10053   55490.1819     0.24  0.00189  190980.35594  45.58905  19.51689  55501.06702    50.37342       44.13813    5.93244  12.22124   17.0    1.13553  -20.14843  0.99958 
   -4.88448  0.01824  6.56887     15.01235  1.73522  0.80043  6.81946  0.01258     0.06718  7097.33093   6193.32842   3.7168          2647.5413     16.41088    1e-05  55490.59652  2.04912  0.12441   65681.90853  46.05577  19.52176  55503.45186    50.28062       44.06896    5.93244  12.22124   17.5    1.15537  -20.05869  0.97403 
   -5.94473  0.01482  5.21246     15.02773  1.48224  0.50696  3.50114  0.02442     0.08497  6622.37463   6189.91399  3.08313          2781.4186     19.93626  0.04797  55489.53627  0.91593  0.05189   32912.89358  46.48831  19.55364  55501.06702    50.31669       44.09509    4.97209  12.82523   18.0    1.12405  -20.15351   0.9912 
   -6.79893  0.01276  7.03419     14.73913  1.56077  1.14167  3.09673  0.02415     0.05991  6839.41589   6164.62908   3.4347         2569.29185     16.30299    1e-05  55488.68207  0.86411  0.03952  238410.73372  45.39043  19.54576  55503.45186    50.39044       44.18487    5.93244  12.22124   21.0    1.05155  -19.98313  0.98824 
     -5.449  0.09288  2.97617     14.94634  1.55965  1.28628  4.29615  0.02121     0.02074   7904.4547   5472.46198  2.54582          2706.8779     17.54287  0.00019    55490.032  1.60122  0.39901   16424.00648  47.29908  19.60841  55503.45186     50.3315        44.1574    4.97209  10.84775   17.0     1.2586   -20.1138  0.99158 
   -4.20868  0.11364  5.63572     15.04809  1.85349   0.9887  1.98237  0.03956     0.08108  7375.88651   5986.84329  3.07865         2748.44442     19.51615  0.01823  55491.27232  0.64334  0.22528   43805.17427  46.39341  19.51757  55501.06702      50.413       44.19519    7.90992  10.24376   16.5    1.26136  -20.08215  0.97238 
   -4.87537  0.00738  7.67595     15.09007  1.76394  0.52394  3.52228  0.01672      0.1693  5807.64458   6450.15108   4.9008         2545.53024     19.83066  0.03762  55490.60563  0.70868  0.02599   63742.12996  45.94064  19.55117  55503.45186    50.33821       44.08265    3.95496  13.04794   17.5     1.1837  -20.10968  0.99231 
    -3.5552  0.05516  3.58008     14.92003  1.47946  1.26902  6.78365  0.01322     0.29152   7406.4975   7535.57856   3.3715         2683.24898     16.46573    2e-05   55491.9258  2.21981  0.37419   25446.89982  46.92553   19.5785  55501.06702    50.29205       44.07169    5.93244  12.22124   18.0    1.16946  -20.03109  0.98318 
   -7.00874  0.04162  3.78221     15.05613  2.08751  1.52114  5.21781  0.02069     0.09685  6693.28723   5324.27798  3.58659         2532.09842     17.90787  0.00045  55488.47226  1.39442  0.21718    21412.6511  47.10231  19.45872  55501.06702    50.31754       44.11112    5.93244   12.1831   21.0    0.97343  -19.72306  0.99383 
   -6.26694   0.0118  6.21108     14.74845  1.54305  1.29445  3.57031  0.01984     0.12306  6170.04412   6926.30855  4.18751          2509.1135     17.48625  0.00017  55489.21406  0.81079  0.04215  176046.67895  45.62526  19.60042  55503.45186    50.30152        44.0862    5.93244  12.22124   18.5    1.11773  -20.01705   0.9902 
   -6.46546  0.02045  5.06815     15.07422  1.52675   0.5474  8.17696  0.01476     0.05577  6627.64151   4618.31918  4.04719         2546.86058     19.33345  0.01197  55489.01554  2.14258  0.16724   25872.39357  46.63008  19.49524  55501.06702    50.30652       44.12319    5.93244  11.86487   21.0    0.87986  -19.85785    0.976 
   -6.55362  0.04886  6.81395     14.87841  1.95964  1.53644   2.8657  0.02663      0.2064  6838.39809   4531.37851  4.33482          2420.3108      19.7883  0.03412  55488.92738   0.7994  0.14003  147900.21883  45.72425  19.56299  55503.45186    50.63238       44.43664    3.95496  12.22124   19.5    1.06229   -20.1007  0.97332 
   -5.55278  0.00206  7.42377     14.98342  1.80809  0.69204  3.28887  0.01528     0.35865   5100.3045    7199.5015  3.74625         2749.70329     19.99742  0.05523  55489.92822  0.51035  0.00677    99873.7367  45.78536  19.50976  55501.06702    50.35044       44.15089    5.93244    9.8874   16.5      1.213  -20.14961  0.99818 
   -7.21987  0.00114  4.79933     14.70644   1.5209  1.35054  2.80751  0.03469     0.18904  6851.76717   6238.87697  3.38937         2481.98411     20.19777   0.0876  55488.26113  0.78624   0.0032  125718.86241  45.98919   19.5871  55503.45186    50.27558       44.06316    7.90992  11.07046   20.5    1.01282  -19.99375  0.99956 
   -5.99576   0.0522  4.37928     15.12389  1.73499  0.49456  4.83711  0.01797     0.03157  7579.46384    6930.7865  2.27083         2663.73393     20.63797  0.24138  55489.48524  1.65764  0.25251   17463.68753   46.9832  19.54307  55501.06702    50.32243       44.08637    7.90992   12.1831   19.5    1.16038  -20.27714  0.97826 
   -9.65736  0.00204  5.03011      14.7288  1.62106  1.32776  3.12908  0.03024     0.40653  6532.13747   5458.86078    1.747         3058.38818     19.87423  0.04159  55485.82364  0.79644  0.00637  132792.31236  45.95232  19.63624  55501.06702    50.39845       44.13611    6.94956  12.82523   22.0     0.9513  -19.80013  0.99911 
   -6.00481  0.05087   6.4922     14.89344    1.749  1.22955  4.33601  0.02304     0.07956  7901.36112   5454.16128  4.75947         2339.23332     16.39378    1e-05  55489.47619  1.61481  0.22056  111814.89955  45.83835  19.55672  55503.45186     50.2889       44.06274    5.93244  13.04794   20.0    1.06183   -20.0238  0.95639 
   -5.84225   0.1091  4.99953     15.09718  1.56236  0.60356   3.7698   0.0279     0.01586  8740.79793   6140.32456  3.33511          2475.3319     17.27522   0.0001  55489.63875   1.7181  0.41128    23179.0111  46.69967  19.56396  55503.45186    50.26272       44.05613    7.90992  11.07046   20.0    1.12271  -20.10432  0.94923 
   -2.71271  0.11758  2.80954     15.17467  1.84668  1.01097  3.24158  0.02243     0.01677  6553.49274   7309.74956  4.55007         2512.65525     18.81437  0.00362  55492.76829  0.83048  0.38116    6055.37529  47.85583  19.51499  55503.45186    50.29621       44.08634    5.93244  10.24376   18.0    1.24333   -19.8815  0.99689 
   -5.50698  0.02283  6.02126     15.00742  1.70819  0.75116  4.74426  0.01754      0.1903  6620.44994   6010.06976  3.08745         2686.29641     17.34957  0.00012  55489.97402  1.24042  0.10832   55576.00283  46.19712  19.56592  55503.45186     50.3525       44.08332    6.94956  14.00829   18.0    1.12815  -20.02236  0.98058 
    -6.9998  0.00735  7.92929     14.85466  1.82802  1.07623  5.22377  0.01468     0.04065  6685.59848   4687.04924  3.59334         2480.01691     19.73856  0.03043   55488.4812  1.39281  0.03837  208421.60545  45.41342  19.51368  55498.68218    50.50277       44.24828    7.90992  13.84235   21.5    1.03108  -19.91077  0.98853 
   -6.36659  0.00341  6.13049     14.85254  1.82991  1.52228  2.16217   0.0359     0.10228  5747.97185   6741.33787  3.45816         2753.86215     19.36642  0.01292  55489.11441  0.42613  0.00737   125938.6723  45.85613  19.51288  55503.45186    50.31461       44.10714    3.95496  13.04794   18.0    1.12015  -20.05086  0.99873 
   -4.14627  0.06376  4.74021     15.07935  1.94237  1.15938   5.6026  0.01432     0.23836   7089.4519   3889.33994  4.07097         2533.10981     17.72033  0.00029  55491.33473  1.67974  0.35722   28121.21278  46.75655  19.48829  55501.06702    50.30358       44.07422    5.93244  12.22124   17.5    1.16919  -20.06525   0.9774 
   -5.34012  0.00384  6.61615     14.69445  1.48839   1.2227  4.77201  0.01062     0.36234  5742.46025   7902.87437   2.6063          2844.0802     17.15421    8e-05  55490.14088  0.93869  0.01833  247085.79677   45.4075  19.56065  55503.45186     50.3163        44.0857    7.90992  11.07046   18.5    1.12574   -20.0299  0.99479 
   -5.91274   0.0187   6.2115     14.87837  1.73197  1.01712  6.84603  0.01104      0.1267  6922.24547    5903.9069  4.33154         2469.80706     20.19999  0.08805  55489.56826  1.95686  0.12802  108644.96083  45.88498  19.49171  55501.06702     50.3513       44.15844    5.93244  11.86487   17.5     1.1298  -20.19061  0.97563 
   -7.46652  0.00145  8.18382     15.07511  1.93403  0.60103  1.51257  0.05115     0.24184   6940.5532   5925.06741    2.597         2787.34155     18.83758  0.00382  55488.01448  0.43464  0.00219   85107.53542  45.79943  19.53174  55503.45186    50.31011       44.09272    5.93244  13.04794   20.5    1.02943  -19.95386  0.99935 
   -3.82124   0.1042  3.01111     15.02639  1.49737  0.96666  4.90333  0.01966     0.22877  8257.16125   3650.01578  3.51422         2656.24132       19.857  0.03997  55491.65976  1.99425  0.51092   11163.81216  47.43891  19.50634  55503.45186    50.36693       44.14555    3.95496   12.1831   17.0    1.23325  -20.31195  0.98922 
   -7.11968     0.05   5.4922     14.81379  1.53913  1.33979  4.32737  0.02164     0.01797  6804.81658   6161.68873  3.39419         2685.98867     18.95393    0.005  55488.36132  1.19532  0.21638  101624.15381  45.96963    19.615  55503.45186     50.3502       44.10296    5.93244   12.1831   20.5    1.00981  -19.85514  0.96369 
   -4.32194  0.12924  3.68216     14.88494  1.37562  1.11919  2.84375   0.0271     0.07832  6890.27881   4833.00084  4.24241         2547.93631     18.08846  0.00068  55491.15906  0.80536  0.36753   29419.55581   46.8065   19.6068  55503.45186    50.32727        44.0786    7.90992  12.22124   16.5    1.22013  -20.15807  0.97762 
    -5.9596  0.04913  4.02629     15.07481  1.64448  0.79446  8.57804  0.01129     0.12927  6969.20016   4652.69307  2.31571         2975.67935     17.60096  0.00022   55489.5214  2.48531  0.42142   17540.37587  47.03102  19.52278  55501.06702    50.38667       44.15396    6.94956  12.82523   20.5    1.09065  -20.00779  0.97607 
   -6.30427  0.01526  7.13913     15.13136  1.61516  0.40787  2.80144  0.02664     0.03836  6257.51793   5306.25899  3.30271          2803.4359     19.27898  0.01056  55489.17673  0.65435  0.04276   41744.95111  46.14917  19.58334  55503.45186    50.29992       44.05466    5.93244  13.04794   19.0    1.09251  -20.05119  0.98758 
   -9.72987  0.05321  2.39995     14.98295   1.8563  1.37358  7.91866  0.01258     0.01819  4868.61875    4522.6891  2.54722         2988.41929      19.5274  0.01871  55485.75113  1.11967  0.42132   10739.37262  47.74611  19.50421  55501.06702    50.34933       44.14157    5.93244  11.86487   35.0    0.68371  -19.34875  0.99678 
   -4.48488  0.07022  5.03061     14.91221  1.66042  1.40353  3.46666   0.0239     0.06807  6739.44241   5727.51379  4.10286         2631.13512     16.14226    1e-05  55490.99612  0.93926  0.24341   58458.96425  46.31897   19.6082  55503.45186    50.51228        44.2646    5.93244  13.04794   17.0    1.17224  -20.09198  0.97278 
   -6.47485  0.01012  7.79063      15.0646  1.87986  0.63128  7.75812  0.01124     0.03787  7480.54856   5295.94658  3.86807         2432.06302     17.87897  0.00042  55489.00615  2.58971   0.0785   78685.36463  45.86393  19.54711  55501.06702    50.39354       44.13885    5.93244  13.84235   20.5    1.06796  -20.00973  0.97862 
    -9.3871  0.04325  5.05958     15.03499  2.03199  0.89574  4.74057  0.01906     0.08291  6236.33033    5076.9993  1.77462         2973.21806     19.47084  0.01643   55486.0939   1.0998  0.20501   41113.66495  46.55455  19.60249  55501.06702    50.30214       44.04261    7.90992  13.04794   25.0    0.88584  -19.66558  0.98161 
   -5.47914  0.06886  8.18903     14.97245  2.06757  1.40695  3.07758  0.03214     0.11304  8412.69537   5103.21181  3.42162         2545.67077      17.2857  0.00011  55490.00186  1.29929  0.21194  146161.88331  45.59301  19.54968  55501.06702    50.35636       44.15387    5.93244   12.1831   20.0    1.08306  -20.04915  0.94746 
   -3.63071  0.15748  1.92458     14.92832  1.46729  1.38151  2.69731  0.03466     0.02596  7624.48596   4538.60168  3.27339         2678.66404      20.2671  0.10276  55491.85029  0.93536  0.42477    7020.36188  48.02033  19.50266  55503.45186     50.3838       44.20689    2.99461  12.82523   18.0    1.12762  -20.05625  0.99821 
   -5.71444  0.00117  5.47764     14.58805  1.28566  1.26522    0.895  0.06579      0.3974  5779.65133   6085.00633  3.51751         2705.11391     20.29847  0.11046  55489.76656  0.17834  0.00105  238796.69836  45.52276  19.58822    55503.502    50.28989       44.03115    7.90992  11.85985   17.5    1.19057  -20.16132  0.99975 
    -6.1128  0.00211  6.26451      14.8295  1.68707  1.24872  2.34622   0.0378     0.43053  6659.20511   7307.16427  3.54875         2661.80305     17.12575    7e-05   55489.3682  0.62064  0.00495  134809.81458  45.77248  19.53247  55503.45186    50.28899       44.06711    7.90992  11.07046   18.0    1.10194  -20.04028  0.99898 
   -6.14879  0.00488  6.82342     15.03357   1.8614  0.71063  7.08759  0.01042     0.05243  6622.94894   6683.10914  4.37407         2484.83864     19.70995  0.02849  55489.33221  1.85451  0.03461   68946.27578  46.03217  19.65874    55503.502    50.27552       44.00637    5.93244  13.83733   17.5     1.1298  -20.12313  0.99269 
   -6.01608  0.04783  7.27732     14.87815  1.77115  1.18842  4.07163  0.02043     0.04809  7393.64958   4506.44835  2.95898          2799.2278     18.23402  0.00095  55489.46492  1.32774  0.19476  152657.32785  45.60944  19.58545  55503.45186    50.32837       44.06848    7.90992  12.22124   19.0     1.1641  -20.08928  0.95143 
   -5.65451  0.00249  6.27617     14.65148  1.53865  1.46817  1.00484  0.05406     0.16631  5694.84168   8522.63412  3.81718         2544.06567     20.35545  0.12594  55489.82649   0.1944  0.00251  280145.27641  45.41321  19.56249  55501.06702    50.31822        44.1002    5.93244  11.86487   18.5    1.14765  -20.17431  0.99939 
   -5.43515  0.00297  6.96033     14.98523  1.65718  0.65861  3.94441  0.01542     0.02933   5469.6416   5581.82183  3.88394         2752.14461     18.13295  0.00075  55490.04585  0.70393  0.01171   79795.70243  45.90098  19.60785  55503.45186    50.25339       44.00302    7.90992  11.85985   16.5    1.17881  -20.08596  0.99688 
   -4.99977  0.00593  7.53705     14.91383  1.83977  1.00107  1.39768  0.04098     0.08349  5224.07581   8759.55357  4.79578         2613.68865       17.723  0.00029  55490.48123  0.22754  0.00828  144318.75039  45.61988  19.58109  55503.45186    50.31231       44.06517    7.90992  12.68489   16.5    1.17281  -20.08533  0.99779 
   -4.93201  0.04335  5.68688     14.94881  1.80879  1.35512  5.69603  0.01885     0.14994  7516.05396   5913.44498  4.72847         2395.46074     16.06409    1e-05  55490.54899  1.91946  0.24692    68760.9413  46.17915  19.58958  55501.06702    50.32469       44.09976    5.93244  12.22124   19.0      1.012  -20.00399  0.96712 
   -4.41417  0.03677  3.97667      14.8485  1.45208  1.38797     6.88  0.01122     0.03362  5737.75149   7555.14544  4.31668         2632.82362     18.22363  0.00093  55491.06683  1.35114  0.25295   42839.18111  46.59996  19.55867  55503.45186    50.41637       44.16412    5.93244  13.84235   17.0     1.1486  -20.05551  0.98125 
   -5.37174  0.08069  5.72896     15.02886  1.64856  0.72178  3.41971  0.02317     0.26378  6793.85371   4678.53919  3.50679         2611.72958     19.41225  0.01435  55490.10926  0.94156  0.27593   43990.16632  46.32644  19.56072  55501.06702    50.31904       44.10539    7.90992  11.86487   18.5    1.13027  -20.06947  0.95515 
   -6.34282  0.04928  5.45571     15.00082  1.29541    0.452  2.74733  0.02946     0.12024  7546.20692   5726.57445  3.18942         2632.71592     17.69782  0.00028  55489.13818  0.93324  0.13538   35668.91139  46.35526  19.53037  55501.06702    50.33956       44.12488    6.94956  12.82523   19.0    1.14759  -20.06342   0.9693 
     -5.116  0.01042  7.17347     14.99842  1.88843   0.7782  3.77599  0.01716     0.06689  6483.74599   5169.00425  3.50757         2635.91354     20.18829  0.08571    55490.365  0.94691  0.03934   90895.01031  45.87495  19.55911  55501.06702    50.37883       44.15623    6.94956  12.82523   17.5     1.2305  -20.15684  0.99094 
   -2.85262  0.12958  1.30839     15.00757  1.42578  1.47237  3.96402  0.01909     0.04575  6317.79993   3645.31396   4.3866         2557.62329     16.71285    3e-05  55492.62838  0.94383  0.51367    2188.75449  48.84923  19.52868  55503.45186    50.31894       44.11745    5.93244  11.86487   16.0    1.24816  -20.21679  0.99968 
   -6.33674  0.01584  5.53675     14.95052  1.50728  0.69797  6.07799  0.01496     0.35911  6361.08878   5904.00912  4.12902         2678.06368     18.55603    0.002  55489.14426  1.46707  0.09628   53886.73294  46.22905  19.59702  55503.45186    50.29679       44.03503    7.90992  13.83733   18.5    1.08297  -20.02747   0.9823 
   -5.62418  0.03787  6.73452     14.92713  1.83157  1.04084  3.55505  0.02154     0.03052  6188.30154    6509.0534  4.81877         2468.34167     16.30761    1e-05  55489.85682  0.81211  0.13463  107894.97878  45.84205  19.55575  55501.06702    50.53504       44.36035    6.94956  10.84775   19.0    1.09177   -20.0584  0.97241 
    -4.9254  0.06106  2.41029     14.96115  1.58141  1.51548  6.19838  0.01439     0.09637  6567.73664   5681.56787   3.0904         2858.41241     20.06083  0.06391   55490.5556  1.59491  0.37846   10202.12785  47.69506  19.55018  55501.06702    50.36729       44.13112    5.93244  11.86487   16.5    1.08205  -20.17887  0.99681 
   -4.76226  0.02293  6.93683     14.71199   1.4901  1.54247  3.77568  0.01354     0.06556  5897.55686    6007.3172  4.02154         2666.56689     18.76565  0.00324  55490.71874  0.78337  0.08659    250827.822  45.36036    19.557  55503.45186    50.31229       44.05646    7.90992  13.04794   16.5    1.25871  -20.10275  0.97366 
   -4.60978  0.28929  1.42715        15.13  1.83288  1.42426  2.35267  0.04322      0.0229  8689.04253    6245.2231  3.53914         2357.16326     20.19089  0.08622  55490.87122  1.05958  0.68061    1905.01011  48.94314  19.47468  55501.06702    50.36546        44.1483    5.93244  13.84235   24.5    1.00637  -19.89719  0.99966 
   -7.96487  0.02295  5.71943     15.00899  1.69563  0.63791  2.96998  0.03097        0.04  6358.52465   6952.80596  3.67628         2407.92633     19.64354  0.02445  55487.51613   0.7163  0.06815   49417.55789  46.28959  19.57817  55501.06702    50.29173       44.06437    5.93244  12.22124   22.5    0.92603  -19.78148  0.98858 
   -4.85473  0.12333  3.75764     14.93169  1.45752  0.95305  3.28828  0.02155     0.02187  6485.46138   4000.00183  3.20561         2611.71617     19.50213  0.01765  55490.62627  0.82505  0.40553   26174.24338  46.86476   19.5811  55501.06702    50.33115        44.0865    4.97209  12.82523   17.5     1.2087  -20.10494    0.975 
   -6.11048  0.09989  4.35009     14.72753  1.35072  1.51725  2.39912  0.03937     0.25666  7682.48822   4465.03818  2.63153         2634.79151     17.71319  0.00029  55489.37052  0.84466  0.23964   83237.68627  46.20209   19.5635  55501.06702    50.30296       44.06634    7.90992  12.22124   19.5    1.17051  -20.01347  0.97094 
   -5.82685  0.02325  7.40532     15.03451   2.0279  0.91588  2.66896  0.02961      0.1387  7041.77702   5958.58773  4.31733         2449.85216     16.33468    1e-05  55489.65415  0.78947  0.06204    88089.3937  45.89188  19.49599  55501.06702    50.41187       44.20955    3.95496  11.86487   18.0    1.17207  -20.07723  0.98659 
   -7.22183  0.03311  5.87023     14.85664  1.56645  0.88065  3.78946  0.02499     0.02796   7093.9967   5264.88131  3.37005         2579.51432     17.65718  0.00025  55488.25917  1.13759  0.12547   96998.34821  45.93969  19.50742  55501.06702     50.3305       44.11112    5.93244   12.1831   21.0    1.02987   -19.9509  0.97515 
   -5.10084  0.08149  6.96326     15.11105  1.78709  0.63278  2.55494  0.02719     0.04191  6936.04159   7096.86509  2.76674          2881.3865     18.90312  0.00444  55490.38016  0.73321   0.2082   48248.57538  46.15188  19.62092  55501.06702    50.47048       44.16993    7.90992  15.81983   18.0    1.23463   -20.0849  0.95382 
    -5.7873  0.02149  6.62345     15.01689   1.6612  0.65749  3.55922  0.02153     0.05925  6714.51017   6615.06936  3.09108          2813.1946     16.68964    3e-05   55489.6937  0.95722  0.07647   62606.47171  46.05048  19.50622  55503.45186    50.27962        44.0683    7.90992  11.07046   17.5    1.18413  -20.08982  0.98214 
   -5.31091   0.0767  5.83155     15.04681  1.81785  0.86694  3.44147  0.02277     0.46252  6490.32554   5052.58572  4.57976         2468.59637     16.57666    2e-05  55490.17009  0.86478  0.26397   46273.27232  46.33151  19.53202  55501.06702    50.34158       44.12868    5.93244  13.04794   18.0    1.12838   -20.0661  0.96262 
   -5.97749  0.03111  5.15054     14.78046  1.47832  1.25211  5.21414  0.01602     0.02859  6875.37625   6882.84831  3.57808         2593.36485     17.84823  0.00039  55489.50351  1.47029  0.16223  100086.45496  46.01453  19.54555  55501.06702    50.32123        44.0759    7.90992  13.04794   18.0    1.13767  -20.08224  0.97424 
   -7.17219  0.08506   2.8294     14.96224  1.51437   0.8209  3.11313   0.0375     0.24532  7464.44591   4282.31832  2.19158         2640.88495     19.99732  0.05521  55488.30881  1.03471  0.26482   13395.41098  47.41873  19.51804  55501.06702    50.30744       44.06968    5.93244  12.22124   22.0    0.93388  -19.74794  0.99322 
   -5.17392  0.00262  5.76844      14.9414   1.6561  0.65635  4.77684  0.01549     0.10714  6587.94437   6020.74191  3.56437         2618.16219      20.5175  0.18291  55490.30708  1.23671  0.01251   67023.34302  46.13959  19.58766  55503.45186    50.26849       44.04631    7.90992  11.85985   18.0    1.15346  -20.27361  0.99773 
   -8.16313  0.00293  5.71029     14.90799   1.9088  1.14099  2.14739  0.04347     0.07668  6926.70354   6644.00199  3.43485         2525.86509     18.70632  0.00283  55487.31787   0.6146   0.0063   88289.23954  46.09038  19.52249  55503.45186    50.27101       44.06747    7.90992  10.24376   20.5     1.0507  -19.87736  0.99913 
   -5.76686  0.01253   6.6649     14.80717  1.70718  1.53879  6.46389  0.01137     0.16711  6596.45376   6442.65553   3.8795         2624.53151     19.93006  0.04729  55489.71414  1.67781  0.08099  171137.88114  45.62019  19.51202  55503.45186    50.31482       44.10693    5.93244  11.86487   17.5    1.15737  -20.13031  0.98159 
   -5.13473  0.02579  5.53707     14.80607  1.54326  1.27363  6.92167  0.01142      0.0227  6723.59945   6147.31041    3.992         2556.58358     18.85939  0.00402  55490.34627  1.86656  0.17853  107318.50642  45.94005  19.56051  55501.06702    50.29482       44.04802    7.90992  13.04794   18.0    1.18511  -20.08294  0.96911 
   -6.54305  0.00924   7.0372     14.88361  1.91558   1.3651  6.10613  0.01223     0.12028  6331.16122   5002.32432  4.93803         2326.94917       16.756    3e-05  55488.93795  1.46002  0.05641  150557.61336  45.67864   19.5254  55501.06702    50.30426       44.09367    5.93244   12.1831   19.5    1.07349  -19.95489  0.98792 
   -3.58441  0.06953  3.30072     14.92922  1.86415  1.42984  3.66988  0.02402     0.08744  7527.19654   4694.40423  3.78298         2464.67772     20.72104  0.29226  55491.89659  1.24035  0.25516   26125.46255  47.08504  19.51744  55501.06702    50.36269       44.13042    4.97209  12.82523   16.5    1.27999   -20.3883  0.99271 
   -5.69064  0.00114  7.19955     14.93798  1.74257  0.73809  2.36484  0.02265     0.25956  5204.98158   6071.10783  4.81446          2563.3283     16.80002    4e-05  55489.79036  0.38218   0.0027  111598.95531  45.74776  19.57327  55501.06702    50.31942       44.08109    7.90992  12.22124   16.5    1.16787   -20.1384  0.99928 
   -5.44126  0.00947  6.97866     14.90728  1.92054   1.3452  5.37265  0.01445     0.03029  7128.15685   5817.27444  2.73548         2755.71852     19.73104  0.02991  55490.03974  1.62843  0.05086  133113.72093   45.7405  19.53934  55503.45186    50.30919       44.09199    5.93244  13.04794   17.5    1.17316  -20.08244   0.9894 
   -6.45968    0.026  6.08596     14.92977   1.6376  0.84085  5.80594  0.01311     0.01089  6031.78136   5892.92994  3.33095         2779.18781     18.24291  0.00097  55489.02132  1.26006  0.15095   77830.43386  46.02325  19.60283  55503.45186    50.32112       44.09903    5.93244  12.22124   19.0    1.10329  -20.00836  0.97041 
   -5.46057   0.0151  5.54421     14.72254  1.35534  1.04587  4.68522  0.01846     0.39681  6767.32716   6119.03909  3.66509         2680.14188     17.28428  0.00011  55490.02043  1.27995  0.07074  138822.22727  45.77076  19.52908  55503.45186    50.31234       44.07879    5.93244  13.04794   18.5     1.1051  -20.09586  0.98426 
   -3.52322   0.0669  5.45272     14.87671  1.51599  1.33832  4.40895  0.01781     0.17952  7542.92376   4313.48885  4.27161         2548.32161     16.86948    4e-05  55491.95778  1.49638  0.29496   73843.67896    46.108  19.55987  55503.45186    50.35037       44.13763    7.90992  11.07046   17.0    1.20276  -20.04726   0.9537 
   -6.51438  0.19237  4.19416     14.95868  1.78276  1.38286  1.83235  0.06599     0.11119  7710.05581   4526.92031  2.88103         2697.88139      19.2727  0.01041  55488.96662  0.64976   0.3525   35224.38286   46.7278  19.68165  55503.45186    50.29983        44.0602    7.90992  13.04794   21.0    0.95774  -19.92114  0.97963 
  -11.53307   0.0212  2.85194     14.84176  1.75739  1.45135  8.45938  0.01316     0.01098  5807.69448   4756.41744  2.32455         2648.64176     17.10214    7e-05  55483.94793  1.70205  0.17933   27506.82478  47.16399   19.5095  55501.06702    50.32257       44.10574    7.90992  13.04794   28.0    0.74148  -19.41517  0.99576 
   -2.65212  0.08939  3.42408     15.14773  1.74434   0.9076  4.57299  0.01977     0.02075  7886.28221   4904.68018  4.19871         2578.93968     19.73019  0.02985  55492.82888  1.69657  0.40879    9617.98416   47.4583  19.49757  55501.06702    50.36548       44.13531    5.93244  11.86487   17.5    1.21553  -20.02657  0.99101 
   -5.93289  0.01954  7.43527     14.86979  1.87417  1.47566  3.84403  0.02166     0.31025  7313.23166   6455.61381   3.7272         2660.78945      18.8253  0.00372  55489.54811   1.2264  0.07512  175239.62103  45.55543  19.56797  55503.45186    50.34143        44.1446    5.93244  11.86487   17.5    1.19379  -20.13496  0.98144 
     -5.809  0.00784  8.11326     14.88888  1.84255  0.94166  4.92348  0.01332     0.06349  6465.32641   6971.50232  4.05166         2590.44759     20.00247  0.05587    55489.672  1.22767  0.03859  187875.62572    45.442  19.50769  55501.06702    50.37641       44.15953    5.93244  11.86487   19.0    1.11388  -20.11195  0.98806 
   -5.57126  0.02946  7.74967     15.11666  2.01966  0.65804  4.31233  0.01242     0.03223  5807.35201   4852.87717  3.34371         2718.69521     19.68214  0.02672  55489.90974  0.86755  0.12705   65818.36672  45.97721  19.58728  55501.06702    50.30834       44.07789    7.90992   12.1831   17.5    1.21254  -20.12445  0.96983 
     -4.602  0.01758  5.46432     14.90013  1.71119   1.2317  7.12321  0.01113      0.0302  6261.10432   5553.06525  3.86792         2627.02379     16.29092    1e-05    55490.879  1.66573   0.1252   75150.32931  46.15114  19.52462  55503.45186    50.37361       44.11536    3.95496   12.1831   17.0    1.15632  -20.05771  0.98249 
   -3.44387  0.10883  3.47464     15.08254  1.69846  0.96924   4.4349  0.02092     0.04332  8179.20929   4375.77995  3.39295         2679.77092     20.10808  0.07125  55492.03713  1.76984  0.48266   13019.80282  47.30248  19.60677  55501.06702    50.28689       44.04225    6.94956  13.18159   17.0    1.22234  -20.21526  0.98669 
   -5.15156  0.05089  5.56299     14.94389  1.80375  1.53603  5.74434  0.01485     0.45718  7301.20583   4555.07614  2.79333          2737.4182     19.81433  0.03623  55490.32944  1.82665  0.29234   67115.18945  46.20758  19.52629  55501.06702    50.33072       44.11171    5.93244  11.86487   19.0    1.16391  -20.02376  0.96341 
   -7.37053  0.02312  6.80095     14.88242  1.88545  1.25403  3.14191  0.03011     0.20747  6978.19725   7263.87274  3.17957         2558.81509      17.0364    6e-05  55488.11047  0.91266  0.07265  139165.08914  45.73559  19.60372  55503.45186    50.37188       44.08557    4.97209  13.18159   21.0    1.00458  -19.88648  0.98519 
   -6.54639   0.0508  3.84218     14.85433  1.30994  0.74887  4.57956  0.02033     0.06038  6908.63236   4909.34487  3.01035         2635.74849     19.57777  0.02101  55488.93461  1.30387  0.23263   35120.68513  46.67138  19.55079  55503.45186    50.28687       44.04561    7.90992  11.85985   20.0    1.04415  -19.99162  0.97748 
   -5.01036  0.08114  4.13816     14.92488  1.37947  0.82068  3.55792  0.02157     0.01691  5493.72325   5100.06168  3.54943         2827.62746     16.01192    1e-05  55490.47064  0.64056  0.28869   31001.90419  46.68356   19.5784  55501.06702    50.45905       44.15157    5.93244  15.81983   18.0    1.12242  -20.01993  0.97246 
   -5.64205   0.0491  6.39041     14.88321  1.71183  1.13783  3.57252  0.01716     0.25656  6234.91472   5282.34542   2.6883          2934.2164     19.35862  0.01269  55489.83895  0.82844  0.17541  111153.04987  45.84533  19.52215  55503.45186    50.30692       44.07977    5.93244  13.04794   17.0    1.26459  -20.10199  0.96479 
   -5.43132  0.05597  3.63252     14.86487  1.52699  0.82132  4.73462  0.01672     0.33537  5571.86087   3634.80136  2.98394         2755.26184     20.67968  0.26571  55490.04968  0.87682    0.265   34860.28386  46.78994  19.58271  55503.45186    50.30924       44.06769    7.90992  13.04794   18.0    1.01705  -20.29151   0.9821 
   -7.63049  0.24008  4.98237     15.13286  1.60322  0.51264  1.52975  0.06616     0.19965  8126.46305   3524.91363  3.07546         2429.01204     17.50965  0.00018  55487.85051  0.60263  0.36726   20043.05843    46.777  19.59968  55501.06702    50.44425        44.1998    7.23301  12.54178   24.0    0.99527   -19.8637  0.95471 
   -3.22987   0.2215  5.43213     14.96786  1.70983  1.39944  1.38404   0.0517     0.15349  7114.31836   5231.68776  3.33167         2805.73905     18.91221  0.00454  55492.25113  0.41787  0.30656   54324.38772  46.29686  19.58963  55503.45186    50.31744       44.08504    5.93244  13.04794   16.0    1.36815  -20.14734  0.96287 
    -7.8727  0.01735   6.6932     14.74559  1.63041  1.51649  4.71335  0.01807     0.02287  6156.32623   6762.85796  2.93184         2825.17561     18.30554  0.00112   55487.6083  1.06561  0.08178  218874.67329  45.48968  19.53575  55503.45186    50.31228       44.10894    5.93244  11.86487   21.5    0.95816  -19.86759  0.97971 
   -4.90287  0.00158  6.29187     14.85213  1.29865  0.61874  6.08433  0.01047     0.08544  6352.83495   5728.14899  3.67774         2693.02623     16.84581    4e-05  55490.57813  1.46479  0.00962   94321.45344  45.81017  19.50816  55501.06702    50.32617        44.1507    3.95496  11.86487   17.5     1.1915  -20.04121  0.99697 
   -7.19031  0.03642  4.11084     15.01225  1.72084  0.85393  7.22844  0.01285     0.10897  6149.25719   3862.78753  2.55128         2732.35616     19.29107  0.01086  55488.29069  1.63049  0.26329   25521.75153  46.86981  19.59623  55503.45186    50.31051       44.05507    5.93244  13.04794   22.5    0.90322  -19.73432  0.98305 
   -5.96471  0.05103  7.45562     14.90164  1.98555   1.2606  2.92606  0.02266     0.40885  6199.12591   6953.67941  4.13515         2544.79937     20.02607  0.05899  55489.51629  0.67077  0.14931   161206.3892  45.61438  19.56093  55503.45186     50.2801       44.04697    7.90992  11.07046   18.5    1.12378  -20.14265  0.96644 
   -5.72558   0.0045  8.02778     14.89633  1.95845  1.39229  3.65146  0.02156     0.28481  7344.74079   6221.16336  3.24569         2732.76353     18.92513  0.00468  55489.75542  1.17502  0.01642  188914.99915   45.4753  19.50605  55503.45186    50.34431       44.12483    5.93244  13.04794   17.5    1.20485  -20.10709  0.99548 
   -6.07059  0.05702  4.92407     14.83038  1.53231  1.48526  5.07282  0.01899     0.01929  7853.33131   5777.59824  3.18483         2607.15348     18.77787  0.00333  55489.41041  1.86631  0.28923   75343.80456   46.1925  19.58693  55503.45186     50.3031       44.07397    7.90992  12.22124   19.0    1.16601  -20.04983  0.96339 
   -5.04749  0.04578  4.80543     14.74714  1.40668  1.03622  3.71053  0.02245     0.03041  7304.38989   7292.37507   4.1185         2475.68109     20.47363  0.16533  55490.43351  1.18095  0.16988   96647.56538  46.06839  19.52529  55501.06702    50.36856       44.17961    3.95496  11.86487   18.0    1.13959  -20.24483  0.97423 
   -4.19132  0.30907  2.07064     15.12098  1.51288  0.86879  2.06341  0.04193     0.01293  8001.09882   4861.18178  2.59823         2665.63472     16.52733    2e-05  55491.28968  0.78797  0.63773    3450.41248  48.27857   19.5155  55503.45186     50.3117       44.12337    5.93244  11.86487   22.5    1.09034  -19.82895  0.99753 
   -5.16675  0.02737  5.85239      14.6385  1.45933  1.56922  4.20787  0.01292     0.06856  5591.59167   5082.44238  4.22868         2596.55323     20.49837  0.17502  55490.31425   0.7848  0.11518  245262.62106   45.5087  19.52888  55503.45186    50.30633       44.08967    7.90992  11.07046   17.0    1.17384  -20.26004  0.97429 
   -2.95321  0.09707   3.1865     15.08139  1.61813  0.92922  3.68828  0.01821     0.32654   5232.6726   3432.72013  4.16869         2741.56842     18.63636   0.0024  55492.52779  0.60242  0.35801   10487.75171  47.45055   19.5551  55503.45186    50.34277       44.09091    3.95496  13.04794   16.5     1.1816  -20.06327  0.99226 
   -5.99645  0.01448  6.26145     14.56587  1.25894  1.43205  1.38493  0.04353     0.29021  6167.21903   6808.61958  3.67024         2630.25763     16.65797    3e-05  55489.48455  0.31422  0.02006  338408.58792  45.24606  19.54621  55501.06702    50.37814       44.13209    5.93244  13.84235   19.0    1.14587  -20.02628  0.99342 
   -5.83249  0.01371  6.66145     14.79609  1.69568  1.46733  3.24267  0.02366     0.11453  7034.89071    5813.8318  3.73183         2643.66608     19.32414  0.01172  55489.64851  0.95729  0.04444  178699.58459  45.59893  19.55557  55501.06702    50.31213       44.09594    5.93244  12.18476   17.5     1.1883  -20.16788  0.98969 
   -5.66927  0.01216  8.26097     15.09476  2.14968  0.80986  4.50774  0.01516     0.09803  6279.16242   7119.36611  2.90239         2777.85567     19.13034   0.0075  55489.81173  1.06021  0.05479   88050.73159  45.82242  19.70242    55503.546    50.28656       43.98353    7.90992  15.50068   18.5     1.1725  -20.00846  0.98631 
   -4.01935  0.08441  4.68494     15.01416  1.62477  0.93287  3.68351  0.01776     0.01613   6203.7435   5324.03937   3.9545         2659.92909     16.64486    2e-05  55491.46165  0.84566  0.31094   31023.81665  46.64653   19.4734  55501.06702    50.38455       44.16162    7.90992  11.86487   15.5    1.28621  -20.09687  0.97151 
   -3.35431  0.05375  2.30848     14.84005  1.56719   0.9772  6.15702  0.01758     0.21537  8370.25429   5997.30744  4.34099         2314.61618     20.99428  0.54829  55492.12669  2.57321  0.33092   16199.01379  47.52783  19.49722  55501.06702    50.34529       44.13417    5.93244  12.22124   16.5    1.18188  -20.74133   0.9948 
   -4.35936  0.08013   4.2821     15.02474   1.7774  1.28872  4.76918   0.0145     0.03821  6707.04705   4961.36889  4.23517          2508.6165     19.19246  0.00865  55491.12164  1.27977  0.38213   27004.28964  46.82388  19.56394  55501.06702     50.3977       44.17095    6.94956  13.18159   15.5    1.24299  -20.16264  0.97964 
   -4.86507  0.01154  7.72843     14.91118  1.85026  1.14022  4.05918  0.01708     0.37276  6637.34022   6506.06684  3.91916         2568.77703     16.86106    4e-05  55490.61593  1.06673  0.04684  154481.64516  45.57102  19.59007  55503.45186    50.50673       44.31357    4.97209  12.82523   17.5    1.19192  -20.02237  0.98714 
   -6.66984  0.01575   5.6607     14.75246  1.51693  1.56509  7.47267   0.0122      0.1488  7276.10968   6336.96962  3.29935         2623.04059     17.50899  0.00018  55488.81116  2.35994  0.11768  141121.99207  45.79448  19.55675  55501.06702    50.42372       44.18684    7.27364  12.50115   19.5     1.1056  -19.99412  0.97752 
   -5.10584  0.01479  5.92499     14.80029  1.56799   1.2681  7.18997  0.01122     0.35824  7126.79949   7083.83596  3.04204         2583.73698     17.49485  0.00017  55490.37516  2.17843  0.10631   128222.0742  45.81085  19.54563  55503.45186    50.31973       44.09796    5.93244   12.1831   18.5    1.12285   -20.0054  0.97877 
   -9.59424  0.00265  6.66666     14.75623  1.57034  0.97198  2.17527  0.04474     0.31003  8287.60259   7434.67595  3.77437         2174.84222     16.81718    4e-05  55485.88676  0.89125  0.00576  199139.96892  45.51786  19.60788  55501.06702    50.34454       44.10463    7.90992  11.86487   22.5    0.94772  -19.82628  0.99846 
