# Wavelength Flux
# STATUS = PUBLIC
# OBJECT = 2016ard
# TELESCOPE =
# INSTRUMENT =
# DATE-OBS =
# MJD =
# EXPTIME =
# SLIT =
# DISPERSER =
# SOURCE =
# FILTER =
# FLUX_STANDARD =
# EXTINCTION_CORRECTED =
# PHOTOMETRY_CALIBRATED =
# FLUX_UNITS =
# QUALITY =
# MIN_WAVE = 4100
# MAX_WAVE =
# COMMENT =
3928.0 0.38981
3930.54 0.09664299
3931.81 0.2037812
3933.08 0.3174823
3934.35 -0.1080224
3935.62 0.2115151
3936.89 0.2237357
3938.16 0.2456708
3939.43 0.06252805
3940.7 0.1530762
3941.97 0.5959304
3943.24 0.3878321
3944.51 0.1950327
3945.78 0.3700766
3947.05 0.4439265
3948.32 0.7896314
3949.59 0.3766389
3950.86 0.1375294
3952.13 0.5039647
3953.4 0.3734247
3954.67 0.1912926
3955.94 0.4784616
3957.21 0.2967827
3958.48 0.2512581
3959.75 0.312893
3961.02 -0.08761982
3962.29 0.3532598
3963.56 0.8622028
3964.83 0.5488539
3966.1 0.9489011
3967.37 0.8495671
3968.64 0.5884084
3969.91 0.6824604
3971.18 0.4322961
3972.45 0.7604841
3973.72 0.6397471
3974.99 0.4565656
3976.26 0.3856544
3977.53 0.5422971
3978.8 0.4402691
3980.07 0.1281632
3981.34 0.3025262
3982.61 0.1166795
3983.88 0.32629
3985.15 0.4231702
3986.42 0.416175
3987.69 0.4906181
3988.96 0.2421126
3990.23 0.3080322
3991.5 0.1325414
3992.77 0.1683077
3994.04 0.05801559
3995.31 0.3162939
3996.58 0.8292393
3997.85 0.6404718
3999.12 0.0875406
4000.39 0.2826121
4001.66 0.5108422
4002.93 0.4659443
4004.2 0.7163919
4005.47 0.5128039
4006.74 0.3724574
4008.01 0.2626201
4009.28 0.1820536
4010.55 0.17492
4011.82 0.195783
4013.09 0.3604536
4014.36 0.3857894
4015.63 0.3476284
4016.9 0.4343252
4018.17 0.3442201
4019.44 0.364917
4020.71 0.2853039
4021.98 0.3567394
4023.25 0.7520737
4024.52 0.5522692
4025.79 0.6394707
4027.06 0.713955
4028.33 0.3534492
4029.6 0.3427543
4030.87 0.5917996
4032.14 0.3275227
4033.41 0.3515716
4034.68 0.4037701
4035.95 0.1523869
4037.22 0.4377129
4038.49 0.453036
4039.76 0.08811299
4041.03 0.2276135
4042.3 0.4758685
4043.57 0.4573857
4044.84 0.3976996
4046.11 0.3444082
4047.38 0.3554368
4048.65 0.3554195
4049.92 0.6190742
4051.19 0.7126352
4052.46 0.4612463
4053.73 0.49593
4055.0 0.5171143
4056.27 0.7689277
4057.54 0.9032422
4058.81 0.4454048
4060.08 0.5762558
4061.35 0.6432158
4062.62 0.5763914
4063.89 0.3646134
4065.16 0.6642082
4066.43 0.7899224
4067.7 0.7741629
4068.97 0.4276958
4070.24 0.276197
4071.51 0.1823716
4072.78 0.1676618
4074.05 0.1870699
4075.32 0.4344099
4076.59 0.6583422
4077.86 0.5220893
4079.13 0.5296051
4080.4 0.5377471
4081.67 0.356883
4082.94 0.5157602
4084.21 0.4756641
4085.48 0.4233209
4086.75 0.525441
4088.02 0.3913121
4089.29 0.3501774
4090.56 0.3768568
4091.83 0.2012544
4093.1 0.003205749
4094.37 0.3401685
4095.64 0.1573663
4096.91 0.2006986
4098.18 0.2467141
4099.45 0.2573138
4100.72 0.3427657
4101.99 0.3639685
4103.26 0.2716821
4104.53 0.1635229
4105.8 0.2140505
4107.07 0.2190448
4108.34 0.4307041
4109.61 0.4535914
4110.88 0.1866189
4112.15 0.1964323
4113.42 0.2844549
4114.69 0.2328121
4115.96 0.3930262
4117.23 0.2695943
4118.5 0.2468112
4119.77 0.4102407
4121.04 0.2137782
4122.31 0.08463766
4123.58 0.159882
4124.85 0.1899396
4126.12 0.2399807
4127.39 0.3359181
4128.66 0.2965885
4129.93 0.4343508
4131.2 0.4108227
4132.47 0.4966729
4133.74 0.3531509
4135.01 0.5888359
4136.28 0.4921597
4137.55 0.5107332
4138.82 0.4402152
4140.09 0.3435039
4141.36 0.2498632
4142.63 0.1922476
4143.9 0.3023103
4145.17 0.1121712
4146.44 0.1822947
4147.71 0.1884551
4148.98 0.08305013
4150.25 0.1061679
4151.52 0.3565883
4152.79 0.3856132
4154.06 0.4470233
4155.33 0.3486607
4156.6 0.4840231
4157.87 0.5089844
4159.14 0.4477363
4160.41 0.5732816
4161.68 0.4170824
4162.95 0.2748107
4164.22 0.3081509
4165.49 0.1483491
4166.76 0.1194739
4168.03 0.123068
4169.3 0.1743602
4170.57 0.246892
4171.84 0.3029627
4173.11 0.3465004
4174.38 0.4585119
4175.65 0.4610229
4176.92 0.4546783
4178.19 0.4696072
4179.46 0.4947689
4180.73 0.4659662
4182.0 0.2022019
4183.27 0.2226387
4184.54 0.3732059
4185.81 0.5306172
4187.08 0.2966104
4188.35 0.4317004
4189.62 0.3920876
4190.89 0.1599735
4192.16 0.3267899
4193.43 0.4178554
4194.7 0.5354381
4195.97 0.3338865
4197.24 0.4287443
4198.51 0.608759
4199.78 0.4224561
4201.05 0.366569
4202.32 0.3028986
4203.59 0.2328795
4204.86 0.1836002
4206.13 0.3641108
4207.4 0.2662931
4208.67 0.3126122
4209.94 0.2853563
4211.21 0.4325493
4212.48 0.4503439
4213.75 0.408129
4215.02 0.5549034
4216.29 0.3202568
4217.56 0.3564933
4218.83 0.5597398
4220.1 0.3729275
4221.37 0.1752359
4222.64 0.311685
4223.91 0.2618065
4225.18 0.4203931
4226.45 0.4876284
4227.72 0.3469503
4228.99 0.4516228
4230.26 0.3998072
4231.53 0.37423
4232.8 0.3677635
4234.07 0.3776559
4235.34 0.373774
4236.61 0.4163797
4237.88 0.2214383
4239.15 0.346478
4240.42 0.3778979
4241.69 0.3869732
4242.96 0.3397607
4244.23 0.3576933
4245.5 0.4201213
4246.77 0.3336939
4248.04 0.3993981
4249.31 0.4037417
4250.58 0.3416143
4251.85 0.29116
4253.12 0.2717385
4254.39 0.3476275
4255.66 0.3434777
4256.93 0.3157273
4258.2 0.2650558
4259.47 0.2465628
4260.74 0.2937528
4262.01 0.4081358
4263.28 0.1623868
4264.55 0.2402601
4265.82 0.3939146
4267.09 0.2899263
4268.36 0.2987947
4269.63 0.2576517
4270.9 0.2819205
4272.17 0.212097
4273.44 0.3473079
4274.71 0.3452528
4275.98 0.3295468
4277.25 0.3960468
4278.52 0.4252321
4279.79 0.4431846
4281.06 0.3335782
4282.33 0.3597969
4283.6 0.3837939
4284.87 0.3544237
4286.14 0.4538436
4287.41 0.4278452
4288.68 0.3196167
4289.95 0.3701426
4291.22 0.4070874
4292.49 0.3199688
4293.76 0.3129648
4295.03 0.3292095
4296.3 0.3751423
4297.57 0.1974391
4298.84 0.1932442
4300.11 0.206124
4301.38 0.2096487
4302.65 0.416633
4303.92 0.3809653
4305.19 0.3868981
4306.46 0.3786704
4307.73 0.3121263
4309.0 0.3158166
4310.27 0.3265274
4311.54 0.3400643
4312.81 0.2875916
4314.08 0.3437253
4315.35 0.2144111
4316.62 0.2499364
4317.89 0.3303555
4319.16 0.4300347
4320.43 0.4201189
4321.7 0.3751448
4322.97 0.2540591
4324.24 0.176402
4325.51 0.2498249
4326.78 0.2805061
4328.05 0.2641631
4329.32 0.381405
4330.59 0.4030856
4331.86 0.3363586
4333.13 0.3483736
4334.4 0.3912617
4335.67 0.4297812
4336.94 0.3559718
4338.21 0.3396464
4339.48 0.3876739
4340.75 0.3945925
4342.02 0.2888473
4343.29 0.2564785
4344.56 0.3734507
4345.83 0.3413479
4347.1 0.3073624
4348.37 0.2410133
4349.64 0.2538098
4350.91 0.2099021
4352.18 0.2096726
4353.45 0.2201092
4354.72 0.2497069
4355.99 0.2542908
4357.26 0.2688454
4358.53 0.2878657
4359.8 0.3099123
4361.07 0.2908401
4362.34 0.3300877
4363.61 0.3672432
4364.88 0.2929097
4366.15 0.2177145
4367.42 0.2508945
4368.69 0.2885464
4369.96 0.2961408
4371.23 0.422424
4372.5 0.3503495
4373.77 0.3464629
4375.04 0.3485727
4376.31 0.3005596
4377.58 0.2949338
4378.85 0.2386279
4380.12 0.2929788
4381.39 0.2111609
4382.66 0.2335993
4383.93 0.3047253
4385.2 0.2659134
4386.47 0.27141
4387.74 0.272971
4389.01 0.2984428
4390.28 0.2883358
4391.55 0.3819672
4392.82 0.285987
4394.09 0.2778555
4395.36 0.4344707
4396.63 0.3970251
4397.9 0.3259706
4399.17 0.3208676
4400.44 0.3698518
4401.71 0.3986711
4402.98 0.3371468
4404.25 0.2921992
4405.52 0.3742574
4406.79 0.3511153
4408.06 0.3219596
4409.33 0.2837879
4410.6 0.2346711
4411.87 0.2487899
4413.14 0.2556892
4414.41 0.2328787
4415.68 0.2988262
4416.95 0.2901155
4418.22 0.1926238
4419.49 0.2496902
4420.76 0.2551673
4422.03 0.3141271
4423.3 0.3204833
4424.57 0.238871
4425.84 0.2562199
4427.11 0.2587613
4428.38 0.2568846
4429.65 0.2495402
4430.92 0.3262829
4432.19 0.2907573
4433.46 0.2090113
4434.73 0.2759448
4436.0 0.2940745
4437.27 0.2425406
4438.54 0.1676437
4439.81 0.2345167
4441.08 0.2823488
4442.35 0.3068849
4443.62 0.3331738
4444.89 0.2935387
4446.16 0.2854323
4447.43 0.3030445
4448.7 0.2201183
4449.97 0.2282153
4451.24 0.2723953
4452.51 0.226988
4453.78 0.2399961
4455.05 0.2368477
4456.32 0.2194899
4457.59 0.2461412
4458.86 0.2429095
4460.13 0.3038546
4461.4 0.2712227
4462.67 0.3096806
4463.94 0.3066895
4465.21 0.2039625
4466.48 0.247465
4467.75 0.3401847
4469.02 0.3419627
4470.29 0.2729102
4471.56 0.2564825
4472.83 0.2375717
4474.1 0.251398
4475.37 0.2726719
4476.64 0.2191385
4477.91 0.2684656
4479.18 0.2880071
4480.45 0.2606592
4481.72 0.2534776
4482.99 0.2363405
4484.26 0.2340417
4485.53 0.2191154
4486.8 0.2344198
4488.07 0.2359341
4489.34 0.2038698
4490.61 0.2129372
4491.88 0.2801377
4493.15 0.2907681
4494.42 0.2458328
4495.69 0.2352611
4496.96 0.2553566
4498.23 0.274049
4499.5 0.2741936
4500.77 0.2515213
4502.04 0.2389313
4503.31 0.293597
4504.58 0.2962437
4505.85 0.3124888
4507.12 0.2500883
4508.39 0.2215513
4509.66 0.2586942
4510.93 0.2291538
4512.2 0.2168466
4513.47 0.2517815
4514.74 0.2735114
4516.01 0.27192
4517.28 0.2963683
4518.55 0.2899478
4519.82 0.2634672
4521.09 0.2657493
4522.36 0.3033488
4523.63 0.3334876
4524.9 0.2977429
4526.17 0.2763846
4527.44 0.2528419
4528.71 0.299354
4529.98 0.273913
4531.25 0.2379018
4532.52 0.2878512
4533.79 0.3268149
4535.06 0.3342504
4536.33 0.3191277
4537.6 0.3293626
4538.87 0.3215566
4540.14 0.2415699
4541.41 0.2110752
4542.68 0.2675306
4543.95 0.2427503
4545.22 0.2528047
4546.49 0.2688389
4547.76 0.2657183
4549.03 0.2666018
4550.3 0.2883873
4551.57 0.3202431
4552.84 0.3073148
4554.11 0.2951101
4555.38 0.3301819
4556.65 0.2922436
4557.92 0.3231952
4559.19 0.3495452
4560.46 0.2963776
4561.73 0.2348067
4563.0 0.2971335
4564.27 0.335952
4565.54 0.276538
4566.81 0.2874604
4568.08 0.3407194
4569.35 0.2815534
4570.62 0.249789
4571.89 0.2969657
4573.16 0.3453475
4574.43 0.3136485
4575.7 0.2305567
4576.97 0.3166159
4578.24 0.2881314
4579.51 0.2901723
4580.78 0.2797647
4582.05 0.2510402
4583.32 0.326347
4584.59 0.2911495
4585.86 0.2896911
4587.13 0.2579526
4588.4 0.2665914
4589.67 0.2588547
4590.94 0.2191609
4592.21 0.2516153
4593.48 0.3586646
4594.75 0.2682594
4596.02 0.2176186
4597.29 0.2507502
4598.56 0.2192536
4599.83 0.2816799
4601.1 0.3035626
4602.37 0.2781045
4603.64 0.2231193
4604.91 0.2712533
4606.18 0.239553
4607.45 0.2565279
4608.72 0.293134
4609.99 0.3367088
4611.26 0.2847664
4612.53 0.3038917
4613.8 0.3222465
4615.07 0.3219141
4616.34 0.2981341
4617.61 0.2075499
4618.88 0.2471232
4620.15 0.2187204
4621.42 0.1966933
4622.69 0.2377277
4623.96 0.2082538
4625.23 0.2480281
4626.5 0.2359345
4627.77 0.3003996
4629.04 0.2660203
4630.31 0.2619123
4631.58 0.258641
4632.85 0.255389
4634.12 0.2318206
4635.39 0.2588645
4636.66 0.2594219
4637.93 0.2467967
4639.2 0.2285305
4640.47 0.2354601
4641.74 0.2308188
4643.01 0.2242976
4644.28 0.2265429
4645.55 0.2114419
4646.82 0.2456568
4648.09 0.2662036
4649.36 0.2608269
4650.63 0.2430988
4651.9 0.2447921
4653.17 0.3161962
4654.44 0.3001794
4655.71 0.3025661
4656.98 0.3215959
4658.25 0.2721747
4659.52 0.2051875
4660.79 0.1968632
4662.06 0.2496905
4663.33 0.2836191
4664.6 0.2789319
4665.87 0.3014927
4667.14 0.2302416
4668.41 0.2244378
4669.68 0.2444393
4670.95 0.210793
4672.22 0.2524053
4673.49 0.297123
4674.76 0.298126
4676.03 0.3238043
4677.3 0.297978
4678.57 0.3150707
4679.84 0.2864345
4681.11 0.3030745
4682.38 0.3238
4683.65 0.3060565
4684.92 0.3052643
4686.19 0.3023899
4687.46 0.2893102
4688.73 0.2988438
4690.0 0.2884197
4691.27 0.3125619
4692.54 0.2992302
4693.81 0.3003876
4695.08 0.3123792
4696.35 0.2989998
4697.62 0.2575129
4698.89 0.2572221
4700.16 0.2362121
4701.43 0.2065138
4702.7 0.271887
4703.97 0.2162911
4705.24 0.1954909
4706.51 0.2415907
4707.78 0.2608936
4709.05 0.1755038
4710.32 0.2438707
4711.59 0.315057
4712.86 0.2775042
4714.13 0.3051883
4715.4 0.2823115
4716.67 0.2804055
4717.94 0.2947224
4719.21 0.2304734
4720.48 0.232606
4721.75 0.2990219
4723.02 0.2617668
4724.29 0.2248352
4725.56 0.2139199
4726.83 0.2584159
4728.1 0.271414
4729.37 0.2633001
4730.64 0.2567672
4731.91 0.2610178
4733.18 0.2531034
4734.45 0.2919517
4735.72 0.2464474
4736.99 0.283626
4738.26 0.2834615
4739.53 0.2533188
4740.8 0.2281479
4742.07 0.2713141
4743.34 0.2885942
4744.61 0.2332339
4745.88 0.275736
4747.15 0.2499801
4748.42 0.2406392
4749.69 0.2764023
4750.96 0.2263162
4752.23 0.2369494
4753.5 0.2615748
4754.77 0.2440249
4756.04 0.2922164
4757.31 0.2371768
4758.58 0.2308492
4759.85 0.2694675
4761.12 0.2783636
4762.39 0.213793
4763.66 0.2545179
4764.93 0.2728945
4766.2 0.246944
4767.47 0.2473686
4768.74 0.2122965
4770.01 0.2378584
4771.28 0.249045
4772.55 0.224679
4773.82 0.2125924
4775.09 0.2266411
4776.36 0.2328231
4777.63 0.2526941
4778.9 0.2695847
4780.17 0.2790076
4781.44 0.2744736
4782.71 0.2369556
4783.98 0.2715189
4785.25 0.2421232
4786.52 0.2052833
4787.79 0.2840643
4789.06 0.328607
4790.33 0.2865456
4791.6 0.2765943
4792.87 0.2951051
4794.14 0.271657
4795.41 0.259271
4796.68 0.2165479
4797.95 0.2418518
4799.22 0.3020314
4800.49 0.3096996
4801.76 0.2604273
4803.03 0.234978
4804.3 0.2468898
4805.57 0.2490262
4806.84 0.2282009
4808.11 0.2456236
4809.38 0.2731885
4810.65 0.252904
4811.92 0.2333166
4813.19 0.2849733
4814.46 0.290694
4815.73 0.2802569
4817.0 0.2285727
4818.27 0.2401174
4819.54 0.2748254
4820.81 0.2397676
4822.08 0.2090866
4823.35 0.228276
4824.62 0.2352473
4825.89 0.2363705
4827.16 0.240097
4828.43 0.2333228
4829.7 0.254881
4830.97 0.2418006
4832.24 0.2434018
4833.51 0.2253007
4834.78 0.2603013
4836.05 0.3234106
4837.32 0.271562
4838.59 0.215956
4839.86 0.2669102
4841.13 0.2824064
4842.4 0.273052
4843.67 0.2909376
4844.94 0.2490554
4846.21 0.2474402
4847.48 0.2830422
4848.75 0.2673724
4850.02 0.2216494
4851.29 0.1875536
4852.56 0.2313047
4853.83 0.2953513
4855.1 0.254327
4856.37 0.2205824
4857.64 0.2448037
4858.91 0.2920727
4860.18 0.2865276
4861.45 0.2499317
4862.72 0.2619724
4863.99 0.2693982
4865.26 0.2728756
4866.53 0.2677476
4867.8 0.2507726
4869.07 0.2326557
4870.34 0.2455496
4871.61 0.2592655
4872.88 0.2542323
4874.15 0.2563981
4875.42 0.2124883
4876.69 0.2297881
4877.96 0.2654237
4879.23 0.2337668
4880.5 0.2584406
4881.77 0.2551697
4883.04 0.2296099
4884.31 0.243681
4885.58 0.2768164
4886.85 0.2730814
4888.12 0.2362648
4889.39 0.2266157
4890.66 0.2559501
4891.93 0.297002
4893.2 0.3018558
4894.47 0.2778549
4895.74 0.2385309
4897.01 0.2310615
4898.28 0.246355
4899.55 0.2568355
4900.82 0.2610267
4902.09 0.2663677
4903.36 0.260253
4904.63 0.2289275
4905.9 0.2460924
4907.17 0.2469724
4908.44 0.2341349
4909.71 0.2425026
4910.98 0.2579293
4912.25 0.2653396
4913.52 0.2403116
4914.79 0.2458623
4916.06 0.235828
4917.33 0.2161329
4918.6 0.2391445
4919.87 0.2582628
4921.14 0.2367253
4922.41 0.2048273
4923.68 0.231463
4924.95 0.2390146
4926.22 0.2263433
4927.49 0.20284
4928.76 0.2076303
4930.03 0.2592148
4931.3 0.2770808
4932.57 0.281318
4933.84 0.2689745
4935.11 0.2470307
4936.38 0.2350834
4937.65 0.2104876
4938.92 0.2221327
4940.19 0.2431297
4941.46 0.2361458
4942.73 0.2370178
4944.0 0.2294263
4945.27 0.2039191
4946.54 0.2226457
4947.81 0.2293527
4949.08 0.2248267
4950.35 0.2397823
4951.62 0.2926416
4952.89 0.2871501
4954.16 0.2720485
4955.43 0.2045733
4956.7 0.1968464
4957.97 0.2012741
4959.24 0.2099907
4960.51 0.2449465
4961.78 0.2556705
4963.05 0.219482
4964.32 0.2358256
4965.59 0.228116
4966.86 0.1979317
4968.13 0.189336
4969.4 0.2089069
4970.67 0.16472
4971.94 0.1853923
4973.21 0.2051024
4974.48 0.2113449
4975.75 0.2046531
4977.02 0.2186803
4978.29 0.1839122
4979.56 0.1656596
4980.83 0.2073814
4982.1 0.1875093
4983.37 0.1874443
4984.64 0.1827545
4985.91 0.174579
4987.18 0.1881033
4988.45 0.1744843
4989.72 0.2223902
4990.99 0.231291
4992.26 0.2079259
4993.53 0.2040509
4994.8 0.202761
4996.07 0.2021053
4997.34 0.1941856
4998.61 0.2232999
4999.88 0.2248048
5001.15 0.169051
5002.42 0.1499306
5003.69 0.1788723
5004.96 0.2211669
5006.23 0.2305598
5007.5 0.190274
5008.77 0.1781926
5010.04 0.1809173
5011.31 0.1548049
5012.58 0.1711907
5013.85 0.1653932
5015.12 0.1697743
5016.39 0.1765226
5017.66 0.1764412
5018.93 0.1953908
5020.2 0.17912
5021.47 0.181388
5022.74 0.1844303
5024.01 0.1699537
5025.28 0.1456254
5026.55 0.1795815
5027.82 0.1747509
5029.09 0.157861
5030.36 0.192363
5031.63 0.1865419
5032.9 0.1755698
5034.17 0.1972408
5035.44 0.1678807
5036.71 0.2030647
5037.98 0.2112075
5039.25 0.1911291
5040.52 0.1624729
5041.79 0.1862681
5043.06 0.1832007
5044.33 0.1970664
5045.6 0.2069954
5046.87 0.2003366
5048.14 0.1625917
5049.41 0.1489697
5050.68 0.1715413
5051.95 0.1622236
5053.22 0.1815685
5054.49 0.1910869
5055.76 0.1570902
5057.03 0.1675317
5058.3 0.1537049
5059.57 0.1537764
5060.84 0.1687171
5062.11 0.1642976
5063.38 0.1938876
5064.65 0.210605
5065.92 0.2013737
5067.19 0.1845527
5068.46 0.1697155
5069.73 0.1886935
5071.0 0.2092522
5072.27 0.2170893
5073.54 0.2014768
5074.81 0.1649006
5076.08 0.1475721
5077.35 0.1739146
5078.62 0.169771
5079.89 0.1696801
5081.16 0.1600543
5082.43 0.1747124
5083.7 0.2126723
5084.97 0.2092669
5086.24 0.2170533
5087.51 0.2117889
5088.78 0.1791385
5090.05 0.2044357
5091.32 0.2154422
5092.59 0.2046015
5093.86 0.194943
5095.13 0.1764366
5096.4 0.1697998
5097.67 0.188874
5098.94 0.202374
5100.21 0.1918275
5101.48 0.1871335
5102.75 0.1973994
5104.02 0.1829648
5105.29 0.1930273
5106.56 0.1912386
5107.83 0.1802489
5109.1 0.1885136
5110.37 0.2193234
5111.64 0.2054143
5112.91 0.178783
5114.18 0.1933207
5115.45 0.2241841
5116.72 0.2101116
5117.99 0.2404428
5119.26 0.222521
5120.53 0.208403
5121.8 0.1974294
5123.07 0.1899891
5124.34 0.1654665
5125.61 0.1831446
5126.88 0.1668631
5128.15 0.1658228
5129.42 0.1596058
5130.69 0.1912152
5131.96 0.1966132
5133.23 0.1895264
5134.5 0.2033913
5135.77 0.2180945
5137.04 0.2124537
5138.31 0.1978767
5139.58 0.2011645
5140.85 0.1595684
5142.12 0.1990505
5143.39 0.1930896
5144.66 0.1971131
5145.93 0.2284413
5147.2 0.1765313
5148.47 0.1939604
5149.74 0.2039257
5151.01 0.2139338
5152.28 0.2454116
5153.55 0.2499806
5154.82 0.2395702
5156.09 0.1885749
5157.36 0.1849646
5158.63 0.2219071
5159.9 0.2201835
5161.17 0.244648
5162.44 0.2385492
5163.71 0.2376112
5164.98 0.2100892
5166.25 0.220649
5167.52 0.2165806
5168.79 0.214996
5170.06 0.2203466
5171.33 0.2485677
5172.6 0.210865
5173.87 0.2004434
5175.14 0.2405545
5176.41 0.2351164
5177.68 0.2219074
5178.95 0.2106422
5180.22 0.2258895
5181.49 0.2240033
5182.76 0.2061064
5184.03 0.199013
5185.3 0.2243318
5186.57 0.2335232
5187.84 0.2153241
5189.11 0.2009171
5190.38 0.2022866
5191.65 0.2147771
5192.92 0.2153446
5194.19 0.1998561
5195.46 0.2094652
5196.73 0.2339845
5198.0 0.2182964
5199.27 0.1956223
5200.54 0.2223906
5201.81 0.237424
5203.08 0.2469538
5204.35 0.2345892
5205.62 0.2243999
5206.89 0.21575
5208.16 0.2122382
5209.43 0.2228252
5210.7 0.2088675
5211.97 0.2194429
5213.24 0.2127092
5214.51 0.2080592
5215.78 0.2033462
5217.05 0.2372817
5218.32 0.2403921
5219.59 0.2159596
5220.86 0.2208629
5222.13 0.2451164
5223.4 0.2454007
5224.67 0.2127166
5225.94 0.1954641
5227.21 0.2257785
5228.48 0.2296569
5229.75 0.2099781
5231.02 0.2084485
5232.29 0.1991232
5233.56 0.1938607
5234.83 0.2047922
5236.1 0.2105553
5237.37 0.1925993
5238.64 0.1684428
5239.91 0.17306
5241.18 0.1972755
5242.45 0.1996396
5243.72 0.2000222
5244.99 0.1853729
5246.26 0.192307
5247.53 0.190116
5248.8 0.1964308
5250.07 0.1934906
5251.34 0.1666448
5252.61 0.1936311
5253.88 0.1986601
5255.15 0.1754953
5256.42 0.1824876
5257.69 0.2119443
5258.96 0.2203069
5260.23 0.1716984
5261.5 0.1464492
5262.77 0.177718
5264.04 0.1970826
5265.31 0.2065696
5266.58 0.2224467
5267.85 0.2141721
5269.12 0.2011623
5270.39 0.202067
5271.66 0.179671
5272.93 0.1447581
5274.2 0.1669426
5275.47 0.1955691
5276.74 0.2070114
5278.01 0.194765
5279.28 0.1844809
5280.55 0.1974908
5281.82 0.1939449
5283.09 0.1958467
5284.36 0.2154557
5285.63 0.2106839
5286.9 0.1872293
5288.17 0.1779963
5289.44 0.1634276
5290.71 0.1683854
5291.98 0.1921909
5293.25 0.1699678
5294.52 0.1450368
5295.79 0.1876272
5297.06 0.1979635
5298.33 0.2034527
5299.6 0.2098999
5300.87 0.2055405
5302.14 0.2066479
5303.41 0.1965912
5304.68 0.1808912
5305.95 0.1968044
5307.22 0.2190702
5308.49 0.2049672
5309.76 0.1968508
5311.03 0.2117485
5312.3 0.208554
5313.57 0.207622
5314.84 0.2100727
5316.11 0.2066315
5317.38 0.215939
5318.65 0.2121355
5319.92 0.1842779
5321.19 0.1801297
5322.46 0.1889996
5323.73 0.1781612
5325.0 0.1780784
5326.27 0.1906012
5327.54 0.1745463
5328.81 0.1809937
5330.08 0.2003697
5331.35 0.1960259
5332.62 0.1938623
5333.89 0.1685998
5335.16 0.15368
5336.43 0.1879132
5337.7 0.2058957
5338.97 0.19308
5340.24 0.1930855
5341.51 0.1981508
5342.78 0.2034255
5344.05 0.1689836
5345.32 0.1585739
5346.59 0.1803642
5347.86 0.1790335
5349.13 0.1710415
5350.4 0.1810972
5351.67 0.1871457
5352.94 0.1715941
5354.21 0.1741048
5355.48 0.192252
5356.75 0.1658603
5358.02 0.166816
5359.29 0.2114376
5360.56 0.1831515
5361.83 0.1557949
5363.1 0.1537264
5364.37 0.1707558
5365.64 0.1779249
5366.91 0.1773793
5368.18 0.1837655
5369.45 0.1983113
5370.72 0.1865316
5371.99 0.1806114
5373.26 0.2070414
5374.53 0.1964106
5375.8 0.17836
5377.07 0.1811163
5378.34 0.1840845
5379.61 0.1686604
5380.88 0.1675023
5382.15 0.1618219
5383.42 0.1537549
5384.69 0.1585376
5385.96 0.1664819
5387.23 0.1682157
5388.5 0.1726945
5389.77 0.1735821
5391.04 0.1741247
5392.31 0.180221
5393.58 0.1695515
5394.85 0.1573615
5396.12 0.1538613
5397.39 0.1629998
5398.66 0.1757567
5399.93 0.1809866
5401.2 0.1717273
5402.47 0.1609198
5403.74 0.1602485
5405.01 0.1506771
5406.28 0.1704607
5407.55 0.1817758
5408.82 0.1930972
5410.09 0.1897393
5411.36 0.1626717
5412.63 0.1699256
5413.9 0.1836122
5415.17 0.2026166
5416.44 0.2018683
5417.71 0.2061176
5418.98 0.2052045
5420.25 0.2113574
5421.52 0.2005966
5422.79 0.1831215
5424.06 0.1805942
5425.33 0.1804192
5426.6 0.1712971
5427.87 0.1929253
5429.14 0.192919
5430.41 0.1769527
5431.68 0.1876235
5432.95 0.1765105
5434.22 0.1800121
5435.49 0.196913
5436.76 0.1922627
5438.03 0.2001393
5439.3 0.1956402
5440.57 0.1834118
5441.84 0.2000396
5443.11 0.2093834
5444.38 0.1847053
5445.65 0.1931376
5446.92 0.2098538
5448.19 0.1929386
5449.46 0.1971298
5450.73 0.1725569
5452.0 0.1659942
5453.27 0.1873528
5454.54 0.1748431
5455.81 0.1808871
5457.08 0.1612925
5458.35 0.1732691
5459.62 0.1948168
5460.89 0.2021023
5462.16 0.1819974
5463.43 0.186148
5464.7 0.2042023
5465.97 0.1989405
5467.24 0.1829717
5468.51 0.182676
5469.78 0.2018384
5471.05 0.2109783
5472.32 0.1952015
5473.59 0.1894102
5474.86 0.1974738
5476.13 0.2089076
5477.4 0.2032299
5478.67 0.1992552
5479.94 0.209058
5481.21 0.2102329
5482.48 0.2193176
5483.75 0.2128717
5485.02 0.2012964
5486.29 0.207336
5487.56 0.2097589
5488.83 0.2152225
5490.1 0.2156406
5491.37 0.2284971
5492.64 0.2311682
5493.91 0.217709
5495.18 0.2138873
5496.45 0.2116691
5497.72 0.2066849
5498.99 0.2207342
5500.26 0.195564
5501.53 0.1830583
5502.8 0.2026961
5504.07 0.1747795
5505.34 0.1836693
5506.61 0.1837161
5507.88 0.1770662
5509.15 0.2062506
5510.42 0.1894347
5511.69 0.1906115
5512.96 0.2010324
5514.23 0.1912743
5515.5 0.1797138
5516.77 0.1839286
5518.04 0.2055993
5519.31 0.1852123
5520.58 0.195869
5521.85 0.2072957
5523.12 0.2251767
5524.39 0.2333781
5525.66 0.2039368
5526.93 0.1951641
5528.2 0.1900009
5529.47 0.1782712
5530.74 0.2161199
5532.01 0.206312
5533.28 0.1894551
5534.55 0.2100186
5535.82 0.2180657
5537.09 0.1991317
5538.36 0.1822697
5539.63 0.1723192
5540.9 0.199315
5542.17 0.1951027
5543.44 0.1825504
5544.71 0.2047766
5545.98 0.2160581
5547.25 0.195142
5548.52 0.221299
5549.79 0.2219185
5551.06 0.1921573
5552.33 0.1802967
5553.6 0.1981121
5554.87 0.209744
5556.14 0.2015717
5557.41 0.179819
5558.68 0.1961846
5559.95 0.2064677
5561.22 0.2123012
5562.49 0.2045339
5563.76 0.2233581
5565.03 0.2143018
5566.3 0.1727694
5567.57 0.1784339
5568.84 0.2074046
5570.11 0.2001017
5571.38 0.1898341
5572.65 0.1868099
5573.92 0.2158528
5575.19 0.2433591
5576.46 0.2390007
5577.73 0.2147916
5579.0 0.1909648
5580.27 0.1845074
5581.54 0.1688772
5582.81 0.1590035
5584.08 0.1631663
5585.35 0.1595075
5586.62 0.1565467
5587.89 0.1633842
5589.16 0.1712004
5590.43 0.1753588
5591.7 0.1799464
5592.97 0.1972685
5594.24 0.1810898
5595.51 0.1826272
5596.78 0.1725923
5598.05 0.1757994
5599.32 0.1904919
5600.59 0.1889887
5601.86 0.1931385
5603.13 0.1825818
5604.4 0.1865885
5605.67 0.1899432
5606.94 0.1912739
5608.21 0.1802492
5609.48 0.185843
5610.75 0.189561
5612.02 0.1809118
5613.29 0.1859735
5614.56 0.1816091
5615.83 0.1825033
5617.1 0.189178
5618.37 0.1718892
5619.64 0.1655069
5620.91 0.1853455
5622.18 0.1946226
5623.45 0.1838472
5624.72 0.1876817
5625.99 0.2060878
5627.26 0.1906647
5628.53 0.1836744
5629.8 0.2120323
5631.07 0.2046351
5632.34 0.1713716
5633.61 0.1881121
5634.88 0.1978242
5636.15 0.1795802
5637.42 0.1917932
5638.69 0.2075352
5639.96 0.1984093
5641.23 0.2107578
5642.5 0.1874474
5643.77 0.1616737
5645.04 0.1796626
5646.31 0.192427
5647.58 0.194319
5648.85 0.1788703
5650.12 0.1733914
5651.39 0.1683072
5652.66 0.1998929
5653.93 0.2075548
5655.2 0.1913535
5656.47 0.1968019
5657.74 0.2052784
5659.01 0.1996928
5660.28 0.1966597
5661.55 0.1865492
5662.82 0.1875371
5664.09 0.1849159
5665.36 0.1727325
5666.63 0.1733677
5667.9 0.1835207
5669.17 0.1850116
5670.44 0.1933024
5671.71 0.1924402
5672.98 0.2013028
5674.25 0.1896621
5675.52 0.1793199
5676.79 0.1587777
5678.06 0.1588269
5679.33 0.1650112
5680.6 0.1696542
5681.87 0.170835
5683.14 0.1728452
5684.41 0.1982575
5685.68 0.2248234
5686.95 0.2017559
5688.22 0.1708105
5689.49 0.1701106
5690.76 0.1732006
5692.03 0.1512339
5693.3 0.1628137
5694.57 0.1598271
5695.84 0.1553223
5697.11 0.1644115
5698.38 0.175409
5699.65 0.1803321
5700.92 0.161887
5702.19 0.1442644
5703.46 0.1656012
5704.73 0.1857955
5706.0 0.171261
5707.27 0.1570591
5708.54 0.1647905
5709.81 0.1715181
5711.08 0.1683618
5712.35 0.1706755
5713.62 0.1797555
5714.89 0.1730339
5716.16 0.154864
5717.43 0.1584097
5718.7 0.1644
5719.97 0.1485729
5721.24 0.1393386
5722.51 0.1520084
5723.78 0.1586277
5725.05 0.1467006
5726.32 0.1582373
5727.59 0.1729758
5728.86 0.1635513
5730.13 0.1656307
5731.4 0.1736038
5732.67 0.1789232
5733.94 0.1815556
5735.21 0.1954102
5736.48 0.1708239
5737.75 0.1668848
5739.02 0.1745088
5740.29 0.1735301
5741.56 0.1761709
5742.83 0.1714824
5744.1 0.1694851
5745.37 0.1671105
5746.64 0.1678511
5747.91 0.1730509
5749.18 0.1734715
5750.45 0.1770178
5751.72 0.1652891
5752.99 0.1576297
5754.26 0.1633292
5755.53 0.168096
5756.8 0.1579674
5758.07 0.1608324
5759.34 0.1552864
5760.61 0.140321
5761.88 0.1492837
5763.15 0.1653512
5764.42 0.1633321
5765.69 0.1539631
5766.96 0.1617749
5768.23 0.1689535
5769.5 0.1691348
5770.77 0.1619941
5772.04 0.166261
5773.31 0.1686496
5774.58 0.1634689
5775.85 0.1669533
5777.12 0.1709947
5778.39 0.1646748
5779.66 0.1552557
5780.93 0.1558358
5782.2 0.1462318
5783.47 0.1333006
5784.74 0.147681
5786.01 0.161442
5787.28 0.1598143
5788.55 0.1566662
5789.82 0.1451155
5791.09 0.1404096
5792.36 0.1512624
5793.63 0.1532946
5794.9 0.1452463
5796.17 0.1446303
5797.44 0.1358133
5798.71 0.1431062
5799.98 0.1519008
5801.25 0.1455361
5802.52 0.1450976
5803.79 0.1466904
5805.06 0.1338023
5806.33 0.1239991
5807.6 0.1319197
5808.87 0.134668
5810.14 0.1506502
5811.41 0.1538666
5812.68 0.132606
5813.95 0.1333994
5815.22 0.1313417
5816.49 0.1419556
5817.76 0.1521163
5819.03 0.1705869
5820.3 0.1622881
5821.57 0.147576
5822.84 0.144344
5824.11 0.1323273
5825.38 0.1438122
5826.65 0.1407756
5827.92 0.1382581
5829.19 0.1520345
5830.46 0.1491962
5831.73 0.1738511
5833.0 0.1797353
5834.27 0.1397747
5835.54 0.1354111
5836.81 0.1510192
5838.08 0.135288
5839.35 0.1284983
5840.62 0.1439919
5841.89 0.1659724
5843.16 0.1547831
5844.43 0.1465676
5845.7 0.1430104
5846.97 0.1459007
5848.24 0.1635996
5849.51 0.1630948
5850.78 0.1713511
5852.05 0.1673053
5853.32 0.1344163
5854.59 0.132987
5855.86 0.1456721
5857.13 0.1315564
5858.4 0.1369785
5859.67 0.1615145
5860.94 0.1648008
5862.21 0.1419562
5863.48 0.1499398
5864.75 0.1509947
5866.02 0.1522809
5867.29 0.1501248
5868.56 0.1346384
5869.83 0.1232406
5871.1 0.1314755
5872.37 0.1413468
5873.64 0.138888
5874.91 0.1518509
5876.18 0.1423089
5877.45 0.1334272
5878.72 0.1503712
5879.99 0.1348491
5881.26 0.1246739
5882.53 0.1477285
5883.8 0.1326241
5885.07 0.1278755
5886.34 0.1467035
5887.61 0.1556304
5888.88 0.1995052
5890.15 0.1926516
5891.42 0.1451858
5892.69 0.131115
5893.96 0.1492412
5895.23 0.1634325
5896.5 0.1545455
5897.77 0.1433709
5899.04 0.1369683
5900.31 0.1283996
5901.58 0.1187159
5902.85 0.121459
5904.12 0.1344889
5905.39 0.1333439
5906.66 0.1281695
5907.93 0.1258048
5909.2 0.1350863
5910.47 0.1592165
5911.74 0.1362958
5913.01 0.1243313
5914.28 0.1331842
5915.55 0.1446921
5916.82 0.1298684
5918.09 0.1307913
5919.36 0.134079
5920.63 0.1467666
5921.9 0.1310718
5923.17 0.1410483
5924.44 0.1371303
5925.71 0.1314195
5926.98 0.1445564
5928.25 0.1414511
5929.52 0.1328372
5930.79 0.1411755
5932.06 0.1382706
5933.33 0.1503681
5934.6 0.1516065
5935.87 0.1503816
5937.14 0.138505
5938.41 0.1402754
5939.68 0.1434537
5940.95 0.1381345
5942.22 0.1359117
5943.49 0.1392634
5944.76 0.1376945
5946.03 0.139081
5947.3 0.140965
5948.57 0.1314483
5949.84 0.1252415
5951.11 0.1383111
5952.38 0.1468152
5953.65 0.1372791
5954.92 0.1409037
5956.19 0.141107
5957.46 0.1360593
5958.73 0.1250905
5960.0 0.1413245
5961.27 0.1436807
5962.54 0.1296298
5963.81 0.13118
5965.08 0.1621691
5966.35 0.1555937
5967.62 0.1622366
5968.89 0.1531482
5970.16 0.1483236
5971.43 0.1607671
5972.7 0.1556189
5973.97 0.1356208
5975.24 0.1399743
5976.51 0.1552874
5977.78 0.1525704
5979.05 0.1532315
5980.32 0.1667759
5981.59 0.1540883
5982.86 0.1518471
5984.13 0.1463701
5985.4 0.1457166
5986.67 0.1508994
5987.94 0.1371259
5989.21 0.1358135
5990.48 0.140015
5991.75 0.1303803
5993.02 0.1270742
5994.29 0.1348921
5995.56 0.1548879
5996.83 0.1553423
5998.1 0.1385727
5999.37 0.1502272
6000.64 0.1474544
6001.91 0.1520949
6003.18 0.1447985
6004.45 0.145467
6005.72 0.1491038
6006.99 0.1537319
6008.26 0.1559691
6009.53 0.1674144
6010.8 0.1486009
6012.07 0.1528778
6013.34 0.1417137
6014.61 0.1424604
6015.88 0.1468865
6017.15 0.1443263
6018.42 0.1439086
6019.69 0.1546396
6020.96 0.1502942
6022.23 0.145098
6023.5 0.1610319
6024.77 0.1595824
6026.04 0.1457511
6027.31 0.1517767
6028.58 0.1584657
6029.85 0.1577318
6031.12 0.1595153
6032.39 0.1513903
6033.66 0.1321003
6034.93 0.137441
6036.2 0.1638672
6037.47 0.1515004
6038.74 0.1301333
6040.01 0.1371552
6041.28 0.1512049
6042.55 0.1258758
6043.82 0.1368248
6045.09 0.1653862
6046.36 0.1629555
6047.63 0.1547302
6048.9 0.1507622
6050.17 0.158829
6051.44 0.1573378
6052.71 0.1588995
6053.98 0.1507587
6055.25 0.1478839
6056.52 0.1480013
6057.79 0.1510819
6059.06 0.1417383
6060.33 0.137073
6061.6 0.1342879
6062.87 0.1272107
6064.14 0.1361802
6065.41 0.1529112
6066.68 0.1525409
6067.95 0.1373585
6069.22 0.1402459
6070.49 0.1496619
6071.76 0.1417115
6073.03 0.1388603
6074.3 0.1381673
6075.57 0.144496
6076.84 0.1336033
6078.11 0.1264439
6079.38 0.1152325
6080.65 0.1148256
6081.92 0.1156548
6083.19 0.1247201
6084.46 0.1355977
6085.73 0.1528246
6087.0 0.1376495
6088.27 0.1315954
6089.54 0.1449173
6090.81 0.1499782
6092.08 0.1447466
6093.35 0.1404846
6094.62 0.1328209
6095.89 0.1244211
6097.16 0.1326553
6098.43 0.1331628
6099.7 0.1380785
6100.97 0.1504769
6102.24 0.1450745
6103.51 0.1524995
6104.78 0.1538071
6106.05 0.1388759
6107.32 0.1471315
6108.59 0.1415565
6109.86 0.1358214
6111.13 0.145886
6112.4 0.1532931
6113.67 0.149802
6114.94 0.1433827
6116.21 0.1483071
6117.48 0.1489773
6118.75 0.1393483
6120.02 0.1342542
6121.29 0.1408047
6122.56 0.137783
6123.83 0.1334607
6125.1 0.1382002
6126.37 0.1276914
6127.64 0.1287528
6128.91 0.1464587
6130.18 0.1462557
6131.45 0.1465016
6132.72 0.1432668
6133.99 0.1329207
6135.26 0.1366114
6136.53 0.1458167
6137.8 0.1579951
6139.07 0.1513709
6140.34 0.1369856
6141.61 0.1434565
6142.88 0.1487434
6144.15 0.1528474
6145.42 0.1422733
6146.69 0.133209
6147.96 0.1515984
6149.23 0.1636469
6150.5 0.1670035
6151.77 0.1524674
6153.04 0.1449023
6154.31 0.1432932
6155.58 0.1417649
6156.85 0.1357142
6158.12 0.1308408
6159.39 0.1355578
6160.66 0.1406213
6161.93 0.1381107
6163.2 0.1356378
6164.47 0.1386849
6165.74 0.1320923
6167.01 0.1334912
6168.28 0.143349
6169.55 0.1447987
6170.82 0.1463599
6172.09 0.1497518
6173.36 0.145252
6174.63 0.1367867
6175.9 0.1374381
6177.17 0.1474741
6178.44 0.1367702
6179.71 0.135904
6180.98 0.1474652
6182.25 0.1503412
6183.52 0.1475417
6184.79 0.1412926
6186.06 0.131828
6187.33 0.1397868
6188.6 0.13452
6189.87 0.1241487
6191.14 0.1253951
6192.41 0.1307587
6193.68 0.1387081
6194.95 0.1370179
6196.22 0.1342861
6197.49 0.131448
6198.76 0.1359978
6200.03 0.1461408
6201.3 0.1413555
6202.57 0.1424769
6203.84 0.1402757
6205.11 0.1342562
6206.38 0.1435256
6207.65 0.1431746
6208.92 0.1462317
6210.19 0.140568
6211.46 0.1285302
6212.73 0.1315562
6214.0 0.130917
6215.27 0.1226981
6216.54 0.1155136
6217.81 0.1180671
6219.08 0.1273567
6220.35 0.1312229
6221.62 0.1164454
6222.89 0.1071802
6224.16 0.1191387
6225.43 0.1292352
6226.7 0.1241648
6227.97 0.119215
6229.24 0.1300451
6230.51 0.1393112
6231.78 0.1302601
6233.05 0.1291157
6234.32 0.1439004
6235.59 0.14614
6236.86 0.1410058
6238.13 0.1474275
6239.4 0.1255248
6240.67 0.1062637
6241.94 0.1324513
6243.21 0.1278216
6244.48 0.1161546
6245.75 0.1373235
6247.02 0.1375716
6248.29 0.1180304
6249.56 0.110374
6250.83 0.1114386
6252.1 0.1206202
6253.37 0.1295771
6254.64 0.1289786
6255.91 0.1348731
6257.18 0.1428582
6258.45 0.1374926
6259.72 0.1285117
6260.99 0.1304262
6262.26 0.1313202
6263.53 0.1278126
6264.8 0.1161013
6266.07 0.1133067
6267.34 0.1192715
6268.61 0.1237202
6269.88 0.1417438
6271.15 0.1317221
6272.42 0.1268234
6273.69 0.1221844
6274.96 0.1224683
6276.23 0.1221625
6277.5 0.1223371
6278.77 0.119662
6280.04 0.113313
6281.31 0.1101126
6282.58 0.1087829
6283.85 0.1097162
6285.12 0.1189291
6286.39 0.1356878
6287.66 0.131473
6288.93 0.1297973
6290.2 0.1268302
6291.47 0.1074121
6292.74 0.1153711
6294.01 0.1132122
6295.28 0.1129642
6296.55 0.1103346
6297.82 0.1119489
6299.09 0.1414482
6300.36 0.1611219
6301.63 0.1401806
6302.9 0.1153743
6304.17 0.1136768
6305.44 0.1095363
6306.71 0.1011056
6307.98 0.08958095
6309.25 0.08507995
6310.52 0.09574106
6311.79 0.1019825
6313.06 0.1027377
6314.33 0.1033781
6315.6 0.125925
6316.87 0.1249916
6318.14 0.1334723
6319.41 0.1199521
6320.68 0.1216333
6321.95 0.1252543
6323.22 0.1094243
6324.49 0.1115809
6325.76 0.133138
6327.03 0.1458553
6328.3 0.138427
6329.57 0.1390423
6330.84 0.1412147
6332.11 0.1290648
6333.38 0.1153083
6334.65 0.1190726
6335.92 0.1232862
6337.19 0.1185137
6338.46 0.1171444
6339.73 0.1220432
6341.0 0.1287739
6342.27 0.1216481
6343.54 0.1167083
6344.81 0.1125652
6346.08 0.1185965
6347.35 0.1192199
6348.62 0.1326593
6349.89 0.1242189
6351.16 0.132145
6352.43 0.1324406
6353.7 0.1108362
6354.97 0.09869199
6356.24 0.09828523
6357.51 0.1005672
6358.78 0.09879755
6360.05 0.09962636
6361.32 0.1044778
6362.59 0.09778936
6363.86 0.1031386
6365.13 0.1127644
6366.4 0.09146211
6367.67 0.09028006
6368.94 0.1124305
6370.21 0.1218775
6371.48 0.1037657
6372.75 0.1133979
6374.02 0.1028451
6375.29 0.1149125
6376.56 0.1135876
6377.83 0.1253125
6379.1 0.1190068
6380.37 0.1104073
6381.64 0.1102627
6382.91 0.1176176
6384.18 0.09807964
6385.45 0.08699183
6386.72 0.1085329
6387.99 0.1106732
6389.26 0.09789563
6390.53 0.101798
6391.8 0.1154458
6393.07 0.1100301
6394.34 0.105632
6395.61 0.1179674
6396.88 0.1177793
6398.15 0.1022089
6399.42 0.1065479
6400.69 0.08760182
6401.96 0.09920019
6403.23 0.09200226
6404.5 0.098218
6405.77 0.1026136
6407.04 0.09322619
6408.31 0.09428198
6409.58 0.108355
6410.85 0.1179081
6412.12 0.1169699
6413.39 0.1196731
6414.66 0.123765
6415.93 0.1198467
6417.2 0.1197539
6418.47 0.1203039
6419.74 0.1171871
6421.01 0.1163022
6422.28 0.1140089
6423.55 0.1049914
6424.82 0.1014348
6426.09 0.1062239
6427.36 0.1237782
6428.63 0.1233253
6429.9 0.1244322
6431.17 0.1232452
6432.44 0.124083
6433.71 0.1202238
6434.98 0.1106054
6436.25 0.1169408
6437.52 0.1229554
6438.79 0.1153584
6440.06 0.1110415
6441.33 0.1073238
6442.6 0.1200665
6443.87 0.128414
6445.14 0.1168545
6446.41 0.1113689
6447.68 0.1079548
6448.95 0.1064458
6450.22 0.1211739
6451.49 0.1230084
6452.76 0.1176684
6454.03 0.1036603
6455.3 0.1122018
6456.57 0.1172268
6457.84 0.1057383
6459.11 0.09328401
6460.38 0.1134976
6461.65 0.1272163
6462.92 0.1129426
6464.19 0.1134779
6465.46 0.1180572
6466.73 0.1169802
6468.0 0.1241347
6469.27 0.118529
6470.54 0.1127939
6471.81 0.1096718
6473.08 0.1181856
6474.35 0.1163184
6475.62 0.114384
6476.89 0.111955
6478.16 0.1013998
6479.43 0.09950216
6480.7 0.09394904
6481.97 0.09742658
6483.24 0.1067746
6484.51 0.1026606
6485.78 0.1032443
6487.05 0.1089601
6488.32 0.108841
6489.59 0.1154115
6490.86 0.1127292
6492.13 0.1069925
6493.4 0.1038615
6494.67 0.09868997
6495.94 0.09229512
6497.21 0.09367469
6498.48 0.1075676
6499.75 0.1028923
6501.02 0.09934141
6502.29 0.1079226
6503.56 0.1084138
6504.83 0.1100944
6506.1 0.11955
6507.37 0.1142772
6508.64 0.1055728
6509.91 0.1121467
6511.18 0.1171877
6512.45 0.1174409
6513.72 0.1129565
6514.99 0.1040213
6516.26 0.1016661
6517.53 0.1061084
6518.8 0.1009982
6520.07 0.1002558
6521.34 0.1075335
6522.61 0.1084244
6523.88 0.1010534
6525.15 0.1046762
6526.42 0.1022323
6527.69 0.0997502
6528.96 0.1053086
6530.23 0.1059272
6531.5 0.1079755
6532.77 0.1157585
6534.04 0.1066803
6535.31 0.09516535
6536.58 0.08740726
6537.85 0.08667255
6539.12 0.09777718
6540.39 0.1041526
6541.66 0.100468
6542.93 0.09323578
6544.2 0.1013795
6545.47 0.09805362
6546.74 0.0863276
6548.01 0.09640348
6549.28 0.1032802
6550.55 0.09718068
6551.82 0.103774
6553.09 0.09824486
6554.36 0.08010869
6555.63 0.08250029
6556.9 0.09783309
6558.17 0.1007669
6559.44 0.100831
6560.71 0.10735
6561.98 0.09951056
6563.25 0.0911576
6564.52 0.09255113
6565.79 0.09855871
6567.06 0.102441
6568.33 0.09453102
6569.6 0.08702448
6570.87 0.1048853
6572.14 0.1063285
6573.41 0.1012186
6574.68 0.1004294
6575.95 0.09236839
6577.22 0.09623539
6578.49 0.09393992
6579.76 0.09175584
6581.03 0.0885198
6582.3 0.08245544
6583.57 0.07877224
6584.84 0.06830852
6586.11 0.08536822
6587.38 0.09603755
6588.65 0.08363952
6589.92 0.08440474
6591.19 0.08944831
6592.46 0.09733484
6593.73 0.1049947
6595.0 0.1035763
6596.27 0.09567231
6597.54 0.09846795
6598.81 0.1018083
6600.08 0.09548917
6601.35 0.09413031
6602.62 0.1041256
6603.89 0.1005755
6605.16 0.0883373
6606.43 0.07302125
6607.7 0.07977657
6608.97 0.09739026
6610.24 0.09177677
6611.51 0.09413852
6612.78 0.1057567
6614.05 0.1056151
6615.32 0.09405157
6616.59 0.09186894
6617.86 0.09934062
6619.13 0.1036404
6620.4 0.106689
6621.67 0.1047033
6622.94 0.1031526
6624.21 0.1060583
6625.48 0.1096209
6626.75 0.1130027
6628.02 0.113005
6629.29 0.104892
6630.56 0.09914231
6631.83 0.09502981
6633.1 0.09250157
6634.37 0.08313824
6635.64 0.07786236
6636.91 0.07617412
6638.18 0.07983182
6639.45 0.08920695
6640.72 0.09540883
6641.99 0.1000968
6643.26 0.09971548
6644.53 0.09882288
6645.8 0.1006694
6647.07 0.1145768
6648.34 0.1159257
6649.61 0.09561079
6650.88 0.09159113
6652.15 0.09050305
6653.42 0.08221826
6654.69 0.0881262
6655.96 0.09184657
6657.23 0.08288617
6658.5 0.07670414
6659.77 0.08059015
6661.04 0.08417523
6662.31 0.08149971
6663.58 0.08606526
6664.85 0.08664743
6666.12 0.07158926
6667.39 0.07503755
6668.66 0.08589263
6669.93 0.09359428
6671.2 0.09282432
6672.47 0.08848388
6673.74 0.09264272
6675.01 0.1052744
6676.28 0.1175941
6677.55 0.1087841
6678.82 0.1027563
6680.09 0.1089431
6681.36 0.1042745
6682.63 0.09211004
6683.9 0.09179682
6685.17 0.09860229
6686.44 0.1026089
6687.71 0.1077969
6688.98 0.0901755
6690.25 0.08715045
6691.52 0.08319122
6692.79 0.0976844
6694.06 0.1040689
6695.33 0.1036278
6696.6 0.1116069
6697.87 0.1067033
6699.14 0.1033367
6700.41 0.0954542
6701.68 0.08720479
6702.95 0.09224696
6704.22 0.09006185
6705.49 0.08689272
6706.76 0.09317201
6708.03 0.09140775
6709.3 0.08940752
6710.57 0.08767544
6711.84 0.08739967
6713.11 0.0838173
6714.38 0.09616577
6715.65 0.1088958
6716.92 0.1012596
6718.19 0.09473383
6719.46 0.09982466
6720.73 0.09808308
6722.0 0.09511213
6723.27 0.1009007
6724.54 0.09924382
6725.81 0.09691211
6727.08 0.1054181
6728.35 0.1035374
6729.62 0.1007167
6730.89 0.08969751
6732.16 0.0841058
6733.43 0.08213192
6734.7 0.09998876
6735.97 0.1007035
6737.24 0.09644441
6738.51 0.1010493
6739.78 0.09331587
6741.05 0.09472466
6742.32 0.09885909
6743.59 0.09685042
6744.86 0.09724274
6746.13 0.09901449
6747.4 0.1028764
6748.67 0.09861726
6749.94 0.0857712
6751.21 0.08387119
6752.48 0.09849022
6753.75 0.09160999
6755.02 0.1033992
6756.29 0.1182049
6757.56 0.1084959
6758.83 0.1049499
6760.1 0.1038986
6761.37 0.1025086
6762.64 0.09853753
6763.91 0.09815443
6765.18 0.1099437
6766.45 0.1069503
6767.72 0.09698896
6768.99 0.1113302
6770.26 0.1134845
6771.53 0.09841973
6772.8 0.1016454
6774.07 0.1072735
6775.34 0.0920902
6776.61 0.09651898
6777.88 0.09081181
6779.15 0.09447284
6780.42 0.1013761
6781.69 0.09080863
6782.96 0.09153675
6784.23 0.0913331
6785.5 0.08632993
6786.77 0.09460369
6788.04 0.09322468
6789.31 0.08073619
6790.58 0.09044468
6791.85 0.1005959
6793.12 0.08655942
6794.39 0.08612951
6795.66 0.09814248
6796.93 0.09234699
6798.2 0.09576174
6799.47 0.1032844
6800.74 0.1007126
6802.01 0.09472719
6803.28 0.09430617
6804.55 0.09593513
6805.82 0.09029546
6807.09 0.0852308
6808.36 0.0928366
6809.63 0.09485257
6810.9 0.08738492
6812.17 0.09246321
6813.44 0.09028473
6814.71 0.07599586
6815.98 0.08368362
6817.25 0.09284022
6818.52 0.09107229
6819.79 0.09199321
6821.06 0.08079811
6822.33 0.08236331
6823.6 0.08725879
6824.87 0.1001577
6826.14 0.1036409
6827.41 0.09834825
6828.68 0.1162005
6829.95 0.1208945
6831.22 0.115021
6832.49 0.09540691
6833.76 0.09428212
6835.03 0.09258936
6836.3 0.08682158
6837.57 0.1006949
6838.84 0.1058436
6840.11 0.1011017
6841.38 0.0909965
6842.65 0.09315659
6843.92 0.08653123
6845.19 0.07127493
6846.46 0.07567599
6847.73 0.08803344
6849.0 0.08534175
6850.27 0.08317985
6851.54 0.0946954
6852.81 0.08920732
6854.08 0.07883595
6855.35 0.07612206
6856.62 0.08788342
6857.89 0.09069582
6859.16 0.08492514
6860.43 0.08259471
6861.7 0.08585308
6862.97 0.07952316
6864.24 0.06613635
6865.51 0.07998832
6866.78 0.09219095
6868.05 0.0755894
6869.32 0.09369037
6870.59 0.115687
6871.86 0.09229044
6873.13 0.09305139
6874.4 0.1032532
6875.67 0.08939122
6876.94 0.07607811
6878.21 0.0929522
6879.48 0.1054052
6880.75 0.097686
6882.02 0.0961507
6883.29 0.089657
6884.56 0.08909224
6885.83 0.1119775
6887.1 0.1149236
6888.37 0.09835869
6889.64 0.1065198
6890.91 0.1127425
6892.18 0.1082413
6893.45 0.09925986
6894.72 0.09672796
6895.99 0.09399484
6897.26 0.08223943
6898.53 0.0812396
6899.8 0.08063691
6901.07 0.07027663
6902.34 0.06847116
6903.61 0.06414656
6904.88 0.06851504
6906.15 0.08354617
6907.42 0.07859341
6908.69 0.07955549
6909.96 0.08086844
6911.23 0.08684611
6912.5 0.08411665
6913.77 0.08392882
6915.04 0.09293301
6916.31 0.1034944
6917.58 0.08957751
6918.85 0.09530741
6920.12 0.09584519
6921.39 0.07574199
6922.66 0.07504058
6923.93 0.09325689
6925.2 0.09772873
6926.47 0.09329301
6927.74 0.09540941
6929.01 0.09928786
6930.28 0.09954538
6931.55 0.0925194
6932.82 0.0897846
6934.09 0.09034525
6935.36 0.08289131
6936.63 0.07982447
6937.9 0.09972747
6939.17 0.09569074
6940.44 0.07464121
6941.71 0.08239757
6942.98 0.09174467
6944.25 0.09019312
6945.52 0.09178703
6946.79 0.08829984
6948.06 0.08835181
6949.33 0.09310579
6950.6 0.09468805
6951.87 0.09650458
6953.14 0.0939758
6954.41 0.09771359
6955.68 0.09666524
6956.95 0.08162726
6958.22 0.08677676
6959.49 0.1006116
6960.76 0.09276449
6962.03 0.07795715
6963.3 0.07055514
6964.57 0.07295435
6965.84 0.07499368
6967.11 0.07384185
6968.38 0.07956845
6969.65 0.08841845
6970.92 0.08751379
6972.19 0.07650547
6973.46 0.0842655
6974.73 0.09667696
6976.0 0.1026695
6977.27 0.09115738
6978.54 0.08163146
6979.81 0.09531546
6981.08 0.1032703
6982.35 0.09919072
6983.62 0.08918338
6984.89 0.07561121
6986.16 0.07729784
6987.43 0.08436806
6988.7 0.07883975
6989.97 0.06988316
6991.24 0.0744845
6992.51 0.07340368
6993.78 0.07768812
6995.05 0.06937405
6996.32 0.07021283
6997.59 0.08646514
6998.86 0.09421373
7000.13 0.08909897
7001.4 0.0831054
7002.67 0.08865128
7003.94 0.1015772
7005.21 0.09411505
7006.48 0.0908758
7007.75 0.09501093
7009.02 0.0915658
7010.29 0.09313627
7011.56 0.08649459
7012.83 0.08645698
7014.1 0.08893131
7015.37 0.08391991
7016.64 0.07872837
7017.91 0.0783385
7019.18 0.07640145
7020.45 0.07184269
7021.72 0.07505012
7022.99 0.07934181
7024.26 0.07676338
7025.53 0.07853431
7026.8 0.0811638
7028.07 0.07623933
7029.34 0.08008204
7030.61 0.08749264
7031.88 0.0883525
7033.15 0.08445591
7034.42 0.08330107
7035.69 0.08055025
7036.96 0.08419053
7038.23 0.08868665
7039.5 0.08956409
7040.77 0.08385639
7042.04 0.08145184
7043.31 0.08699963
7044.58 0.07805299
7045.85 0.0816983
7047.12 0.08220501
7048.39 0.07890401
7049.66 0.07937223
7050.93 0.08385555
7052.2 0.08914229
7053.47 0.0868929
7054.74 0.08222887
7056.01 0.08243781
7057.28 0.07878225
7058.55 0.0811324
7059.82 0.08872601
7061.09 0.08631679
7062.36 0.07826715
7063.63 0.07638387
7064.9 0.09153536
7066.17 0.09825631
7067.44 0.08474316
7068.71 0.07779373
7069.98 0.08611824
7071.25 0.0858677
7072.52 0.08819153
7073.79 0.09156309
7075.06 0.07282763
7076.33 0.0765039
7077.6 0.09543007
7078.87 0.09911691
7080.14 0.09272847
7081.41 0.08383892
7082.68 0.07446284
7083.95 0.06916758
7085.22 0.07449721
7086.49 0.07472152
7087.76 0.07617284
7089.03 0.07973298
7090.3 0.06724501
7091.57 0.06206297
7092.84 0.07085857
7094.11 0.06654801
7095.38 0.07017747
7096.65 0.07148702
7097.92 0.07258843
7099.19 0.07994756
7100.46 0.07813159
7101.73 0.07656994
7103.0 0.07694518
7104.27 0.07366289
7105.54 0.07881526
7106.81 0.08098581
7108.08 0.07168544
7109.35 0.0689296
7110.62 0.08108633
7111.89 0.09179794
7113.16 0.1007866
7114.43 0.1072258
7115.7 0.08336931
7116.97 0.08561698
7118.24 0.09027287
7119.51 0.09830435
7120.78 0.1000775
7122.05 0.08809356
7123.32 0.09378523
7124.59 0.09596539
7125.86 0.09503632
7127.13 0.09697804
7128.4 0.09058096
7129.67 0.0913974
7130.94 0.08316754
7132.21 0.08884519
7133.48 0.09777613
7134.75 0.09254035
7136.02 0.09030829
7137.29 0.09506302
7138.56 0.09740503
7139.83 0.08633605
7141.1 0.08890624
7142.37 0.09128101
7143.64 0.08397803
7144.91 0.07455219
7146.18 0.06989922
7147.45 0.08443069
7148.72 0.09131954
7149.99 0.07270491
7151.26 0.06262814
7152.53 0.08137707
7153.8 0.07830244
7155.07 0.07220789
7156.34 0.0688005
7157.61 0.06599522
7158.88 0.06963277
7160.15 0.0767634
7161.42 0.07068461
7162.69 0.06214293
7163.96 0.06354935
7165.23 0.06641388
7166.5 0.06895127
7167.77 0.06863336
7169.04 0.07049555
7170.31 0.07609387
7171.58 0.08488265
7172.85 0.07727483
7174.12 0.0834389
7175.39 0.08863708
7176.66 0.08982797
7177.93 0.08427187
7179.2 0.07746004
7180.47 0.08321381
7181.74 0.0854222
7183.01 0.07584104
7184.28 0.08623379
7185.55 0.1045851
7186.82 0.1016842
7188.09 0.09880649
7189.36 0.09129317
7190.63 0.08824648
7191.9 0.07340237
7193.17 0.08352529
7194.44 0.09232367
7195.71 0.08618336
7196.98 0.08317146
7198.25 0.0713964
7199.52 0.05878261
7200.79 0.06227469
7202.06 0.06554043
7203.33 0.07270162
7204.6 0.07851046
7205.87 0.07120207
7207.14 0.06438829
7208.41 0.06081384
7209.68 0.06781699
7210.95 0.07503974
7212.22 0.07745985
7213.49 0.08469216
7214.76 0.07994092
7216.03 0.07359027
7217.3 0.08495715
7218.57 0.07957772
7219.84 0.06343468
7221.11 0.06722939
7222.38 0.0585977
7223.65 0.05376462
7224.92 0.06442913
7226.19 0.07487815
7227.46 0.07464931
7228.73 0.05913323
7230.0 0.0651742
7231.27 0.0732303
7232.54 0.07590746
7233.81 0.08586786
7235.08 0.08839921
7236.35 0.08468819
7237.62 0.09575438
7238.89 0.1121581
7240.16 0.1031668
7241.43 0.08355136
7242.7 0.08181576
7243.97 0.08193696
7245.24 0.07360521
7246.51 0.06993725
7247.78 0.06306074
7249.05 0.06370115
7250.32 0.06261859
7251.59 0.06528316
7252.86 0.07671829
7254.13 0.07499435
7255.4 0.07223231
7256.67 0.08082327
7257.94 0.08399869
7259.21 0.08253705
7260.48 0.0669916
7261.75 0.06989973
7263.02 0.06198855
7264.29 0.06836273
7265.56 0.07331467
7266.83 0.07717574
7268.1 0.0703418
7269.37 0.0704241
7270.64 0.08122052
7271.91 0.09296658
7273.18 0.0906034
7274.45 0.0683368
7275.72 0.08541721
7276.99 0.0755786
7278.26 0.07206646
7279.53 0.07702994
7280.8 0.07559212
7282.07 0.066776
7283.34 0.06823107
7284.61 0.05988152
7285.88 0.06551728
7287.15 0.06870372
7288.42 0.060872
7289.69 0.06984503
7290.96 0.07952008
7292.23 0.07459589
7293.5 0.05694716
7294.77 0.05691836
7296.04 0.07145949
7297.31 0.07399087
7298.58 0.07671516
7299.85 0.07675044
7301.12 0.08177555
7302.39 0.07464325
7303.66 0.07940838
7304.93 0.09073967
7306.2 0.08724315
7307.47 0.08437847
7308.74 0.08240629
7310.01 0.07997936
7311.28 0.07461335
7312.55 0.06812351
7313.82 0.07226101
7315.09 0.06874787
7316.36 0.06586766
7317.63 0.05462106
7318.9 0.0557874
7320.17 0.06165256
7321.44 0.06994237
7322.71 0.08578216
7323.98 0.09031874
7325.25 0.08536187
7326.52 0.09632479
7327.79 0.09544553
7329.06 0.08609515
7330.33 0.09547634
7331.6 0.09219259
7332.87 0.0921429
7334.14 0.08218046
7335.41 0.07912581
7336.68 0.06582885
7337.95 0.05710324
7339.22 0.06289452
7340.49 0.05785477
7341.76 0.05493713
7343.03 0.06341092
7344.3 0.05347924
7345.57 0.04826855
7346.84 0.05657538
7348.11 0.05896327
7349.38 0.06664769
7350.65 0.07876936
7351.92 0.08379783
7353.19 0.08928579
7354.46 0.09267288
7355.73 0.09180088
7357.0 0.08478092
7358.27 0.0708511
7359.54 0.0700822
7360.81 0.07634925
7362.08 0.07571859
7363.35 0.07605081
7364.62 0.06690886
7365.89 0.06540132
7367.16 0.05664257
7368.43 0.05813482
7369.7 0.05900539
7370.97 0.05855669
7372.24 0.06663166
7373.51 0.06577018
7374.78 0.07178992
7376.05 0.07590303
7377.32 0.07037387
7378.59 0.07961747
7379.86 0.08810804
7381.13 0.08201426
7382.4 0.08377248
7383.67 0.08343131
7384.94 0.07400461
7386.21 0.0696899
7387.48 0.08009083
7388.75 0.08709823
7390.02 0.07146223
7391.29 0.06524439
7392.56 0.06877464
7393.83 0.06063107
7395.1 0.05855227
7396.37 0.07053158
7397.64 0.06947731
7398.91 0.07146528
7400.18 0.07687705
7401.45 0.07133793
7402.72 0.07334851
7403.99 0.06464866
7405.26 0.05642471
7406.53 0.06307738
7407.8 0.07491069
7409.07 0.07708854
7410.34 0.08004366
7411.61 0.08146599
7412.88 0.07501156
7414.15 0.07546175
7415.42 0.07220169
7416.69 0.06191238
7417.96 0.05902329
7419.23 0.05557528
7420.5 0.04946668
7421.77 0.06278774
7423.04 0.07013571
7424.31 0.06264647
7425.58 0.05350888
7426.85 0.05656154
7428.12 0.06744264
7429.39 0.07017753
7430.66 0.07486314
7431.93 0.07312862
7433.2 0.06975425
7434.47 0.08011206
7435.74 0.07805757
7437.01 0.0659802
7438.28 0.06123653
7439.55 0.05468235
7440.82 0.05628249
7442.09 0.0611723
7443.36 0.06778656
7444.63 0.07457785
7445.9 0.07398806
7447.17 0.06818704
7448.44 0.06899055
7449.71 0.08404433
7450.98 0.07596436
7452.25 0.04944393
7453.52 0.04542377
7454.79 0.06486242
7456.06 0.07123267
7457.33 0.06801079
7458.6 0.07134387
7459.87 0.07206531
7461.14 0.07021656
7462.41 0.06421595
7463.68 0.06449186
7464.95 0.06719353
7466.22 0.05817001
7467.49 0.0595221
7468.76 0.06905345
7470.03 0.06596488
7471.3 0.0722205
7472.57 0.06983521
7473.84 0.06069633
7475.11 0.0570433
7476.38 0.06392261
7477.65 0.07809132
7478.92 0.08415176
7480.19 0.07802163
7481.46 0.06558727
7482.73 0.07230397
7484.0 0.08145242
7485.27 0.0846955
7486.54 0.08740055
7487.81 0.07070877
7489.08 0.06551088
7490.35 0.07324835
7491.62 0.07591496
7492.89 0.07643691
7494.16 0.07998112
7495.43 0.08080491
7496.7 0.06477664
7497.97 0.05286945
7499.24 0.0653158
7500.51 0.06634084
7501.78 0.06563647
7503.05 0.05844951
7504.32 0.04936951
7505.59 0.05568564
7506.86 0.061491
7508.13 0.06637608
7509.4 0.07252653
7510.67 0.06871535
7511.94 0.06295384
7513.21 0.05830663
7514.48 0.05621425
7515.75 0.06132634
7517.02 0.05854499
7518.29 0.05247064
7519.56 0.0516772
7520.83 0.06080493
7522.1 0.04980279
7523.37 0.04056242
7524.64 0.04682335
7525.91 0.0523875
7527.18 0.06149022
7528.45 0.06267425
7529.72 0.04788285
7530.99 0.0446493
7532.26 0.05325335
7533.53 0.05719057
7534.8 0.0623449
7536.07 0.07810684
7537.34 0.07711656
7538.61 0.06471102
7539.88 0.07116074
7541.15 0.0614139
7542.42 0.05295536
7543.69 0.05910742
7544.96 0.06400008
7546.23 0.06990267
7547.5 0.07222088
7548.77 0.06799731
7550.04 0.06772181
7551.31 0.07500404
7552.58 0.08188099
7553.85 0.07997742
7555.12 0.0685478
7556.39 0.07142621
7557.66 0.07348524
7558.93 0.07036856
7560.2 0.07842437
7561.47 0.08104803
7562.74 0.07150846
7564.01 0.06739872
7565.28 0.06534953
7566.55 0.05996131
7567.82 0.05836854
7569.09 0.06625756
7570.36 0.06183052
7571.63 0.05234005
7572.9 0.05075246
7574.17 0.05964728
7575.44 0.06338574
7576.71 0.06647036
7577.98 0.05928092
7579.25 0.05449652
7580.52 0.05877407
7581.79 0.06179801
7583.06 0.06361085
7584.33 0.04833866
7585.6 0.04377479
7586.87 0.05173216
7588.14 0.05964885
7589.41 0.06169566
7590.68 0.05689407
7591.95 0.05873114
7593.22 0.05357395
7594.49 0.04847215
7595.76 0.05560686
7597.03 0.07038218
7598.3 0.09150396
7599.57 0.08751636
7600.84 0.07579858
7602.11 0.07674482
7603.38 0.08287843
7604.65 0.07417636
7605.92 0.06642624
7607.19 0.05906647
7608.46 0.05425865
7609.73 0.04994236
7611.0 0.05691334
7612.27 0.07556044
7613.54 0.09087735
7614.81 0.08581921
7616.08 0.06023896
7617.35 0.06525438
7618.62 0.08303325
7619.89 0.07274168
7621.16 0.08398446
7622.43 0.08227853
7623.7 0.08628169
7624.97 0.07177797
7626.24 0.07109215
7627.51 0.05705492
7628.78 0.05948363
7630.05 0.07577556
7631.32 0.0761508
7632.59 0.0614203
7633.86 0.04133444
7635.13 0.0492488
7636.4 0.05008405
7637.67 0.05783603
7638.94 0.05597581
7640.21 0.05100861
7641.48 0.04835102
7642.75 0.05224584
7644.02 0.04906106
7645.29 0.03750684
7646.56 0.04395397
7647.83 0.06172517
7649.1 0.06664109
7650.37 0.0667563
7651.64 0.06366895
7652.91 0.05091813
7654.18 0.06920599
7655.45 0.07530221
7656.72 0.08964403
7657.99 0.08621853
7659.26 0.0571974
7660.53 0.04927255
7661.8 0.07169691
7663.07 0.08479635
7664.34 0.07788162
7665.61 0.06381122
7666.88 0.05539907
7668.15 0.05716538
7669.42 0.05848244
7670.69 0.0625625
7671.96 0.06231659
7673.23 0.06294347
7674.5 0.08734982
7675.77 0.07063676
7677.04 0.05942869
7678.31 0.06414478
7679.58 0.07926672
7680.85 0.09266895
7682.12 0.08341953
7683.39 0.06251653
7684.66 0.06533487
7685.93 0.09215334
7687.2 0.09346694
7688.47 0.08389848
7689.74 0.08298709
7691.01 0.07253312
7692.28 0.05198462
7693.55 0.05669976
7694.82 0.05723045
7696.09 0.04859484
7697.36 0.04649128
7698.63 0.06144669
7699.9 0.06989346
7701.17 0.0527057
7702.44 0.04955131
7703.71 0.06406023
7704.98 0.06310631
7706.25 0.06545515
7707.52 0.07403988
7708.79 0.07163401
7710.06 0.06868402
7711.33 0.06635811
7712.6 0.06687104
7713.87 0.0623535
7715.14 0.05823242
7716.41 0.06136785
7717.68 0.05862021
7718.95 0.05596807
7720.22 0.06009894
7721.49 0.05795843
7722.76 0.06892982
7724.03 0.05398965
7725.3 0.04671887
7726.57 0.06098607
7727.84 0.06587044
7729.11 0.06357975
7730.38 0.06448393
7731.65 0.06750536
7732.92 0.07195888
7734.19 0.08356779
7735.46 0.09235712
7736.73 0.0854677
7738.0 0.08532424
7739.27 0.09497233
7740.54 0.08970844
7741.81 0.07873521
7743.08 0.08089684
7744.35 0.0867389
7745.62 0.08273836
7746.89 0.07482839
7748.16 0.06734698
7749.43 0.06831799
7750.7 0.06927791
7751.97 0.05888338
7753.24 0.05775293
7754.51 0.06241688
7755.78 0.06067993
7757.05 0.06791476
7758.32 0.0662466
7759.59 0.05167248
7760.86 0.05594869
7762.13 0.06111159
7763.4 0.05428746
7764.67 0.05660588
7765.94 0.05936928
7767.21 0.05868534
7768.48 0.05632215
7769.75 0.04959411
7771.02 0.0568587
7772.29 0.05979145
7773.56 0.05284212
7774.83 0.0586307
7776.1 0.0602048
7777.37 0.06022817
7778.64 0.06378274
7779.91 0.06684715
7781.18 0.07162432
7782.45 0.07631031
7783.72 0.06964843
7784.99 0.06292079
7786.26 0.06119415
7787.53 0.06250779
7788.8 0.06825325
7790.07 0.06294627
7791.34 0.06861384
7792.61 0.0578178
7793.88 0.05006735
7795.15 0.04471157
7796.42 0.04447998
7797.69 0.05135864
7798.96 0.05564141
7800.23 0.06830114
7801.5 0.07231297
7802.77 0.06587777
7804.04 0.06531858
7805.31 0.06042049
7806.58 0.07208207
7807.85 0.07893842
7809.12 0.07167003
7810.39 0.07596748
7811.66 0.07431515
7812.93 0.08115397
7814.2 0.08233936
7815.47 0.09094902
7816.74 0.08748921
7818.01 0.0763654
7819.28 0.0769451
7820.55 0.0698354
7821.82 0.06271157
7823.09 0.06673022
7824.36 0.08240753
7825.63 0.0695819
7826.9 0.06557184
7828.17 0.06214537
7829.44 0.06681688
7830.71 0.07298719
7831.98 0.07954136
7833.25 0.07713234
7834.52 0.06252135
7835.79 0.05284813
7837.06 0.05489896
7838.33 0.06983672
7839.6 0.07244132
7840.87 0.06451209
7842.14 0.06999045
7843.41 0.0668347
7844.68 0.05896889
7845.95 0.06784108
7847.22 0.06878321
7848.49 0.07145505
7849.76 0.07404011
7851.03 0.0804331
7852.3 0.08874972
7853.57 0.07770421
7854.84 0.06492313
7856.11 0.07191962
7857.38 0.07084727
7858.65 0.0744442
7859.92 0.07415425
7861.19 0.06246308
7862.46 0.05576664
7863.73 0.05643393
7865.0 0.06113115
7866.27 0.06339249
7867.54 0.05840407
7868.81 0.05737858
7870.08 0.05547706
7871.35 0.04862961
7872.62 0.05395004
7873.89 0.06124147
7875.16 0.05990345
7876.43 0.05323498
7877.7 0.06213953
7878.97 0.06455304
7880.24 0.0601012
7881.51 0.06072725
7882.78 0.06616937
7884.05 0.07498352
7885.32 0.0797717
7886.59 0.08251712
7887.86 0.07459486
7889.13 0.06250264
7890.4 0.06723319
7891.67 0.06613507
7892.94 0.06658009
7894.21 0.07248802
7895.48 0.07580359
7896.75 0.07376172
7898.02 0.07015836
7899.29 0.06762201
7900.56 0.07116179
7901.83 0.06785144
7903.1 0.05771507
7904.37 0.05333852
7905.64 0.05907566
7906.91 0.06158914
7908.18 0.06681603
7909.45 0.06971965
7910.72 0.0679135
7911.99 0.07609375
7913.26 0.07902644
7914.53 0.06589235
7915.8 0.06339704
7917.07 0.0801189
7918.34 0.08195811
7919.61 0.08016742
7920.88 0.09019917
7922.15 0.08941036
7923.42 0.07337603
7924.69 0.06693787
7925.96 0.06213052
7927.23 0.0768282
7928.5 0.09007258
7929.77 0.07584524
7931.04 0.06784624
7932.31 0.06435915
7933.58 0.06413641
7934.85 0.06595875
7936.12 0.05576002
7937.39 0.04818807
7938.66 0.0423454
7939.93 0.04419017
7941.2 0.06136585
7942.47 0.06019751
7943.74 0.05926055
7945.01 0.06263211
7946.28 0.06905502
7947.55 0.0684474
7948.82 0.05494908
7950.09 0.06309129
7951.36 0.08416337
7952.63 0.07515886
7953.9 0.06249924
7955.17 0.06966304
7956.44 0.06782843
7957.71 0.06659053
7958.98 0.06111794
7960.25 0.06375638
7961.52 0.07203148
7962.79 0.06465346
7964.06 0.05437209
7965.33 0.04367365
7966.6 0.04839857
7967.87 0.07029935
7969.14 0.08219746
7970.41 0.07931018
7971.68 0.07516035
7972.95 0.08020701
7974.22 0.07926369
7975.49 0.075225
7976.76 0.0659749
7978.03 0.06613041
7979.3 0.05463004
7980.57 0.05607313
7981.84 0.06506672
7983.11 0.06348732
7984.38 0.07068259
7985.65 0.07019172
7986.92 0.07069091
7988.19 0.08569098
7989.46 0.07298671
7990.73 0.0718955
7992.0 0.05903347
7993.27 0.05646304
7994.54 0.05660694
7995.81 0.05345642
7997.08 0.05729631
7998.35 0.05731475
7999.62 0.06211698
8000.89 0.0672097
8002.16 0.06405894
8003.43 0.05872277
8004.7 0.05540881
8005.97 0.05985558
8007.24 0.05938803
8008.51 0.07391293
8009.78 0.07457001
8011.05 0.07150363
8012.32 0.06450709
8013.59 0.06660095
8014.86 0.07015444
8016.13 0.07435896
8017.4 0.07466103
8018.67 0.07449127
8019.94 0.07319576
8021.21 0.07145868
8022.48 0.08126956
8023.75 0.08198743
8025.02 0.05674288
8026.29 0.03143767
8027.56 0.03194489
8028.83 0.04077403
8030.1 0.0497495
8031.37 0.04523434
8032.64 0.04899246
8033.91 0.06133342
8035.18 0.06628541
8036.45 0.06337607
8037.72 0.06269759
8038.99 0.07464968
8040.26 0.07881057
8041.53 0.08717974
8042.8 0.09284446
8044.07 0.0668947
8045.34 0.05466469
8046.61 0.06695198
8047.88 0.06580467
8049.15 0.05393956
8050.42 0.06302244
8051.69 0.06839002
8052.96 0.04786988
8054.23 0.03662076
8055.5 0.04755697
8056.77 0.0573681
8058.04 0.0620064
8059.31 0.05861924
8060.58 0.0573056
8061.85 0.06520944
8063.12 0.07249775
8064.39 0.0709366
8065.66 0.07309631
8066.93 0.07331788
8068.2 0.07350381
8069.47 0.07565453
8070.74 0.0671632
8072.01 0.05685011
8073.28 0.06566949
8074.55 0.08127306
8075.82 0.0700281
8077.09 0.06393437
8078.36 0.05632642
8079.63 0.04163015
8080.9 0.05629157
8082.17 0.0462247
8083.44 0.04605391
8084.71 0.05400281
8085.98 0.05447127
8087.25 0.05362086
8088.52 0.05058566
8089.79 0.0649417
8091.06 0.06976025
8092.33 0.06813668
8093.6 0.07062312
8094.87 0.0881782
8096.14 0.07887527
8097.41 0.07744274
8098.68 0.07990678
8099.95 0.07077479
8101.22 0.05444768
8102.49 0.07092366
8103.76 0.08079738
8105.03 0.05596839
8106.3 0.05462261
8107.57 0.05698845
8108.84 0.06166296
8110.11 0.06133425
8111.38 0.06761526
8112.65 0.0549899
8113.92 0.04872033
8115.19 0.05917365
8116.46 0.05848471
8117.73 0.05170659
8119.0 0.05529347
8120.27 0.05506003
8121.54 0.05974191
8122.81 0.07497151
8124.08 0.06484991
8125.35 0.05393514
8126.62 0.05931757
8127.89 0.05879058
8129.16 0.04488755
8130.43 0.04215617
8131.7 0.0486527
8132.97 0.03882726
8134.24 0.04689267
8135.51 0.04903863
8136.78 0.04376511
8138.05 0.05460854
8139.32 0.06590582
8140.59 0.0694408
8141.86 0.0640392
8143.13 0.06597628
8144.4 0.07589812
8145.67 0.07065862
8146.94 0.07815531
8148.21 0.07915813
8149.48 0.05623888
8150.75 0.06454384
8152.02 0.05664093
8153.29 0.04373864
8154.56 0.05077362
8155.83 0.05336715
8157.1 0.06372096
8158.37 0.06078933
8159.64 0.04403298
8160.91 0.05639086
8162.18 0.06050883
8163.45 0.05784398
8164.72 0.062701
8165.99 0.06634886
8167.26 0.06930422
8168.53 0.05807433
8169.8 0.04776694
8171.07 0.05162564
8172.34 0.05710203
8173.61 0.05288617
8174.88 0.04901221
8176.15 0.05347463
8177.42 0.06275879
8178.69 0.05708678
8179.96 0.05916619
8181.23 0.0491357
8182.5 0.04774195
8183.77 0.0601352
8185.04 0.06743415
8186.31 0.07953405
8187.58 0.07831241
8188.85 0.06240177
8190.12 0.05767329
8191.39 0.05775092
8192.66 0.05749462
8193.93 0.0576698
8195.2 0.05544652
8196.47 0.05744862
8197.74 0.0448816
8199.01 0.0492769
8200.28 0.05557132
8201.55 0.04743373
8202.82 0.04718314
8204.09 0.04350359
8205.36 0.0452649
8206.63 0.05458292
8207.9 0.05695385
8209.17 0.05696308
8210.44 0.04668033
8211.71 0.04412817
8212.98 0.05623011
8214.25 0.06731243
8215.52 0.06430327
8216.79 0.06007335
8218.06 0.05391916
8219.33 0.05271871
8220.6 0.05484526
8221.87 0.05146756
8223.14 0.04848327
8224.41 0.04693634
8225.68 0.04989978
8226.95 0.05678894
8228.22 0.06346828
8229.49 0.05268863
8230.76 0.04829391
8232.03 0.06856174
8233.3 0.05952613
8234.57 0.06225765
8235.84 0.06458352
8237.11 0.06305116
8238.38 0.06152368
8239.65 0.05696279
8240.92 0.05542082
8242.19 0.06248093
8243.46 0.06145148
8244.73 0.05374672
8246.0 0.06231196
8247.27 0.06673991
8248.54 0.05992327
8249.81 0.05163925
8251.08 0.04663087
8252.35 0.05059884
8253.62 0.05271547
8254.89 0.05241458
8256.16 0.05405418
8257.43 0.0582981
8258.7 0.05998998
8259.97 0.05455212
8261.24 0.05745578
8262.51 0.06401642
8263.78 0.05355829
8265.05 0.0555562
8266.32 0.05849114
8267.59 0.05462705
8268.86 0.05805552
8270.13 0.06810655
8271.4 0.05881238
8272.67 0.0465872
8273.94 0.04618123
8275.21 0.04995528
8276.48 0.05684993
8277.75 0.05451688
8279.02 0.03861206
8280.29 0.03507416
8281.56 0.03664857
8282.83 0.04263382
8284.1 0.0647639
8285.37 0.07264037
8286.64 0.06276359
8287.91 0.05968885
8289.18 0.06376906
8290.45 0.05448608
8291.72 0.04158291
8292.99 0.03714863
8294.26 0.04196245
8295.53 0.05138046
8296.8 0.04736378
8298.07 0.03888454
8299.34 0.04270477
8300.61 0.03894254
8301.88 0.03177117
8303.15 0.03085265
8304.42 0.03741746
8305.69 0.05116488
8306.96 0.05239643
8308.23 0.05192701
8309.5 0.05155969
8310.77 0.04345135
8312.04 0.04854416
8313.31 0.05215019
8314.58 0.05765142
8315.85 0.06220189
8317.12 0.04623451
8318.39 0.03107403
8319.66 0.03422917
8320.93 0.04915738
8322.2 0.04331528
8323.47 0.04264645
8324.74 0.0506946
8326.01 0.04828104
8327.28 0.05203607
8328.55 0.0629385
8329.82 0.06695338
8331.09 0.06068934
8332.36 0.05024612
8333.63 0.05437456
8334.9 0.072623
8336.17 0.07615014
8337.44 0.07400464
8338.71 0.07875983
8339.98 0.05125958
8341.25 0.02689759
8342.52 0.04111256
8343.79 0.04823814
8345.06 0.03726198
8346.33 0.0387575
8347.6 0.04415556
8348.87 0.04087719
8350.14 0.05016251
8351.41 0.06426322
8352.68 0.06145454
8353.95 0.05158004
8355.22 0.05918816
8356.49 0.06441761
8357.76 0.06371519
8359.03 0.06705549
8360.3 0.05639108
8361.57 0.05338378
8362.84 0.05197603
8364.11 0.04060912
8365.38 0.0411997
8366.65 0.05264379
8367.92 0.055082
8369.19 0.06899931
8370.46 0.05891382
8371.73 0.05115522
8373.0 0.05562265
8374.27 0.05655132
8375.54 0.05106323
8376.81 0.04823278
8378.08 0.05808372
8379.35 0.05264515
8380.62 0.04291298
8381.89 0.03474016
8383.16 0.03829759
8384.43 0.04069249
8385.7 0.04367913
8386.97 0.05414652
8388.24 0.0535645
8389.51 0.04288392
8390.78 0.0466531
8392.05 0.05249684
8393.32 0.05729282
8394.59 0.06416731
8395.86 0.06144224
8397.13 0.05268148
8398.4 0.05133455
8399.67 0.04942376
8400.94 0.04905228
8402.21 0.05166936
8403.48 0.04421815
8404.75 0.04640658
8406.02 0.05914839
8407.29 0.05651394
8408.56 0.06514995
8409.83 0.08043771
8411.1 0.07302485
8412.37 0.06495328
8413.64 0.07478942
8414.91 0.06380919
8416.18 0.03727029
8417.45 0.05195164
8418.72 0.05814486
8419.99 0.06093319
8421.26 0.06149753
8422.53 0.07158085
8423.8 0.06818569
8425.07 0.06950437
8426.34 0.0821073
8427.61 0.07316303
8428.88 0.06481542
8430.15 0.061009
8431.42 0.03727101
8432.69 0.02803342
8433.96 0.03095495
8435.23 0.03516417
8436.5 0.04211051
8437.77 0.04152396
8439.04 0.03903081
8440.31 0.0421164
8441.58 0.04735782
8442.85 0.03774301
8444.12 0.03269866
8445.39 0.04919728
8446.66 0.05755958
8447.93 0.05850504
8449.2 0.06822556
8450.47 0.07680653
8451.74 0.06008334
8453.01 0.05722446
8454.28 0.07438373
8455.55 0.06868444
8456.82 0.05668815
8458.09 0.05946006
8459.36 0.06249215
8460.63 0.05851571
8461.9 0.05659356
8463.17 0.07131262
8464.44 0.06963999
8465.71 0.04090139
8466.98 0.03155261
8468.25 0.03436098
8469.52 0.0430769
8470.79 0.04633623
8472.06 0.0438728
8473.33 0.06114478
8474.6 0.06306114
8475.87 0.07027959
8477.14 0.07886477
8478.41 0.06799634
8479.68 0.05535205
8480.95 0.05135059
8482.22 0.04467228
8483.49 0.04384997
8484.76 0.04979699
8486.03 0.04789614
8487.3 0.05290999
8488.57 0.04501624
8489.84 0.04434964
8491.11 0.0356671
8492.38 0.02994364
8493.65 0.03531576
8494.92 0.03597491
8496.19 0.04678213
8497.46 0.05449192
8498.73 0.05153147
8500.0 0.05114933
8501.27 0.05340506
8502.54 0.05615677
8503.81 0.04534967
8505.08 0.02959767
8506.35 0.02556036
8507.62 0.0505602
8508.89 0.05467858
8510.16 0.05572535
8511.43 0.05132105
8512.7 0.06133812
8513.97 0.06612204
8515.24 0.05361054
8516.51 0.04848562
8517.78 0.05832881
8519.05 0.0612129
8520.32 0.05818791
8521.59 0.06326461
8522.86 0.05501596
8524.13 0.05428853
8525.4 0.05016631
8526.67 0.05104684
8527.94 0.04500802
8529.21 0.03512598
8530.48 0.03649827
8531.75 0.04943622
8533.02 0.06047905
8534.29 0.06062607
8535.56 0.05757345
8536.83 0.05427887
8538.1 0.04933945
8539.37 0.05330123
8540.64 0.05891579
8541.91 0.07687541
8543.18 0.07039565
8544.45 0.07152388
8545.72 0.07398738
8546.99 0.06332441
8548.26 0.06673335
8549.53 0.0714244
8550.8 0.06463604
8552.07 0.0508886
8553.34 0.04613857
8554.61 0.05848552
8555.88 0.056764
8557.15 0.04471321
8558.42 0.04562816
8559.69 0.04451827
8560.96 0.0452473
8562.23 0.05008926
8563.5 0.04962628
8564.77 0.04170533
8566.04 0.04126787
8567.31 0.04925792
8568.58 0.0511537
8569.85 0.04824265
8571.12 0.03830157
8572.39 0.03662813
8573.66 0.05233882
8574.93 0.04266524
8576.2 0.03879212
8577.47 0.05006777
8578.74 0.04380989
8580.01 0.05232655
8581.28 0.06593089
8582.55 0.06984026
8583.82 0.06888012
8585.09 0.06286581
8586.36 0.06896607
8587.63 0.06803756
8588.9 0.05277438
8590.17 0.05105083
8591.44 0.05762699
8592.71 0.06075428
8593.98 0.05508028
8595.25 0.06061313
8596.52 0.06737936
8597.79 0.06458008
8599.06 0.07535225
8600.33 0.06347686
8601.6 0.05881854
8602.87 0.05122314
8604.14 0.05356784
8605.41 0.07112493
8606.68 0.06365239
8607.95 0.04995099
8609.22 0.06506433
8610.49 0.07106222
8611.76 0.05780883
8613.03 0.06104037
8614.3 0.06113179
8615.57 0.04798228
8616.84 0.05692133
8618.11 0.05581332
8619.38 0.05455594
8620.65 0.04894907
8621.92 0.04778355
8623.19 0.04719546
8624.46 0.05087781
8625.73 0.05325579
8627.0 0.04058576
8628.27 0.03356732
8629.54 0.04611949
8630.81 0.05823485
8632.08 0.04693838
8633.35 0.06236308
8634.62 0.0564242
8635.89 0.04336692
8637.16 0.0485479
8638.43 0.04874102
8639.7 0.04702188
8640.97 0.05096433
8642.24 0.05122329
8643.51 0.04639689
8644.78 0.04219132
8646.05 0.04879008
8647.32 0.05393714
8648.59 0.04131678
8649.86 0.05504817
8651.13 0.05509554
8652.4 0.05000414
8653.67 0.04459078
8654.94 0.05515274
8656.21 0.05492459
8657.48 0.05848542
8658.75 0.0536099
8660.02 0.04509908
8661.29 0.05951115
8662.56 0.07688121
8663.83 0.07526885
8665.1 0.0603346
8666.37 0.06232003
8667.64 0.05054927
8668.91 0.0412695
8670.18 0.04622287
8671.45 0.05681704
8672.72 0.07039689
8673.99 0.06351309
8675.26 0.05362716
8676.53 0.04678403
8677.8 0.04741324
8679.07 0.056128
8680.34 0.04371931
8681.61 0.02935618
8682.88 0.03807075
8684.15 0.04267659
8685.42 0.03948018
8686.69 0.04548873
8687.96 0.05478052
8689.23 0.04599354
8690.5 0.04283118
8691.77 0.05282817
8693.04 0.05301538
8694.31 0.0521906
8695.58 0.05910842
8696.85 0.06159795
8698.12 0.0481007
8699.39 0.04880039
8700.66 0.05729777
8701.93 0.05897302
8703.2 0.06157709
8704.47 0.05608126
8705.74 0.04701154
8707.01 0.03258358
8708.28 0.03428676
8709.55 0.04699571
8710.82 0.03637562
8712.09 0.02861898
8713.36 0.03883829
8714.63 0.04464057
8715.9 0.04817363
8717.17 0.05833092
8718.44 0.062799
8719.71 0.06395387
8720.98 0.0598282
8722.25 0.05883356
8723.52 0.06612179
8724.79 0.07042019
8726.06 0.07017042
8727.33 0.06431128
8728.6 0.06463819
8729.87 0.07156206
8731.14 0.0765657
8732.41 0.06460206
8733.68 0.055808
8734.95 0.05361182
8736.22 0.05141602
8737.49 0.05578284
8738.76 0.04606433
8740.03 0.04281171
8741.3 0.03944129
8742.57 0.03906653
8743.84 0.0495549
8745.11 0.05871067
8746.38 0.05881086
8747.65 0.05454671
8748.92 0.05329013
8750.19 0.05410339
8751.46 0.05068507
8752.73 0.05188798
8754.0 0.059429
8755.27 0.0482859
8756.54 0.05420752
8757.81 0.06469164
8759.08 0.05212789
8760.35 0.04704719
8761.62 0.03470251
8762.89 0.01779937
8764.16 0.02379188
8765.43 0.03463743
8766.7 0.04189766
8767.97 0.04223093
8769.24 0.04241861
8770.51 0.05940644
8771.78 0.0736796
8773.05 0.07081872
8774.32 0.05174781
8775.59 0.0528826
8776.86 0.05413263
8778.13 0.04846168
8779.4 0.04633758
8780.67 0.04689879
8781.94 0.03949981
8783.21 0.04042065
8784.48 0.05874531
8785.75 0.05596932
8787.02 0.03678875
8788.29 0.03072901
8789.56 0.03084899
8790.83 0.03523466
8792.1 0.04649987
8793.37 0.04028869
8794.64 0.03547237
8795.91 0.03473904
8797.18 0.04052733
8798.45 0.0547134
8799.72 0.06218041
8800.99 0.04983094
8802.26 0.05095597
8803.53 0.04893668
8804.8 0.04128561
8806.07 0.05089951
8807.34 0.04968753
8808.61 0.04636416
8809.88 0.04692817
8811.15 0.04614313
8812.42 0.05135
8813.69 0.04169841
8814.96 0.0398108
8816.23 0.0431617
8817.5 0.03935035
8818.77 0.04054263
8820.04 0.05028966
8821.31 0.06210493
8822.58 0.05351444
8823.85 0.04902892
8825.12 0.0592771
8826.39 0.06233861
8827.66 0.05643217
8828.93 0.04059611
8830.2 0.04380285
8831.47 0.05287983
8832.74 0.03628011
8834.01 0.03912956
8835.28 0.03436763
8836.55 0.02800365
8837.82 0.01337589
8839.09 0.01896405
8840.36 0.0379864
8841.63 0.03667872
8842.9 0.0268409
8844.17 0.02936443
8845.44 0.04233702
8846.71 0.04300735
8847.98 0.04316713
8849.25 0.06177438
8850.52 0.0642857
8851.79 0.04639621
8853.06 0.05424781
8854.33 0.06147957
8855.6 0.05797694
8856.87 0.05026654
8858.14 0.04756908
8859.41 0.04882739
8860.68 0.04343747
8861.95 0.03888389
8863.22 0.04569094
8864.49 0.04357816
8865.76 0.03766948
8867.03 0.04374338
8868.3 0.04835199
8869.57 0.03477038
8870.84 0.03110723
8872.11 0.03954813
8873.38 0.04732415
8874.65 0.03930879
8875.92 0.04157608
8877.19 0.03733475
8878.46 0.04281305
8879.73 0.0583838
8881.0 0.05108655
8882.27 0.03622628
8883.54 0.03926029
8884.81 0.0525215
8886.08 0.04865257
8887.35 0.04216931
8888.62 0.04384805
8889.89 0.03587551
8891.16 0.04267786
8892.43 0.03803576
8893.7 0.03466354
8894.97 0.03938463
8896.24 0.04345233
8897.51 0.04427093
8898.78 0.05324855
8900.05 0.0623772
8901.32 0.04664377
8902.59 0.03959442
8903.86 0.05890248
8905.13 0.04906225
8906.4 0.02992496
8907.67 0.03969649
8908.94 0.04849056
8910.21 0.05054786
8911.48 0.04228802
8912.75 0.05041811
8914.02 0.05121125
8915.29 0.03866285
8916.56 0.03641883
8917.83 0.04399256
8919.1 0.04629395
8920.37 0.04436624
8921.64 0.04223906
8922.91 0.04278212
8924.18 0.04075411
8925.45 0.03520652
8926.72 0.02317595
8927.99 0.03272716
8929.26 0.037822
8930.53 0.03239315
8931.8 0.03015077
8933.07 0.0258273
8934.34 0.02909937
8935.61 0.03150568
8936.88 0.02579079
8938.15 0.02638483
8939.42 0.02838781
8940.69 0.02707118
8941.96 0.02308941
8943.23 0.01595742
8944.5 0.03806862
8945.77 0.04238169
8947.04 0.05065912
8948.31 0.0431936
8949.58 0.04792228
8950.85 0.04835762
8952.12 0.05419667
8953.39 0.04809628
8954.66 0.04131539
8955.93 0.04795258
8957.2 0.05665759
8958.47 0.04674776
8959.74 0.03325963
8961.01 0.04243818
8962.28 0.03675202
8963.55 0.02548664
8964.82 0.04480262
8966.09 0.04306406
8967.36 0.04108995
8968.63 0.04546367
8969.9 0.04514403
8971.17 0.0420657
8972.44 0.04178927
8973.71 0.03875255
8974.98 0.03994809
8976.25 0.0414344
8977.52 0.04048013
8978.79 0.04116068
8980.06 0.04575697
8981.33 0.05320854
8982.6 0.04526522
8983.87 0.04660161
8985.14 0.03066683
8986.41 0.03738856
8987.68 0.05105996
8988.95 0.07605278
8990.22 0.05197142
8991.49 0.04287309
8992.76 0.04812041
8994.03 0.03787397
8995.3 0.03552973
8996.57 0.03322889
8997.84 0.0328861
8999.11 0.03511952
9000.38 0.02150293
9001.65 0.01488512
9002.92 0.01150792
9004.19 0.02129446
9005.46 0.0157068
9006.73 0.02171268
9008.0 0.02347425
9009.27 0.02075121
9010.54 0.03207234
9011.81 0.03000638
9013.08 0.03626269
9014.35 0.05757853
9015.62 0.06486529
9016.89 0.06068314
9018.16 0.06399004
9019.43 0.07396288
9020.7 0.07095473
9021.97 0.06936749
9023.24 0.07262234
9024.51 0.05794509
9025.78 0.05259757
9027.05 0.04507231
9028.32 0.04450104
9029.59 0.03652473
9030.86 0.03131365
9032.13 0.02929468
9033.4 0.0268588
9034.67 0.02697672
9035.94 0.02740754
9037.21 0.03777918
9038.48 0.05077536
9039.75 0.04805283
9041.02 0.04080056
9042.29 0.03776514
9043.56 0.04928387
9044.83 0.03776886
9046.1 0.04477345
9047.37 0.06430602
9048.64 0.06573547
9049.91 0.04515449
9051.18 0.02694426
9052.45 0.02500795
9053.72 0.03231321
9054.99 0.03464906
9056.26 0.02593895
9057.53 0.03113147
9058.8 0.04355696
9060.07 0.03531721
9061.34 0.03217106
9062.61 0.02748467
9063.88 0.03346801
9065.15 0.02970392
9066.42 0.03278719
9067.69 0.03430101
9068.96 0.0326379
9070.23 0.04588601
9071.5 0.04926748
9072.77 0.04557828
9074.04 0.04287227
9075.31 0.03916486
9076.58 0.04453691
9077.85 0.04665262
9079.12 0.04586167
9080.39 0.05205161
9081.66 0.0566943
9082.93 0.05602332
9084.2 0.05754125
9085.47 0.05537825
9086.74 0.04978906
9088.01 0.03561863
9089.28 0.0328502
9090.55 0.05853754
9091.82 0.04609638
9093.09 0.02884033
9094.36 0.04257065
9095.63 0.04644271
9096.9 0.03434559
9098.17 0.03064056
9099.44 0.03798907
9100.71 0.02860484
9101.98 0.02520672
