 log(Bfield)      Mns    Pspin  cutoff_power  cutoff_wavelength  fnickel    kappa  kappagamma   mejecta  log(nhhost)  temperature  texplosion  thetaPB     vejecta      A_V        MJD_0   log(KE)      M_Ni  Peak_mag     Peak_MJD 
    13.73078  1.80351  3.32039       0.40595         4126.28261  0.00596  0.01239     0.10853   9.55474     19.69265   3710.33077    -7.98784  0.41135  5224.71142  0.02738  59127.18404  52.03157   0.39359  19.85735  59211.91186 
    13.32703  1.64031  3.10916        0.7134         2780.34329   0.0318   0.0261     0.32019   4.80415     17.32675   3399.80023    -8.25821  0.99911  6746.34428  0.00012  59126.91366  52.18271   1.78378  20.06753  59228.51201 
    13.65919  1.72483  3.23495       1.19568         4457.11099  0.01804  0.05322     0.47534   0.52322     18.67855   8278.75684   -12.37471  0.41673  2529.30629  0.00265  59122.79716  50.96242   0.43364  19.87771  59216.32762 
    13.65252  1.76885  3.22178       1.27666         4369.48047  0.00573  0.07869     0.49626   0.41487     20.21946   9359.61222   -12.88278  0.47304  2100.54601  0.09208  59122.28909  50.73577   0.11857  19.96178  59225.15916 
    13.24707   1.4669  3.23524       4.14028         3795.67039  0.00266  0.01859     0.11065   1.28639     16.64941    9436.5493    -7.57859  1.20808  1964.62269    2e-05  59127.59328  50.93088   0.09853  19.97168  59216.32762 
    13.28797  1.84999  3.27112       1.33262         2683.56282  0.00392   0.0161     0.10824   7.83614     17.33817   5191.65178   -16.63528  1.37941  5000.53145  0.00012   59118.5366   51.9742   0.24787   19.8944  59220.74339 
    13.23509  1.46641  2.87117       0.93191          2217.1584  0.00435  0.01508     0.33295   6.74419     16.88407   6574.55075   -13.84962   1.0513  6416.28704    4e-05  59121.32225  52.17555   0.26544  19.77471   59194.2488 
     13.4178  1.63225  3.18054       0.59903         2625.63297   0.0064  0.01777     0.33989   4.77219     17.83225   4772.63865     -7.7202  0.81591  4719.65387  0.00038  59127.45167  51.87165   0.35829  19.83154  59203.08033 
    13.36576   1.5908  3.13338       0.74189         3025.80784  0.01241  0.01235     0.19924   8.71628     17.13661   5982.98066   -10.15127  1.01685  5377.71488    8e-05  59125.02061  52.04781   0.80322  19.91975  59216.32762 
    13.44617  1.70704  3.27488       0.87855         4607.36197  0.00441  0.05123     0.48856   0.66555     16.85506   5386.19437    -11.0757  1.06856  2808.00524    4e-05  59124.09617  51.11194   0.12131   19.9261  59207.49609 
    13.02636  1.37746  2.69004       0.12095          2761.2353  0.42279  0.01287     0.09752   9.14977     19.81552   6726.56659   -10.87435  1.42067  6008.60555  0.03633  59124.29753  52.14885   27.6566  20.00218  59207.49609 
    13.43906  1.38397  2.90633       0.99384         4912.39325  0.00484  0.01685     0.12032   2.32757     17.06736   8895.55506    -6.99421  0.70492  2183.37322    6e-05  59128.17767  51.11302   0.22102  19.96151  59225.15916 
     13.3787  1.86249  3.63722       2.33164         2319.29737  0.14892  0.01445     0.33791  11.65815     18.68818    5845.8423    -9.63919  1.45747  7248.65992  0.00271  59125.53268  52.33448  10.26322  19.96658  59207.49609 
     13.8878  2.04693  3.64714       0.21298         2532.18096  0.00202  0.01307     0.07677   11.1755     18.27929   4830.05446   -14.58665  0.33719  4779.71198  0.00106  59120.58523   51.9689   0.13812  19.81506  59211.91186 
    13.44824  1.69354  3.34191       0.98047         5171.04545  0.00515  0.03234     0.26129   1.03108      17.7639   9709.16107   -13.36427  1.02733   2211.7792  0.00032  59121.80761  50.99458   0.17428  19.95552  59216.32762 
    13.41466  1.69572  2.89231       0.32722         3388.20988  0.00536  0.01644     0.11124   8.15345     19.87034   3312.22414   -12.40232  0.61996  5667.35362  0.04122  59122.76956  52.08685   0.34178   19.8678  59207.49609 
    13.90511  1.86992  2.96417       0.04436         3389.95179  0.00222  0.02862     0.44003   3.21376      18.1466   8347.43651   -11.94029   0.1802  8046.27058  0.00078  59123.23158  52.28824   0.11165  19.90018  59220.74339 
    13.23819  1.75086  2.89727       0.02701         3738.69347  0.00782  0.01005     0.06342  11.15541     16.08039   9662.67995   -20.87376  0.95464  5308.07272    1e-05  59114.29812   52.0598   0.53363  19.83187  59207.49609 
    13.48462  1.88508  3.57551       0.57392         3452.03547  0.00941  0.01088     0.17694  12.52641     17.01836   4953.04306     -8.8524  0.96754  6715.99338    6e-05  59126.31948  52.27468   0.65816  19.78262  59198.66456 
    13.40122    1.744  3.33106       2.83564         2144.23999  0.03923  0.01182     0.16506   8.95738     16.81073   7726.47808   -13.54199  0.99419  5551.86333    4e-05  59121.62989  52.07814   2.55403  19.85089  59216.32762 
    13.21028  1.53034  2.93458        1.5595         2209.54612  0.09931  0.01108     0.10664   9.74353     19.19382   6633.73462   -10.18968  1.18619  5225.21367  0.00868   59124.9822  52.03351   6.58681  19.94416  59220.74339 
     13.0406  2.16688  2.80958       0.62466         3089.18611   0.3488  0.02618     0.14818   5.57565      18.2999   7463.79858   -10.47028  1.54994  7741.70381  0.00111  59124.70159  52.31861  20.31818  19.80331   59194.2488 
    13.29216  1.86296  3.17365        0.4546         2546.81094  0.03096  0.01128     0.20691   8.52867     20.41678   7642.23872    -8.49375   1.4509  5902.16647  0.14505  59126.67812  52.12652   1.99371  19.80676   59194.2488 
    13.34617  1.58988  3.03193       0.09283         5988.49061  0.00329  0.01039      0.1032   9.94425     16.78422    4279.3941   -14.17962  0.92999  4730.20092    3e-05  59120.99226  51.94899   0.21899  19.97328  59225.15916 
     13.3469   2.0422   3.4378       0.08816         5465.85015  0.07345  0.01713     0.22155    5.8556     19.49895   5397.59402   -10.72703   1.1199  6494.14429  0.01753  59124.44485  52.17123   4.33074  19.91446  59211.91186 
    13.26288  1.21745  2.45707       0.09605         2721.58936  0.00112  0.01614     0.11998   8.55026     17.26979   5848.47359     -8.4149  0.74199  5285.84288   0.0001  59126.75698  52.03098   0.07204  19.99835  59225.15916 
    13.35155  1.70558  3.08991       0.41032         4782.56824  0.00312  0.02661     0.19541   2.22477      19.5664     3558.437   -18.97207  1.23371  2959.39239  0.02047   59116.1998   51.3709   0.14041  19.90247  59216.32762 
    13.05658  1.56196  2.58388       0.17352         3823.05614  0.15046  0.04451      0.4324   3.02078     19.80766    6452.1965    -7.83173  1.25653  8302.46202  0.03568  59127.34015  52.30766   7.43068  19.85062  59207.49609 
    13.75404  1.97557  3.55975       0.03624          5921.7438  0.02681  0.01042     0.06025  12.64075     16.17061   4761.35206   -13.82244  0.44126  4132.49533    1e-05  59121.34944   51.8537   1.87915  19.92143  59225.15916 
    13.69583  1.66223  3.23231       0.26779         3429.65257  0.48394  0.02178     0.40666   5.73446     18.90529   8490.41836    -6.60425  0.34213  7765.25854  0.00447  59128.56762  52.32426  28.38687  19.68091  59189.83303 
    13.13303  1.87061  2.77933        2.7473         2118.80876  0.00488  0.02293     0.06464   6.65937      19.8283   5642.66911   -12.61846  1.25315  5564.05509  0.03741  59122.55341  52.05046    0.2969  19.81376  59198.66456 
    13.02888  1.57456  2.00045       0.71552         3361.82402  0.00139  0.01088     0.05002   6.55854     17.83095   7821.63482   -14.58649  0.56698   5336.7203  0.00038  59120.58539  52.01265   0.08434  19.92067  59198.66456 
    13.49997  1.88367  3.19108       0.23816         4294.33535  0.00831  0.01143     0.45895   7.96751     20.53406   7199.00554    -8.47806  0.99878  6116.16565  0.19002  59126.69381  52.15077   0.52695  19.96811  59211.91186 
    13.43808   1.3604  2.57872       0.23627         5592.69845   0.0011  0.01082     0.09512   8.37704     19.32464   8471.10367     -12.511  0.46899   4390.1874  0.01173  59122.66087  51.86771   0.07049  19.92753  59207.49609 
    13.37904  1.92425  3.58137       0.74431          3626.3009  0.02289  0.01006     0.08666  10.00493       17.776   7989.04642    -6.42907  1.54863  4669.30764  0.00033  59128.74281   51.9383    1.5269  19.92525  59225.15916 
    13.64184  1.73137  3.18204       0.08111          5135.7003  0.00313  0.03471     0.20642   2.33486      18.7806   9835.76807    -16.1767  0.50817  3507.03667  0.00335  59118.99517  51.52507   0.14307  20.05214  59230.65324 
    13.42797  1.76601  3.31139       4.55344          2840.8731  0.02246  0.01909     0.22654   8.34277     19.75526    3344.4457    -6.92362  0.89989  6565.38526  0.03162  59128.24826  52.21687   1.43906  20.04717  59220.74339 
    13.43778  1.94014   3.5852       2.06272         2544.19807  0.01165   0.0159     0.13788   7.66395     17.83503   3338.05983      -8.628  1.00108  5102.52558  0.00038  59126.54387  51.98952   0.73247  19.90072  59225.15916 
    13.26613  1.39226  2.72945       0.26752         3065.58896  0.00888  0.01342     0.43478   9.84786     20.22954   6325.20334    -8.01603  1.41837  5622.08517  0.09425  59127.15584   52.0981   0.59061  19.85917  59211.91186 
    13.37022  1.89178  3.46201       1.96924          4613.4397  0.00279  0.04267     0.44399   0.18253     18.15128   7010.74633    -5.57141  1.13712  1508.26549  0.00079  59129.60046  50.07718    0.0246  19.89308  59176.58573 
    13.56628  1.92278   3.4658       0.06386         4540.95993  0.00305  0.02091     0.12244   4.70414     17.85472   3020.33723   -14.08295  0.67316  3858.04208   0.0004  59121.08893  51.69495   0.17031  19.82495  59203.08033 
    13.67282  1.50414  3.06313       1.78477         3938.43312  0.00729  0.02366     0.16378   1.57885     17.60087   7529.42931   -12.18621   0.3805  2605.43788  0.00022  59122.98567   51.2095    0.2915  20.00919  59216.32762 
    13.43035  1.68294  3.34333       2.12007         4642.85957  0.00138  0.06097     0.32466    0.1989     18.53707    5974.1646    -7.19808  1.03507  1157.93236  0.00191   59127.9738  49.90491   0.01385  20.00824  59230.54947 
    13.75495  1.94099  3.48667       0.97413         2424.15192  0.00358  0.01095     0.10586   9.49172     17.43619   9770.67371    -9.88281  0.39072  4823.42486  0.00015  59125.28907  51.96152   0.23638  19.88251  59211.91186 
    13.67492  2.08342  3.97406       2.30128         4328.41052  0.00112  0.04935     0.14805   0.52818     17.00988   7997.57637    -8.88319  0.62238  1465.27144    6e-05  59126.28869  50.49071   0.02709  19.82661  59211.91186 
    13.97632  1.73105  3.33018       0.02913         3514.83367  0.46189  0.01586     0.28226   5.39406     18.67799   6125.42217    -5.06168  0.19534   6860.7233  0.00265  59130.11019  52.21009  26.68451  19.85713  59211.91186 
    13.39646  1.85531  3.22397       0.11451         2567.29015  0.00159  0.02902     0.11357   4.30718     18.83268    4856.6831   -18.95547  0.86794  4128.86589  0.00378  59116.21641  51.74383   0.08694  19.80863  59203.08033 
     13.5899  1.99763  3.70138       0.11681         2658.40118  0.00694  0.01838     0.22176   6.58643     19.59374   7541.04328     -8.6043  0.85332  5897.75103   0.0218  59126.56758  52.09991   0.42071  19.79202  59203.08033 
    13.96729  1.62699  3.43399       1.06302         3198.98789  0.00316  0.01706     0.40815   5.19235     17.18831   8825.20032   -14.47456   0.2643  4416.02178    9e-05  59120.69731  51.82325   0.18095  19.95534  59203.08033 
    13.25998  1.52048   3.0008       0.65776         4496.30704   0.0039   0.0132     0.12148   4.27325     19.52408   9241.47698    -9.99979  1.47073  3296.13489  0.01857  59125.17208  51.54727   0.21226  19.86033  59203.08033 
    13.43024  1.59979  3.28813       0.59365         3004.68935  0.01325  0.01186     0.24832   9.81176     16.49573   7214.97782    -9.22741  0.94974  5422.39948    2e-05  59125.94447  52.06634   0.88016  20.00215  59230.54947 
    13.27967  1.80221  3.16779       0.06636         2223.04065  0.00131  0.01013     0.07902   9.55474     17.76657   6866.05243   -10.75346  1.38317    4750.837  0.00032  59124.41842  51.94898   0.08624  19.87615  59220.74339 
    13.72226  1.67876  3.16127       0.14118         4170.66762  0.04352  0.01221     0.07333  10.75357     19.22482   6820.96483     -8.2688  0.35101  5052.40344  0.00932  59126.90307  52.01354   2.94847  19.89874  59207.49609 
    13.30835  1.48488  2.90886       0.04124         5779.77895  0.00233  0.01104     0.12281   8.75539     18.64576   9364.99748   -11.49009  1.07636  4137.36197  0.00246  59123.68179   51.8205   0.15123  20.03437  59220.74339 
    13.48159  1.91607  3.66346       0.36647         4891.45491  0.00465  0.01511     0.43771   5.19344     19.28685   3374.10903    -9.65357  1.49807    5158.583  0.01075   59125.5183  51.95827   0.26598  19.88865  59220.74339 
    13.69634  1.93712  3.68629       0.29277         2811.66958  0.09123   0.0212     0.40214    5.3702     17.70735   6801.96761    -12.0478  0.56932  6370.97956  0.00028  59123.12408  52.14528    5.2649  19.92638  59216.32762 
    13.72272  1.58593   3.2418       0.72615         5062.63787    0.003  0.02156     0.33749   2.16967     17.48049   9152.62877    -9.12426  0.38753   4148.5605  0.00017  59126.04762  51.66078   0.13398  19.82009  59203.08033 
    13.97365  1.84919  3.34943       0.57738         3392.00083  0.00748  0.01496     0.15018   6.66416     17.40167   7091.04095    -7.84863  0.22305  6073.34962  0.00014  59127.32325  52.12661   0.45504  20.08508  59233.99069 
    13.75916  1.69744  3.20935       1.46476         4242.03358  0.00219  0.02074     0.29446     2.756     20.10191   7955.87676    -5.73602  0.33421  4825.75636  0.07025  59129.43586  51.82455   0.10519  20.09275  59229.57492 
    13.29494  1.52321  3.02484       1.34426         2084.45662  0.00281  0.03845     0.35291   1.79691     19.37292   8213.29993   -11.40984  1.51872  3453.30053  0.01311  59123.76204  51.47406   0.11779  19.96546  59220.74339 
    13.31625  1.57744   3.1708       0.12141         2767.42797  0.00211  0.02348     0.28508   4.18429     18.13884   8567.04108   -11.23886  1.38768  4388.66512  0.00076  59123.93301  51.79349   0.11396  19.94764  59220.74339 
    13.40524  1.57092  3.02516       0.42052         2074.18321  0.00138  0.02616     0.37958   5.32192     17.81199   4671.38297   -12.13418   0.8729  5477.16877  0.00036  59123.03769    52.013    0.0796  19.97508  59225.15916 
    13.57822  1.85454  3.50275       0.89096         4091.41584  0.00124  0.02718     0.27622   3.16938     19.44105   3105.79473   -12.75123  0.66597  4163.38517  0.01534  59122.42064  51.71421   0.06196   19.7465  59198.66456 
    13.34759  1.61395  3.20499       0.11121          2911.5399  0.04677  0.01137     0.15182   9.46242     18.78232   8496.57174   -12.04164  1.32248  5026.16469  0.00337  59123.13023  51.99699   3.08249  19.85763  59211.91186 
    13.50822  1.59792  2.91928       0.08237         2768.00129  0.13048  0.01223     0.19905   9.65554     20.46281   5767.18197   -12.60426  0.62193  5167.05632  0.16127  59122.56761  52.02293   8.63693  19.85333  59207.49609 
    13.53101  2.01211  3.87863       1.36961         4033.09749  0.00326    0.012     0.18518   5.68932     17.96613    6004.9697    -7.30218  0.87192  5247.09193  0.00051   59127.8697  51.98294   0.19075  19.95782  59220.74339 
    13.39827  1.76149  3.24505       0.12725         4918.14893  0.00906  0.02767     0.49286   4.69597     17.99173   9472.52974    -7.99252  1.01632  8152.58319  0.00055  59127.17936  52.34461   0.50545  19.80689  59211.91186 
    13.70179  1.51399  2.92395       1.91688         5059.74647  0.00108  0.02396     0.16737   0.33093     19.12073   8103.23088    -7.98841  0.32798  1267.06346  0.00734  59127.18347  50.22196   0.01879  19.79821  59189.83303 
    13.41154  1.94211  3.40447       0.14848         3836.90762   0.1537  0.01127     0.36889  12.29267      20.5212   9685.86334    -8.86015   1.4572  8239.83582  0.18447  59126.31173   52.4506   10.7109  19.77627  59211.91186 
    13.44833  1.75027  3.20882       0.00895         5532.22213  0.00268  0.03118     0.40372   4.12953     18.77426   3669.99557   -13.94358  0.77481  6428.17799   0.0033  59121.22829  52.12347   0.14453  20.01679  59225.15916 
    13.23966  1.49073  2.96919       0.45668         2669.34218  0.00251  0.02031     0.25313   5.25894     17.44836   3882.86157    -9.93267   1.4412  5913.11778  0.00016  59125.23921  52.07822   0.14435  19.92474  59207.49609 
    13.50908  1.70739  3.41859       1.39164         4530.46909  0.00185  0.04348     0.30583   0.69029     17.58373   4012.95557    -9.02712  0.70775  2278.39513  0.00021  59126.14475  50.93866   0.05188  20.07162  59226.55078 
    13.40513  1.49495  3.13986         1.586         4652.07873  0.00727  0.03308     0.42228    0.4388     17.82848   6419.52152    -5.23796  0.98206  1698.24243  0.00037  59129.93391  50.56781   0.15622  19.91403  59211.91186 
    13.45408  2.00784   3.9004       4.23706         2991.26822  0.00211  0.02132      0.3376   3.65121     16.95811   6771.94564    -7.36236  1.45232  4278.50451    5e-05  59127.80951  51.75529   0.10987  20.06225  59232.51245 
    13.67541   1.6465  3.38672       1.52491         4024.45735  0.00278  0.02179     0.18449   2.41192     19.52233   6014.69686    -9.02194  0.48935  2429.19873   0.0185  59126.14993  51.21056   0.12815  19.95435  59198.66456 
    13.46797  1.87726   3.5265       0.42286         5470.27746  0.00247  0.03399     0.24148   1.71811     19.38743   9768.38582   -12.64596  1.16845  2772.35696  0.01356  59122.52591  51.27651   0.10173  19.75997  59176.58573 
     13.4377  1.67455  2.94958       0.21656         2541.33111  0.00297   0.0129     0.10134  10.65367     20.39366   6609.58055   -13.65341  0.86489   4726.6696  0.13753  59121.51846  51.95479   0.20088  19.94798  59216.32762 
    13.41681   1.6958  3.25964       0.40811         4737.82113  0.00333  0.03805      0.3573   1.68298     19.31543   6220.40329   -12.29045  1.42967  3631.27472  0.01149  59122.88143  51.50777   0.13626  19.89407  59198.66456 
    13.43168  1.55706  3.08965       0.89074         4509.32818  0.00262  0.03977     0.21713    1.3113     18.27071   6158.52743    -10.5521  0.85175  2466.03728  0.00104  59124.61978  51.13156   0.09763  20.00518  59216.32762 
     13.3403  1.50274   3.0771       2.49693         2373.64782  0.04594  0.01503      0.2374   7.73205     18.50728   7107.38272   -10.20247   1.0692  5481.78529  0.00179  59124.96941  52.05268    2.8935   19.9578  59220.74339 
    13.38913  1.49248  3.10069       0.90486         2385.57182  0.11424  0.01409     0.35112   7.79061     16.43648   6698.95184    -7.10393  0.80989  7651.52531    2e-05  59128.06795  52.34308    7.2071  19.95969  59207.49609 
    13.56051  1.74919  3.29027       0.99689         4558.67312  0.00149  0.05871     0.28349   0.87079      18.0878   3120.01301   -13.14256  0.62343  2326.66736  0.00068  59122.02932  51.00601   0.04687  19.85276  59220.74339 
    13.35358   1.7289  3.19934       2.43793         2132.88599  0.05456  0.01156     0.06841  11.59367     16.34644   8044.79317   -11.55084  0.96565  4991.32086    1e-05  59123.62104  52.00989   3.75577  19.96769  59229.57492 
    13.29731  1.47399  2.90226       0.83965         5458.86149  0.00452  0.02729     0.34662   0.87972     17.78788   7341.64963   -10.70686    1.552   2123.5392  0.00034  59124.46501   50.9287    0.1426  19.91187  59203.08033 
    13.31579  1.32492  2.74612       0.02111         2714.76172  0.00241  0.03618     0.42535   3.52538     16.01191   9150.63394   -10.14061  0.86584  5054.96698    1e-05  59125.03126   51.8959   0.12444  19.99586  59230.54947 
    13.77615  1.26352  2.67763        0.0373         5700.67238  0.00319   0.0195      0.2732    6.2917     16.38408   5661.67778    -8.42431  0.24499  6238.24971    1e-05  59126.74757   52.1439   0.19162  19.77713  59198.66456 
    13.29862  1.50607  3.03826       0.05895         4881.67025  0.22123  0.01001      0.0599  12.45138      18.4541    3942.7385   -11.43208  0.90112  4661.70124  0.00158   59123.7398  51.95701  15.45777  19.96382  59220.74339 
    13.70108   1.7366  3.31129        0.0893         4969.67763  0.01825  0.01106     0.20507  13.78431     17.27257   9727.51313    -13.4384    0.457   8388.9065   0.0001  59121.73347  52.47638   1.30233  20.09981  59225.15916 
     13.3824  1.95217  3.51657       0.70614         2326.59982  0.00816  0.01846     0.35111   6.81587     17.18295   8362.28144    -6.81817  1.28297  7710.03169    8e-05   59128.3537  52.33618   0.49907  19.74512  59203.08033 
    13.59863  1.75776  3.59027        1.7092         4700.27525  0.02323   0.0594     0.33907   0.36091     16.55504   5366.58903    -6.92634   0.6865  1600.72726    2e-05  59128.24553   50.4552   0.43356  19.97431  59225.15916 
    13.37932  1.81748  3.33159       0.52066         2254.83244  0.00359  0.02444      0.2557   5.18285     16.21397   4523.47848   -15.40684  0.99789  5389.06397    1e-05  59119.76504  51.99601    0.2055  19.89485  59211.91186 
    13.51203  1.86387  3.37115       0.13606         3041.85518   0.0037  0.01914     0.23006   6.10923     17.72921   4193.72953   -14.50015  0.68315  6268.82779   0.0003  59120.67173  52.14505   0.22031  19.87647  59203.08033 
    13.43086  1.58558    3.129       0.87029         4986.53907  0.00421  0.02129     0.46437   2.34498     19.93588   7366.12937    -8.22458  0.83936  4673.73525  0.04793   59126.9473  51.77511   0.19249  20.02272  59233.99069 
    13.40399  1.63961  3.22056         0.386         3172.18555  0.03682  0.01077     0.20316   9.51026     16.52512   9749.87499    -6.63712  0.95764  5839.60359    2e-05  59128.53475  52.12777   2.42902  19.75625  59198.66456 
    13.41958  1.75968  3.50047       0.02141         5478.57584  0.39409  0.01241     0.24437   9.06894     20.31007   8315.74425    -7.33592  1.06433  5513.08412  0.11345  59127.83596  52.07324  25.72872  19.96064  59198.66456 
    13.20678  1.57689   2.9163       0.07685         2201.12647  0.00859  0.02416     0.43013   5.31403     19.43078   5613.99826    -8.82063  1.44216  7667.08171  0.01498  59126.35124  52.30498   0.49465  19.83994  59203.08033 
    13.37288  1.60439   3.1735       0.10651         3305.12134  0.01145  0.03142     0.37338   2.11907     16.05348   5050.18282   -15.55278  1.17455  3587.68698    1e-05  59119.61909  51.53127   0.50659  20.02045  59220.74339 
    13.35631  1.49283  3.11312       0.19097         2406.95084  0.13758  0.01297     0.14864    8.9101     17.43244   4684.29583   -11.20898  1.03499  5095.20499  0.00015   59123.9629  52.00307   8.94694  20.04556  59220.74339 
    13.18524  1.67037  2.86714       0.21527         2389.23762   0.0668  0.01305       0.047  13.14174     17.19496   5640.03487   -19.83613  1.15775  4564.49618    9e-05  59115.33574  51.94353   4.71928  19.79746  59163.33843 
    13.36921  1.83243  3.39833       0.00105         3561.34999  0.28027  0.01944     0.14111   7.12017     19.61107   5395.58082   -11.40498  0.89441  5912.74606  0.02269   59123.7669  52.11011  17.31715  19.93661  59207.49609 
    13.36975  1.53199  3.19083       0.56658         2278.61901  0.35826  0.01034     0.08814  12.74431     19.50485   7116.55297   -15.59654  0.76221  4564.68309  0.01777  59119.57533  51.94083  25.15235  19.93104  59198.66456 
    13.78237  2.02803  3.70811       0.19232         2629.72064  0.03738  0.02059     0.32216   7.32135     16.22286   8881.01698   -10.61834  0.44307  8244.99841    1e-05  59124.55353  52.40174   2.32442  20.00675  59220.74339 
    13.33865   1.6955  3.20315       0.24445         2476.80401  0.05033   0.0121     0.16088   8.06146     18.00757   4839.09684    -8.71636  1.13596   5266.4752  0.00057  59126.45552  52.02201   3.19999  19.83615  59207.49609 
    13.28747  1.43106  3.01228       0.09717         2468.89857  0.27814  0.01835     0.26533   6.73426     17.10568   7876.32988   -11.54787  0.99632  5943.21281    7e-05  59123.62401  52.10887  16.96131  19.85339  59211.91186 
    13.43268  1.34869  2.80959         0.117         2016.42411  0.02522  0.01289     0.19713   9.35348     18.78205   5755.71798   -12.41004  0.59115  5820.72337  0.00336  59122.76184  52.12337   1.65772  19.92083  59211.91186 
    13.09992  1.61371  2.76061       0.01172         4873.62232  0.00175  0.01402      0.1398   8.15601     18.52605   3103.97569   -14.88293   1.4259  6617.72587  0.00187  59120.28895  52.22154   0.11165  19.98276  59220.74339 
    13.33392  1.84312  3.04989       0.15829         2121.32829  0.12199  0.01053     0.12149  10.37998     20.65304    7484.5758    -9.04455  1.36173  5281.83494   0.2499  59126.12732  52.04882   8.20252  19.72529  59189.83303 
    13.69554  1.72858  3.44688       1.24553         4844.29525   0.0189  0.05103     0.45874   0.54034     16.22145   4353.70433   -12.72192  0.51239  1963.17517    1e-05  59122.44996  50.75067    0.4631  19.94807  59220.74339 
    13.52076  1.70708  3.17515       0.56516         5140.11585  0.00139  0.04253     0.48388   1.34702      17.3861   7564.55869   -12.43128  0.72911    3776.841  0.00014   59122.7406  51.50632   0.05238  19.97533  59211.91186 
    13.35488  1.73872  3.04485       0.44578         2551.06251  0.00432  0.02038     0.31528   4.32067     20.35155   9417.25254   -14.20432  1.08289  5063.87753  0.12482  59120.96755   51.9215   0.23573  19.92155  59216.32762 
    13.32846  1.78431  3.21675       0.63695         2487.29765  0.00102  0.01069     0.06376  12.72332     16.22882   9077.00198   -12.68096   1.2713  4401.93537    1e-05  59122.49092  51.90915    0.0714  20.00606  59216.32762 
    13.19019  1.47488  2.86889       0.29582         4236.46495    0.001  0.01629     0.08179   6.06425     18.71533   4267.23868   -16.41064  1.55973  3495.22669  0.00288  59118.76124  51.63685   0.05955  19.93435  59226.55078 
    13.30062  1.98442  3.45377       0.98109         4378.58639  0.00627  0.03442     0.13037   2.49625     16.67326   3776.27736   -14.03614  1.27384  3128.11873    3e-05  59121.13573  51.43486    0.2923  19.63415   59181.0015 
    13.32548   1.6642  3.23765       0.01909         2946.28296  0.34273  0.01207     0.09829   9.95256     17.59856   8882.18718   -11.76475   0.9469  4858.61095  0.00022  59123.40713  51.97233  22.83657  19.77473  59207.49609 
    13.66167  1.66067  3.14584       0.40646         4668.79712  0.00223  0.04023     0.32241   1.17783     16.02565   3198.62984   -19.23531  0.46422  2702.12686    1e-05  59115.93657  51.19252   0.07993  19.78991   59194.2488 
    13.19815  1.50772  2.92819       0.22538         5115.53082  0.00204  0.04089     0.36371   1.60778     16.13736   8522.61114   -11.21525  1.36841  3885.13998    1e-05  59123.95663  51.55939   0.08231  20.06831  59228.51201 
    13.36264  1.79225  3.30988       1.27326         4629.05667  0.00172  0.08718     0.34585    0.4065     19.62316   5991.99139   -10.53848  1.37222  1751.06082  0.02333   59124.6334  50.57147    0.0351  20.00895  59225.15916 
    13.41922  1.97218  3.61808        0.4417         4608.61215  0.00106  0.03022      0.3652   2.07441     16.10653   7661.78187     -8.3586  1.26017   4243.0487    1e-05  59126.81328  51.67397    0.0465  19.81584  59211.91186 
    13.31346   1.4802  2.87157       0.13552          2003.7762  0.00114  0.02363     0.21056    3.8483     17.84758    5735.3429   -12.98708  0.96125  4373.44159  0.00039  59122.18479  51.78064   0.06019  19.87486  59203.08033 
    13.54892  1.85374  3.64014       0.69079         4572.47285  0.00109  0.01636     0.38267   4.88439     19.58983   3685.88511    -8.03758  0.94563  4820.43254  0.02161  59127.13429   51.8926   0.06165  19.88599  59216.32762 
    13.36125   1.7117  3.25579       0.65066         2370.67642  0.37951   0.0138      0.2399   9.29116     20.43694   8171.40127    -8.45052   1.0725   5828.3234  0.15194  59126.72135  52.12386  24.90975  19.91911  59220.74339 
    13.34742  1.84987  3.58792       0.78861         2635.45826  0.41615  0.01417     0.18316   9.91466     19.84028   3017.72213    -8.03282  1.01411  6288.86605  0.03846  59127.13906  52.19609  27.70588  19.83973  59189.83303 
    13.25583  1.99064  3.23044       0.22266         2476.84857  0.00753  0.01545     0.09601   7.91609      16.4552   6089.60617   -11.76452  1.56478  5608.07391    2e-05  59123.40736   52.0748   0.47656  19.69037   59194.2488 
    13.74782  2.14368  3.65461       2.16598         2049.62278  0.00415  0.02977     0.14787   5.69977     18.80629   4826.89882   -10.74231  0.50211  5336.85588  0.00356  59124.42956  51.99787   0.24279  19.92623  59203.08033 
     13.3335  1.43566  2.90823       1.35513           3125.508  0.00202  0.01417     0.19722    9.0378     18.85835    4570.6704    -9.44765  0.80842  6688.54034  0.00401  59125.72423  52.24078   0.13174  19.69765  59198.66456 
    13.48702  1.72951  3.31506       0.10188         4524.08245  0.00135  0.02066     0.35331   5.83614     17.35091    5394.2659    -5.49151   0.8703  6061.58108  0.00012  59129.68037    52.111   0.07943  19.86482  59207.49609 
    13.41316  1.95397  3.52893       1.23412         4945.64409  0.01554  0.06512     0.37928    0.2446     17.00262   7345.30897   -11.40114  1.34621  1706.80418    6e-05  59123.77074  50.35513    0.2026  19.88087  59207.49609 
    13.34425   1.7344  3.26069       1.86943         4857.88679  0.03371  0.02658     0.43557   0.19025     16.45032   3385.26155    -4.93585   1.2457  1265.95924    2e-05  59130.23603  49.95366   0.31693  19.99612  59211.91186 
    13.97545   1.7077  3.27861       0.05746         2292.84289  0.00127  0.06245     0.47208   1.70749     16.10554   7834.82492   -16.52634  0.21688  4121.94248    1e-05  59118.64553  51.62007   0.05232  19.88765  59203.08033 
     13.4232  1.70613  3.07196       0.62544         5172.61749  0.04129  0.01463     0.18055   6.15263     17.46052   9467.29283    -7.19901  0.66825  5972.15554  0.00016  59127.97287  52.10369   2.46398  19.85212  59207.49609 
    13.40377  1.84448  3.52188       0.59594         4591.59569  0.00938  0.03253     0.46401   1.91119     19.72305   7026.84187   -11.08788  1.40906  4056.17908  0.02936  59124.08399  51.62297   0.40105  19.93858  59207.49609 
    13.45754  1.86086  3.40497       1.15163         5671.39698  0.00149  0.01646     0.18516   1.03658     16.64496    7616.0036    -7.77198  1.22304  1900.00062    2e-05  59127.39989  50.86359   0.05041  19.92318  59203.08033 
    13.15261   1.6957  2.99388       1.97394         4711.69132  0.00104  0.08037     0.48599   0.11483     19.32868   9486.20669      -5.526  1.53505  1543.86408  0.01184  59129.64588  49.47513   0.00218  19.76697  59203.08033 
    13.63656  1.81156  3.31467       0.06926         5960.30317  0.00256  0.01163     0.19741   8.34412     20.09725   3982.14941   -12.57682   0.6254  5250.60854   0.0695  59122.59505  52.02278   0.16391  19.93892  59211.91186 
    13.78206    1.716  3.41181       2.96606         4184.56471  0.00112  0.01777     0.14446   1.06447     18.25577   7665.64992    -5.95204  0.29158   2272.4676    0.001  59129.21984  51.02396   0.03834  20.05073  59233.99069 
    13.40177  1.68244  3.10121       0.27403         2298.08547  0.01794  0.01819     0.30233   9.61448     18.40694   5492.43807   -10.39977  0.76821  7558.39714  0.00142  59124.77211  52.35289    1.1865  19.90077   59194.2488 
    13.40513  1.82665  3.49489       1.48247         4872.61247   0.0056  0.01048     0.09026   1.20871     16.38931   7695.63309    -7.57459  1.20467  1610.55213    1e-05  59127.59728  50.74758   0.20241   19.7753  59185.41726 
    13.26124  1.73398  3.09727       0.07134         3854.84202  0.00221  0.03411     0.21579   2.62175     17.93068   9415.45122   -13.31591  1.44401  4303.52957  0.00047  59121.85597   51.7185   0.10476  20.01163  59220.74339 
    13.72746  1.61784  3.16013       0.39389         3145.20593  0.00462  0.05098     0.38774   2.59422     18.98819   5244.87945   -13.55885   0.3913  4929.87204  0.00541  59121.61303  51.83512   0.21821  19.88445  59185.41726 
    13.39313  1.73451  3.33178       0.45154         2529.72626   0.0356  0.01613     0.22199   7.13569     19.15373   9649.48604    -9.11256  1.25988   5493.6434  0.00792  59126.05931  52.04647   2.20053  19.86816  59207.49609 
    13.19479  1.50805  2.73651        0.6129         4537.66249  0.00166  0.01216     0.18543   6.04633      20.3719   5989.75929    -9.95711  1.53169   4793.5108  0.13081  59125.21477  51.91089   0.09849  20.03331  59232.51245 
    13.80229  1.91754   3.6575       0.78483         2573.43864  0.01065  0.02183     0.41921   5.89976       16.638   9331.17695    -8.04051  0.43311  6567.85874    2e-05  59127.13137  52.18183   0.62915  19.83461  59211.91186 
    13.39382  1.29484  2.71026       0.79503         3711.79559  0.00323  0.01913     0.30158   4.27788     16.76789   6793.63829     -6.0518  0.63862  5360.63107    3e-05  59129.12008  51.96982   0.17603  19.90429   59194.2488 
    13.48464  1.51732  2.44318       0.06713         5821.93203   0.0019  0.02041     0.21413   6.69648     17.58526   7177.19457    -9.76806  0.31253  8452.85964  0.00021  59125.40381  52.41426   0.11588  19.96363  59225.15916 
    13.23613  1.53059  3.02579        0.4954         4001.02933  0.00539  0.01296     0.17095   7.61816     16.18606   3499.03979    -8.50058  1.42445  5783.55568    1e-05  59126.67129  52.09774   0.33861  19.86719  59203.08033 
    13.19723  1.38649   2.7001        0.2686         2863.88846  0.00199  0.01384     0.04882   7.91009     18.54334   3580.84653   -18.80906  1.33305  3502.11466  0.00194  59116.36282  51.66576   0.12589  19.98692  59228.51201 
    13.23519  1.55323  3.14477       0.22675         4399.67358  0.26695  0.01331     0.07494  10.64888     18.96643   4225.57588   -12.43621   1.4127  4433.54545  0.00514  59122.73567  51.89914  18.04817  19.94943  59220.74339 
    13.21126  1.62766  2.97826       0.41299         5667.03818  0.00306  0.01031     0.12346   7.38638     16.80442     5801.067   -10.95553   1.4044  5458.75839    4e-05  59124.21635  52.04443   0.19096  19.96767  59228.51201 
    13.63578  1.84829  3.45247       0.17337         4133.81741   0.0017   0.0298     0.30077    2.2165     16.31308   4074.32342   -10.33621  0.77628  3501.67454    1e-05  59124.83567  51.51653   0.07636  19.82621  59203.08033 
    13.14481  1.59825  2.90842       0.85548         3381.78805  0.00103  0.01442     0.10862   8.92037     18.27748   8847.15095    -8.73032  1.43423  4875.34827  0.00105  59126.44155  51.96487   0.06705  20.01185  59216.32762 
