 texplosion  fnickel    Pspin  log(Bfield)      Mns  thetaPB   mejecta    kappa  kappagamma      vejecta  temperature    alpha  cutoff_wavelength  log(nhhost)      A_V         MJD0  kenergy  mnickel            TSD   log(L0)  Peak_mag     Peak_MJD  log(E_rad)  log(Peak_lum)  Rise_Time    E_fold  tau_1  delta_m15     r_peak     frac 
   -8.77891  0.01146  4.84599     14.19585  1.69461  1.04905   8.28456  0.14006     0.33133   8612.12258   4791.38674  0.38925         4480.23202     17.64794  0.00025  59025.42109  3.66536  0.09495  1499544.45691  44.95119  18.33436     59079.18    50.80558       43.97728   34.53592  46.79895   45.5    0.19382  -20.85256  0.98783 
   -7.38736  0.00245  3.25525     14.15125  1.55815  1.12342   6.04189  0.17385     0.07183   6546.80003    7314.7726  0.60284         5973.89162     20.55724  0.20043  59026.81264  1.54475  0.01482   764017.81523  45.55318  18.33194     59079.18    50.84917        44.0605   33.88552  46.13328   45.5    0.17624  -21.05906  0.99903 
   -8.25486  0.05941  5.05154     14.41138  1.90198  0.71231   5.77344   0.1764     0.10532   7962.38127   5097.73159  0.28804         5498.90198     18.83923  0.00384  59025.94514  2.18347    0.343   677804.50483   45.3101  18.32628     59079.24    50.80647       44.00284   36.27331  46.79895   46.5    0.19184  -20.86996  0.96101 
   -10.5956  0.07312  5.71626     14.03256  1.88458  1.06774   5.57846  0.18377     0.02616   9415.99853   5292.40608   0.6989          3519.1928     17.39107  0.00014   59023.6044  2.95036  0.40791  4921804.23562  44.33771  18.31084  59080.30643    50.76315       43.96483   40.27561  48.35028   43.5    0.21169  -20.91579  0.93883 
   -8.78653  0.00844   4.0885     14.03028  1.35771  1.02642   4.76164  0.20905     0.18063   9042.93007   4849.53431  0.02458         4323.36523     18.11613  0.00073  59025.41347  2.32275  0.04017  1833088.41212  44.91534  18.30514  59077.65177    50.82783       44.00259   34.53592  46.04789   45.0    0.21497  -20.85702  0.99484 
   -9.22911  0.00631    5.103     14.26792  1.73998  0.80358   5.41122  0.21897     0.16648   9301.70922   5085.74214  0.23285         4706.92934     16.44509    2e-05  59024.97089  2.79285  0.03412  1225109.00889  45.00556  18.32181     59079.18    50.80937       44.03018   32.23352  46.04789   44.5    0.20996    -20.869  0.99528 
   -8.74533  0.04017  4.37117     14.39708  1.62827  0.53588   3.99623  0.33071     0.22432   9774.49818   4777.87663  0.11697         3579.84675      20.2102  0.09014  59025.45467  2.27755  0.16051   464060.86971   45.5328  18.32917  59082.24988    50.77229        43.9717   39.14071  48.35028   43.5    0.20222   -20.9458  0.98236 
   -9.28167  0.18569  5.15499     14.16719  1.62974  0.85909   3.01511  0.29677     0.27596   8957.24446   4014.70762  0.22565         5822.45481     19.86988  0.04117  59024.91833  1.44304  0.55988  1862113.39429   44.7865  18.33178  59077.65177    50.78078        43.9697   34.53592  46.04789   50.0    0.21016  -20.91207  0.91912 
   -9.35819  0.08076  3.86964     14.08913  1.28926  0.84873   3.67538  0.28398     0.46062   8527.28517   4967.81673  0.15966         3389.87078     18.32806  0.00118  59024.84181  1.59423  0.29681  1189150.26192  45.12861  18.33967     59079.24    50.79387       43.97862   34.53592  46.79895   46.0    0.20537  -20.81495  0.96435 
    -8.5528  0.04379  4.09599     14.33832  1.40748   0.4564   5.13671  0.19507      0.0688   8776.34112   5220.53341  0.48158         2217.04679     19.67318  0.02618   59025.6472  2.36015  0.22494   461679.81373  45.52823  18.34851      59079.2    50.79262       43.98191   34.53592  46.79895   45.5    0.19617  -20.87826  0.97315 
   -9.59732  0.01612  3.96829     14.05635  1.51132   1.1697   3.41299  0.25467     0.42644    7857.6832   5103.58216  0.07942         5328.05868      20.2099  0.09008  59024.60268  1.25705  0.05501  1704807.88649  45.01932  18.29957     59079.24    50.83889       44.05762   33.97091  46.04789   48.0    0.20186  -20.89221  0.99435 
    -8.9182   0.0139  4.13533     14.09949  1.74503  1.39871   5.50421  0.16675      0.4686   7947.26206   4892.23522  0.48675          4870.4368     20.77768  0.33297   59025.2818  2.07375  0.07653  1752478.12729  45.03397  18.41384  59077.65177    50.80304       43.99937   34.38114  46.20267   48.0    0.19543  -21.11865  0.99314 
   -8.69263  0.03123  4.68044     14.38548   1.4682  0.40914   4.42849  0.25875     0.33353  10248.17012   4598.80363  1.92802         2052.31941      19.4097  0.01427  59025.50737  2.77444  0.13831   506065.69628  45.39085  18.35999  59076.00873    50.81648       44.03809   32.07874  41.59788   45.5    0.21519  -20.89191  0.97951 
   -9.07236  0.01986  5.03241     14.15594  1.77234  1.36727   5.94607  0.20088     0.31041   9202.09466    4813.5583  0.29438         2921.89763     17.04746    6e-05  59025.12764  3.00352  0.11811  2032532.38917   44.8058  18.32634  59077.65177    50.81466       43.99049   34.53592  46.04789   45.0     0.2028  -20.84777  0.98476 
   -8.96604  0.00118  4.82794     14.13367  1.68294  1.34864   4.31042  0.26355     0.31991   9496.02797   5975.82254  0.09652         4030.39557     19.01327  0.00573  59025.23396  2.31863  0.00507  1968207.94058  44.83332  18.30256     59079.18    50.81865       44.03517   32.07874  43.90027   45.0    0.21184  -20.86432  0.99934 
   -8.93594   0.0145  4.51709     14.20078  1.67331  1.03229   6.02932  0.20972     0.29046   8455.68728   5495.06539  0.26345         5022.78377     19.42166  0.01467  59025.26406  2.57154  0.08745  1257593.87182  45.08316  18.35457  59077.65177    50.81726        44.0259   33.97091  46.04789   46.0    0.18559   -20.8628  0.99008 
   -8.77927    0.087  4.87035     14.14461  1.62582  1.27916   4.06561  0.25692     0.32632   8433.32074   4908.98813  0.31596         5799.87092     16.12731    1e-05  59025.42073  1.72484  0.35369  1839875.23711  44.84001  18.35287  59077.65177    50.78446       43.96537   36.24729  46.79895   45.5    0.20863  -20.85537    0.953 
   -8.70174  0.03406   4.2811     14.06275  1.49124  1.55748   5.49555  0.21364     0.17012    9433.8028   5450.15697  0.00406         4755.28104      17.7619  0.00032  59025.49826  2.91751  0.18715  1900944.11229  44.90031  18.33989  59080.30643    50.80586       43.98132   34.53592  48.35028   44.5     0.2176  -20.86328  0.97759 
   -7.93541  0.00278  3.46584     14.30802  1.50885  0.70462   3.82089  0.33242     0.18965   8311.95465   5776.97844  0.00023         3922.98389     17.51853  0.00018  59026.26459   1.5747  0.01061   407411.86832  45.75784  18.30615     59079.24     50.8002       44.02139   37.97322  46.04789   43.0    0.19972  -20.83648  0.99917 
   -8.38754  0.04061  3.63188      14.1511  1.47394  1.11099    4.8376  0.29159     0.20514   8650.52599    5479.6652  0.14641         4580.21252     17.68141  0.00027  59025.81246  2.15945  0.19644   900249.60973   45.3627  18.31763  59077.65177    50.83699       44.03331   33.88552  46.13328   44.5    0.18539  -20.86073  0.98279 
    -8.3949  0.01794  4.08418     14.06716  1.56729  1.32192   4.55744  0.25143      0.1386    9732.4816   5288.67211  0.01627         3698.76317      20.2357  0.09559   59025.8051   2.5751  0.08175  1781809.55986  44.99092  18.32023     59079.18    50.81899       43.99756   36.27331  46.79895   44.0    0.21058  -21.01257  0.99161 
   -7.40095  0.01525  3.92418     14.54082  1.56778  0.41459   8.51548  0.15204     0.36034   8581.71283   5423.62348  0.22445         5938.16169     17.71643  0.00029  59026.79905  3.74097  0.12985   185760.21938  46.00768  18.32266  59077.65177    50.82403       44.02519   32.23352  43.74549   43.0    0.19269  -20.89387  0.98783 
   -9.69175  0.17838  5.07322     13.98149  1.51007  0.83463   5.15157  0.17624     0.02286   9334.66984   5062.13044   0.7926         3631.98366      16.1949    1e-05  59024.50825  2.67772  0.91893   3930086.8297  44.44287  18.35413     59079.18     50.9018       44.11233   32.07874  43.90027   42.0    0.22184  -20.90994  0.86118 
   -8.94873   0.0068  5.21595     14.31796  1.64778  0.63183   4.99063  0.26886     0.16422   9954.86922   4882.58818   1.4544           2804.268     18.31618  0.00115  59025.25127  2.95022  0.03394   962628.63471  45.06762  18.35664  59077.65177    50.81223       43.99018   36.27331  46.95173   44.5     0.2039  -20.81584  0.99468 
  -10.51017   0.0297  5.37346     14.36071   1.7412  0.50016   6.82798  0.14697     0.06032   9331.33001   4650.19654  0.37208         2753.61912     17.91345  0.00046  59023.68983  3.54655  0.20279   886657.52818  45.10143  18.33664  59077.65177    50.81332       43.96562   36.48742  48.13617   48.5    0.19145  -20.85938  0.96943 
    -8.1799  0.01026  4.20907     14.20482  1.63969  1.04174   5.98474  0.18606      0.3977   8552.74287   5410.52473  0.07398         5912.04522     19.16574  0.00814   59026.0201  2.61146  0.06138  1050274.80642  45.21393  18.33237  59077.65177    50.81337       44.00677   32.23352  46.04789   43.5    0.20545  -20.86508  0.99376 
  -10.41036  0.04149  4.82693     13.86534  1.45939  1.48285   4.94735  0.21094     0.03739   9552.36231   4873.05993  1.19294         2500.22522     16.62311    2e-05  59023.78964  2.69291  0.20524   5870096.0815  44.29703  18.31965     59079.24    50.78912       43.96767   34.75004  50.43856   43.0      0.205  -20.85096  0.96714 
   -9.39809  0.02508  5.46466     14.29005  1.99944  1.28807   4.87423  0.29785     0.29798   9302.03521   5628.30739   0.2468         5592.19517     16.82049    4e-05  59024.80191  2.51587  0.12223  1457973.18359  44.93088  18.31792     59081.14    50.77651       44.00957    38.5757  43.74549   45.5    0.19449  -20.84368  0.98454 
   -9.70243  0.10058  4.72969     13.94815  1.54012  1.33683   4.34343  0.16887     0.03871   8488.44871   5110.46707  0.16439         2751.52386     17.75749  0.00032  59024.49757  1.86688  0.43685  4061945.64346    44.498  18.25899  59080.30643    50.76808       44.00982   39.14071   41.4431   46.0    0.19564   -20.8737  0.94041 
   -8.24386  0.02006  4.38011     14.22245  1.50966  0.80441   5.24521  0.22301     0.31774   9394.23147   5647.89137  0.14269          4269.7029     17.10697    7e-05  59025.95614  2.76129  0.10521   965530.91419  45.17999  18.31859  59077.65177    50.85984       44.03671   34.53592  48.35028   44.0    0.21855  -20.85715  0.98693 
   -9.39286  0.05358  4.50173     14.11807  1.59134  1.06835   6.67157  0.15351     0.12873   9137.19184   5254.41469   0.1042         4718.42054     20.26301   0.1018  59024.80714  3.32262  0.35746  1738625.17627  44.92364  18.33312  59080.30643    50.72285        43.9223    42.2389  47.55448   47.0    0.20813  -20.93851   0.9578 
   -9.35613  0.07456  4.66156     14.03543  1.50608  1.44671   4.55166  0.23838     0.42358   9461.29319   4914.71186  0.22335         4221.95706      19.8718  0.04136  59024.84387  2.43051  0.33937  2581406.01319  44.69777  18.38941     59079.24    50.78277       43.99195   34.53592  48.35028   46.0    0.21042  -20.88782  0.95345 
   -8.17364  0.01531  4.59946     14.36814  1.66404  0.60415   7.52314  0.14111     0.16279    8230.3582   5397.02446  0.35673         5169.13001     19.64443   0.0245  59026.02636  3.03993  0.11521   599953.07759  45.38648  18.33377     59079.18    50.75877       43.95331   36.48742  48.13617   45.5    0.19874  -20.89627  0.98637 
   -9.01889  0.02131  4.23645     14.09821  1.46661  1.03386   5.76154  0.22145     0.31233   9525.41694   4946.51981  0.17593         3148.06264     19.40691  0.01418  59025.18111  3.11841  0.12276  1554976.98872  44.98943  18.29653     59081.14    50.76728       43.96786   39.62791  47.86308   44.0    0.19759  -20.88509  0.98511 
   -7.87305   0.0049  4.71699     14.35297  2.05886  0.97842   5.63744  0.17056     0.18878   8187.56874   6419.50028  0.10434         3073.04222     20.00885   0.0567  59026.32695  2.25434  0.02761   837202.95777  45.31231  18.31884  59077.65177    50.78827       44.00085   32.23352  46.04789   45.0    0.21475    -20.885  0.99748 
   -8.23832  0.08211  5.68164     14.43141  1.81884   0.4289    3.0721  0.32388     0.05593   8868.92002   5748.24821  2.86584         2928.71082     19.34148   0.0122  59025.96168  1.44146  0.25226   747716.31658  45.14596  18.34362  59077.65177    50.82163       44.03329   33.81613  43.90027   46.0    0.19505  -20.89196  0.96037 
  -10.37261  0.02668  5.28626     13.98117  1.71198  1.55956   4.88422  0.23023     0.04702  10247.04534   5473.73132  0.17542         4167.25732     18.27237  0.00104  59023.82739  3.05928  0.13033  4844756.96126  44.37077  18.36037     59079.24    50.80163       43.97731   32.23352  49.31832   43.5    0.20414  -20.93523  0.98014 
    -7.8486  0.02516   5.8192     14.33359  1.96975  0.85788   6.74602  0.11798     0.14648   8133.92521   4841.19376  0.39063         5957.32939     16.95568    5e-05   59026.3514  2.66241  0.16973  1332811.09877  44.90876  18.31964     59081.14    50.82663       44.02193   32.23352  48.35028   46.5    0.22398  -20.88253  0.97518 
   -9.50868  0.01149   4.7862     14.12697  1.62701  1.04794    7.9467  0.14117     0.08165   8967.25731   5053.36008    0.089         4306.61923     17.67706  0.00026  59024.69132  3.81183  0.09134  1928642.02514    44.835  18.27681  59080.30643    50.77577       44.01093   39.14071  43.74549   46.5    0.19899  -20.84451  0.98781 
   -9.72542  0.02061  4.69939     14.25246  1.61101  0.75872   5.50882  0.20502     0.29405   8995.05441   4998.79054  0.10951         2058.53255     17.92157  0.00046  59024.47458  2.65885  0.11356  1032940.20484  45.11779  18.31812     59079.24    50.84915       44.04071   33.97091  46.04789   45.0     0.2018  -20.81215  0.98526 
   -9.23949  0.01875  5.17632     14.27596  1.58404  0.59757   5.74611  0.22734      0.1371    9167.9373    4747.5658  1.08646         4311.14942     18.99919  0.00555  59024.96051  2.88101  0.10774   1105856.4438  44.99687  18.33581     59079.18    50.84361       44.01787   34.53592  48.35028   48.0    0.17951  -20.87714  0.98247 
   -9.83823  0.05751  4.74367     14.22593   1.7383  0.89825   5.38714  0.22278     0.07991   8750.03966   4750.06929  0.10369         3297.40429     19.11294  0.00721  59024.36177   2.4604  0.30981  1283218.20042  45.04844  18.31735     59079.18    50.82154       44.04503   32.07874  43.90027   46.5    0.18232  -20.87425  0.96421 
   -9.14306  0.00371  5.11026      14.1508  1.73799  1.15071    5.7474  0.18287     0.18876    9379.5162   4898.26765  0.11114         3363.90473     18.74166  0.00306  59025.05694   3.0162  0.02133  2104498.72972  44.76886  18.35022     59079.18    50.76742       43.93323   34.64596  50.54264   45.5     0.2095  -20.85482  0.99703 
   -8.40322  0.00907  4.95679     14.18817  1.72371  1.11376   6.15332  0.16841     0.48617   8353.42402   5018.75389  0.30104         5575.18651     17.14004    8e-05  59025.79678  2.56133  0.05584  1653265.77216  44.89657  18.33536  59077.65177    50.80812       44.02556   32.23352  43.74549   45.0    0.19945  -20.85988  0.99266 
   -8.46537  0.06372  5.13885     14.17811  1.79867   1.2546   4.08268    0.281     0.11033   9128.27896   4946.83772  1.08552         2234.66046     17.76996  0.00033  59025.73463  2.02932  0.26015  1942088.23309   44.8138  18.30414     59079.18    50.75702       43.97154   36.48742  48.13617   45.5    0.19231  -20.84891  0.96639 
  -10.52442  0.05968  4.85412     14.17902  1.55882  0.66732   4.99024  0.27981     0.04727  10332.70411   5411.08905  0.76265         2405.71254     17.37116  0.00013  59023.67558  3.17817  0.29783  1495532.65275  44.91463  18.29988     59079.24    50.77111       44.00076   39.14071  43.74549   43.0    0.19403  -20.91571  0.95734 
   -8.83367   0.0099  4.27142     14.31896  1.76211  0.77325   7.52011  0.13265     0.18511   8181.42725   5537.18462  0.17105         4225.74122     20.34545  0.12308  59025.36633  3.00268  0.07447   687178.87695  45.41666  18.30754  59080.30643    50.82405       43.99508   34.53592  48.35028   45.0    0.20423  -20.91214    0.993 
   -9.23644  0.03017  3.30651      14.1163  1.14855  0.66342   5.39594  0.25996     0.15933   8944.48583   5061.45096  0.02453         5084.90035     18.34892  0.00124  59024.96356  2.57517  0.16281   682517.97881  45.45614  18.34603  59080.30643    50.84102       44.02938   32.07874  46.20267   44.5    0.19163  -20.83495  0.98275 
   -9.80585  0.00542  5.11077     14.10046  1.71996  1.35065   3.37274  0.33959      0.1963   9275.53845   5585.24691  0.29389         3544.39831     19.85987  0.04023  59024.39415  1.73097   0.0183   2626493.2296  44.66802  18.33618  59080.30643     50.8167        43.9701   34.75004  50.43856   48.0     0.2003   -20.8569  0.99741 
  -10.22766   0.0321  3.67772     14.02978  1.20768  0.79029   4.61423  0.27947      0.1549   8957.61152   4939.39045  0.13305         4368.92891     19.80785  0.03569  59023.97234  2.20857  0.14811  1322405.32645  45.09828  18.32657  59077.65177     50.8109       44.02504   32.12719  43.85183   46.5    0.18403  -20.86847   0.9819 
   -8.41197  0.01159  3.42641     14.34486  1.25685   0.4327   4.94833  0.26032     0.45621   9025.51763   5672.13123  0.00279         4429.90146     16.73988    3e-05  59025.78803  2.40453  0.05733   279937.68193  45.85139  18.33516  59076.00873    50.82285       44.05347   29.93113  43.74549   44.0    0.20028   -20.8653  0.99424 
   -8.53354  0.00136  5.24886     14.18872  1.83645  1.19776   5.52852   0.1819     0.11916   8790.35828   5188.00294  0.19523         4628.63931     16.21181    1e-05  59025.66646  2.54829  0.00753  1970081.03629  44.79821  18.33054  59077.65177    50.79998       43.96933   34.53592  47.01592   45.5    0.20466  -20.85134  0.99898 
   -8.64385  0.01916  4.12002     14.18547  1.52434  0.93752   5.67776  0.25419     0.46012   9589.15163   4939.66047  0.01257         2916.77614     17.67292  0.00026  59025.55615  3.11433  0.10879  1022727.59457  45.21237  18.31531     59079.24     50.8188       43.99419   36.27331  47.01592   43.0    0.20544  -20.86931  0.98823 
   -8.40872  0.00667  3.89273     14.66691  1.55136  0.28489   4.54742  0.30955     0.14477   9140.88222   5759.43212  0.02151          5185.8931     19.41263  0.01437  59025.79128  2.26656  0.03034   101207.88789  46.27384  18.34247     59079.24    50.79194       43.95959   36.48742  50.43856   44.0    0.19599  -20.87554  0.99713 
    -8.1065  0.01394  4.48894     14.17085  1.63538  1.13912   6.40434  0.20674     0.34159   9389.10656   5361.07143  0.71443         2304.33422     17.18985    9e-05   59026.0935  3.36783  0.08928   1393204.6071  45.03416  18.29702     59079.18    50.74634       43.96001    38.5757  46.04789   44.5    0.19713  -20.85677  0.98965 
   -9.21716  0.00242  4.35497     14.17094   1.5878  1.01346   3.98862  0.28348     0.38151   8886.72858   5112.05801  0.11268         2208.46585     18.66327  0.00256  59024.98284  1.87903  0.00964    1272634.836  45.08697   18.3557  59077.65177    50.83333       44.04657   33.81613  43.90027   43.5    0.20985  -20.83671  0.99889 
  -10.57956  0.00811  5.13395     13.99389  1.68484  1.37175   5.12572  0.21445     0.04734   9735.48216   5478.82586  0.17192         3440.59179     19.58138  0.02119  59023.62044  2.89799  0.04158   4241354.4504    44.447  18.33578  59077.65177    50.78225        43.9416   36.83831  48.35028   45.0    0.19841  -20.90577  0.99382 
   -7.88235  0.01404  4.10886     14.09393  1.44433  1.17938   6.55402  0.20383     0.11061   9020.65037   5426.10093  1.42316         2226.43935     18.89314  0.00434  59026.31765  3.18134  0.09203  1469160.70141    45.034  18.32695  59077.65177    50.78886       43.96374   34.53592  46.79895   45.5    0.19275  -20.80882  0.98924 
   -7.98651  0.01592  3.34869     14.36106  1.42202  0.51022   3.81809  0.25807     0.12184   7018.47798   6201.44434  0.34414         5713.04947     20.25464  0.09985  59026.21349  1.12191  0.06078      280776.19  45.92364  18.34705     59079.18    50.82347       44.00804   33.97091  46.04789   46.0    0.19042  -20.92126  0.99516 
   -8.51277   0.0084  4.73973     14.53968  1.51119  0.30125   5.34556  0.20911     0.23961   9155.39901   4801.77488  0.51088         4441.76794     18.45509  0.00158  59025.68723  2.67285  0.04488   262593.21423  45.67737  18.36127  59077.65177     50.8093       43.98511   34.53592  48.35028   46.0     0.2015  -20.89259  0.99338 
  -11.04749  0.01371  5.32585     14.04376  1.78692  1.45578   5.74941  0.29066     0.03199   9347.78546   5785.76013  1.66609         3254.15511     17.27284   0.0001  59023.15251  2.99687  0.07885  3847452.78282    44.483  18.31512  59080.30643    50.82121       44.03401   33.97091  48.35028   45.0    0.17837  -20.86488  0.98854 
   -8.51919  0.01003  4.37741     14.17983  1.57268  0.94686   5.01929  0.26814     0.37755   9308.43775   5639.23429  0.29675         3327.40974     17.11884    7e-05  59025.68081  2.59432  0.05032  1222460.20651  45.09582  18.29992     59079.24    50.78684       43.96356   36.83831  48.35028   45.5     0.2015  -20.87058  0.99408 
   -8.24074  0.01302  4.79624     14.73267  1.93724  0.28594   5.00868  0.21047     0.26017    8976.5987   4431.73133  0.47523         2546.03094     20.35905  0.12699  59025.95926  2.40754  0.06523   141728.95316  46.04277  18.35949     59079.24    50.82851       44.01547   32.23352  46.04789   46.0    0.20052  -20.97612  0.99327 
   -9.03456  0.00145  4.97098       14.142  1.73267   1.4668   5.50771  0.19005       0.453   7674.16626   4347.60305    0.442         5439.37445     19.08492  0.00676  59025.16544  1.93491    0.008  2067329.67826  44.79927  18.36801  59077.65177    50.96889       44.21246   27.62873   41.4431   47.0    0.18359   -20.8351  0.99895 
   -8.66851  0.01034  4.92465     14.14127  1.71699  1.48387   4.37634  0.32833     0.28178  10309.11645   5170.72498  0.16998         3568.64177     16.89539    4e-05  59025.53149  2.77447  0.04526  2017369.13028  44.81408  18.36394     59079.18    50.82874       44.03028   34.38114  46.20267   43.5    0.21294   -20.8871  0.99409 
   -8.99987  0.01735  3.67782     14.36941  1.54831  0.48802   4.69002  0.21799     0.35283   8832.47631   5050.52002  0.02894         2714.92902     20.52719  0.18703  59025.20013  2.18256  0.08139   354840.33129  45.77749  18.32787  59077.65177    50.80458       44.01359   32.07874  43.90027   45.0    0.21161   -21.0289  0.99311 
   -9.90078  0.00179  4.03557     14.13753  1.35446   0.7222   4.06179  0.23923     0.12434   7794.43734   4899.14707  0.25844         4453.21287     17.86309  0.00041  59024.29922  1.47202  0.00727  1087252.98619  45.15247  18.33165     59079.18    50.82127       44.01247   33.97091  46.04789   48.0    0.18843  -20.80511  0.99908 
    -9.1613  0.12634  5.55299     14.37635  1.89829  0.65456   6.41032  0.16068     0.02916   9237.71856   5509.18703  0.05204         3615.19088     16.45472    2e-05   59025.0387  3.26315  0.80988   960570.02794  45.07563  18.34172  59080.30643    50.79906       43.99691   34.53592  47.01592   43.0    0.21043  -20.89327  0.89518 
   -7.82411  0.01579  4.31809     14.38726   1.7052  0.65405    11.957  0.09293     0.07042   7898.85944   4909.95805  0.24777         5750.74854     16.23493    1e-05  59026.37589  4.45019  0.18879   496190.75728  45.53439  18.31394     59079.24    50.78231       43.99629   37.05243   46.8018   45.0    0.19462  -20.87504  0.98119 
   -9.59636  0.29772  6.46011     14.03419  1.89536  1.36904   6.30419  0.15316       0.027  10443.23167   4866.05476  1.19205         2107.09305     18.45217  0.00157  59024.60364  4.10135   1.8769  6274895.45463  44.12845  18.29485     59079.18    50.77735       43.96992   34.75004  48.13617   43.0    0.21126  -20.92114  0.72459 
   -8.79853  0.03623   5.2066      14.3053  1.93317  0.94061   4.24225  0.32459     0.24639   9801.60299   4749.54872  0.10898          2164.8676     17.50109  0.00018  59025.40147  2.43119   0.1537  1192867.61181  45.04542  18.34531     59079.24    50.81171       44.00487   32.23352  48.35028   44.0    0.20251  -20.88787  0.98146 
  -11.34342  0.02313  3.65553     14.15463   1.0975  0.34476   4.78527  0.22399     0.03655   8773.50882   5165.21743  0.20913         3762.01222     17.47709  0.00017  59022.85658  2.19726   0.1107   668127.38341  45.35849  18.34924     59079.18    50.79734       44.00002   34.53592  48.35028   44.5    0.18308  -20.87615  0.98424 
   -7.34762  0.03643  3.41891     14.25809  1.63269  0.81445   9.39222  0.10673     0.39874    8256.7739   6273.01569  0.27545         2480.55371     20.51924  0.18364  59026.85238  3.81959  0.34217   539907.78186  45.68165    18.335     59079.24    50.82895       44.01588   33.97091  48.35028   46.0    0.20724  -21.01712  0.97736 
   -8.38942  0.06431  4.05267     14.07395  1.42797  1.23026   5.51563  0.23045     0.40807   9386.71268   4798.00863   0.0256         2767.47046     17.12805    7e-05  59025.81058  2.89901  0.35471  1549240.09398  45.01796  18.33947  59077.65177    50.85766       44.07367   32.07874  41.59788   44.0     0.2114  -20.86524  0.96017 
   -9.11482  0.00508  4.79299     14.15412   1.7803  1.40357   4.99475  0.22355     0.33786   9051.99361   5004.06906  0.03398         5986.98478      19.7865  0.03398  59025.08518  2.44134  0.02536  1867621.20343  44.88684  18.33728     59079.18    50.84044       44.03721   33.88552  46.13328   44.5     0.2132  -20.88805  0.99702 
   -7.84428  0.01193  4.62657     14.15631  1.71482  1.21834   4.82077  0.20523     0.43927   9114.07458   5834.13245  0.18921         5220.73874     20.34604  0.12325  59026.35572  2.38874  0.05753  1659319.55998  44.95262  18.33075     59079.24    50.82773       44.01273   32.23352  46.04789   44.5    0.22828  -20.96331  0.99337 
   -9.37768  0.01374  5.37195     14.28146  1.73416   0.5863   4.39077  0.23192     0.04727   9331.70976   5561.47028  0.37223          4474.5232      17.6677  0.00026  59024.82232  2.28082  0.06031  1271304.36089  44.94342  18.27018     59079.18    50.87077       44.10167   32.07874  43.90027   44.0    0.19851  -20.90421  0.99063 
   -9.02044  0.00667  4.98317     14.19073   1.8252  1.20332   5.68256  0.19249     0.32254    9237.2188   5031.47006   0.0813         5184.64494     19.76516  0.03235  59025.17956  2.89237   0.0379  1748506.31186  44.89248  18.30319     59079.18     50.8215       44.02316   32.14813  46.13328   44.5    0.20668  -20.90437  0.99537 
   -9.08657  0.02786  5.51353     14.21956  1.99464  1.43093   5.92633  0.20331     0.24637   9567.05607   4488.66473  0.06692         3655.85728     17.10779    7e-05  59025.11343  3.23571   0.1651  2048388.24706  44.77444  18.29022     59079.18    50.72946       43.95308   39.62791  44.22632   45.0    0.20845  -20.88009   0.9787 
   -8.63762  0.01323  4.75929     14.19229  1.65508  0.93641     6.063  0.16074     0.20197    8636.6151   4972.59876  0.20547         5904.05199     19.63751  0.02411  59025.56238  2.69775  0.08022  1435920.89006  44.97545  18.39842  59077.65177     50.7365       43.90707   36.83831  50.65268   45.0    0.20821    -20.896  0.98969 
    -8.2268  0.02276  3.74331     14.07963  1.53494  1.28219   7.72459  0.15294     0.15392   8785.27035   4917.80517  0.33392         3984.77291     20.56841  0.20566   59025.9732  3.55642  0.17581  1384094.17832  45.16726  18.34282     59079.18    50.79451       43.97458   36.83831  50.65268   45.5    0.19496  -21.02551  0.98453 
   -9.57971  0.06792  5.34079     14.13363  1.78015   1.2549    3.2264  0.33334     0.31689   9699.30298   4338.71638  0.04409         2097.74565     19.58587  0.02141  59024.62029  1.81061  0.21912  2548087.43717  44.65788  18.32683     59079.18    50.84237       44.05541   32.07874  43.90027   46.5    0.21591  -20.86759   0.9687 
   -9.17747  0.00396  4.94432     14.17361  1.57614  0.76671   4.90426  0.22113     0.47559   9594.85474   4113.76075  0.95441         2712.88896      16.4809    2e-05  59025.02253  2.69326  0.01941  1608403.88921  44.87183  18.36144  59080.30643    50.73317       43.93389   39.62791  47.86308   46.5    0.20208  -20.86471  0.99706 
   -8.27537  0.02415  4.86088      14.1642   1.6575   1.0611    5.0339  0.21569     0.34484   9491.80303   4851.06805  0.68941         2530.12132     19.35349  0.01254  59025.92463  2.70539  0.12156  1707253.68122  44.88257   18.3695  59077.65177    50.76223       43.93339   36.27331  48.35028   44.5    0.21815  -20.87218  0.98383 
   -7.30753  0.03754  4.37746     14.47014  1.54209   0.4357   5.69633  0.27228     0.25014  10293.08115    4668.5948  2.92376         2001.33909     16.34914    1e-05  59026.89247  3.60009  0.21382   314832.37087  45.67643  18.30757     59079.24    50.82097       44.05652   34.53592  46.04789   43.0     0.1905  -20.89056  0.97464 
   -9.19395  0.20084  6.34204     14.26496  2.07602  1.03155   8.92595  0.10158     0.01067   7976.21355   5550.03455   0.3232         4284.88789     17.96513  0.00051  59025.00605  3.38747  1.79271   2288651.6961  44.62204  18.33493  59077.65177    50.79745       44.00137   32.23352  43.74549   43.5    0.20616  -20.86158  0.77088 
   -9.87793  0.03461  5.35728     14.08783  1.90897  1.28225   4.62968  0.24832     0.03031   9532.49692   5533.89792  0.27924          2644.4348      16.5443    2e-05  59024.32207  2.50952  0.16025  3395039.58093  44.56091   18.3483  59077.65177    50.85751       44.05983   33.81613  46.20267   40.0    0.22894  -20.94118  0.97888 
   -9.79504  0.05088  4.45448     14.01727  1.53139  1.44444   4.77899  0.24147     0.34862   9940.34524   4486.02354  0.00968         5811.61394     20.15464  0.07932  59024.40496  2.81686  0.24315  2605914.98821  44.74038  18.34867  59077.65177    50.82195       43.99391   33.97091  48.35028   45.5    0.20693  -20.96054  0.96978 
   -9.96476  0.49269   7.5195     14.53204   1.9922  0.49942   8.60398  0.17091     0.01098   9465.24266   5106.15958  3.24002         2608.02168     16.78872    3e-05  59024.23524  4.59823  4.23906   902494.29925  44.86036  18.30645     59079.18    50.82244       44.01669   32.23352  46.04789   43.5    0.20908  -20.87671  0.48596 
  -10.54176   0.0047   4.6911       14.054  1.59519  1.41856   4.09943  0.26447     0.08107   8661.59819   5564.26498   0.0036         3328.36136     17.77141  0.00033  59023.65824  1.83462  0.01925  2542053.10614  44.72392  18.32778     59079.18    50.81985       44.00082   36.27331  46.04789   47.0    0.18956  -20.80275  0.99743 
   -9.34133  0.00275  5.05953     14.66465   1.7175  0.28798   4.27416   0.3327     0.14528  10485.00442   7100.96322  0.03376         5374.96112     16.73195    3e-05  59024.85867  2.80295  0.01173   191263.00642  45.81389   18.3357  59077.65177    50.88564       44.12807   29.93113   41.4431   43.5    0.20329  -20.88414  0.99837 
  -10.37042  0.02343  5.51922     14.09647  1.87779  1.12707   5.00876  0.22346     0.03902   9213.33665   5199.84973  0.41197         3596.17935     18.10146   0.0007  59023.82958  2.53624  0.11736  3406184.99166  44.52647  18.32547  59080.30643    50.82173       44.02321   32.07874  46.20267   44.0    0.19284  -20.90814  0.98304 
  -11.11183  0.01239  5.79874     14.04648  2.05243  1.43669   2.78655  0.27334     0.05192   8650.02804   5445.65739  0.42115         2496.67919      16.3815    1e-05  59023.08817  1.24374  0.03452  5173614.85744  44.34065  18.31244     59079.18    50.73593       43.94433   38.13252  47.05608   46.0      0.204   -20.8827  0.99507 
   -8.49052  0.02234  4.06835     14.17303  1.53629  1.03643   6.86185  0.20266     0.23099   8439.74974   5080.45987  0.25068         5458.75178     18.51364  0.00181  59025.70948   2.9156  0.15329    1064286.885  45.20942  18.34063  59080.30643    50.84138       44.07316   29.93113  46.04789   45.0    0.18262  -20.85735   0.9841 
   -8.96331  0.00435  5.21687     14.54644  1.71814  0.37385   3.69881   0.3229     0.40179  10222.16137   4913.42534  0.46035         2272.17286     19.09265  0.00688  59025.23669  2.30555   0.0161     350602.652  45.52427  18.34635  59077.65177    50.79318       43.97733   32.23352  46.04789   43.5    0.21258  -20.86288  0.99762 
   -8.13458  0.01788  4.82243     14.15172  1.67954  1.48866   4.56312   0.2712     0.39266   9237.98195    5421.9064  0.26686         5024.09953     16.57906    2e-05  59026.06542  2.32297  0.08157  1803434.71538   44.8714  18.32942  59080.30643     50.9072       44.13215   32.07874  43.90027   44.0    0.20366  -20.86211   0.9895 
   -9.02295  0.00809  4.89559     14.14691  1.83176  1.43929   5.47357  0.18975     0.13516   9023.94497   4751.47769  0.07304         4118.37106     20.07711  0.06635  59025.17705  2.65883  0.04427  2072388.25523  44.83563  18.31537     59079.18    50.81959       44.02647   32.23352  46.04789   45.5    0.21181  -20.91955   0.9948 
   -9.21913  0.02429  4.30184      14.3238  1.51036  0.55328   4.82415  0.25912     0.13036   9148.15541   5104.67989  0.15556         3758.09332     19.16563  0.00814  59024.98087  2.40833  0.11717   584255.64027  45.41402  18.29247  59080.30643    50.74545        43.9462    41.4431  46.04789   45.0    0.19106  -20.87707  0.98596 
  -11.71097  0.00296  4.56672     13.81586  1.44984  1.34397    4.8103  0.20937     0.03705   9739.46306   5310.34365   0.6255         2009.91495     16.88687    4e-05  59022.48903  2.72188  0.01426  6555674.35545  44.29434  18.33104  59077.65177    50.82107        44.0334   32.07874  43.90027   44.0    0.19993  -20.90162  0.99786 
   -8.45103  0.00258  5.10641     14.32912  1.70516  0.60376   4.21259  0.18914      0.4288   7555.54508   4978.52579  0.55064         5053.23782     19.33819   0.0121  59025.74897  1.43452  0.01087   906941.00869   45.1268  18.32874  59077.65177     50.7853       43.97031   36.27331  47.01592   49.5    0.20231   -20.8716  0.99844 
   -8.54262  0.00298  5.27304     14.35396  2.02427  0.88325   3.37738  0.31908     0.14875   8593.34088   6048.56665  0.14195         5972.38059     19.34123  0.01219  59025.65738  1.48775  0.01007  1023957.24405  45.12071  18.34156     59079.18    50.82989       44.03237   32.23352  46.04789   45.5    0.20291  -20.88317  0.99882 
  -10.16505  0.09341  5.30075     14.24403  1.81412  0.83718   6.60637  0.20081     0.03359   9390.88874   5622.91972  0.42221         2027.23794     17.37667  0.00013  59024.03495  3.47539  0.61709  1538527.12013  44.89173  18.33136  59077.65177    50.83012       44.00279   33.97091  49.31832   44.5    0.18849  -20.87978  0.91986 
   -8.63562  0.00416  3.76425     14.28466  1.34441  0.56835   8.68462  0.15007     0.15569   8319.92467   4786.94419   0.3425         5193.30361     19.18883  0.00858  59025.56438  3.58605   0.0361   476856.28391  45.56763  18.36948  59077.65177    50.82912       44.02109   33.81613  43.90027   44.5    0.18343  -20.85583  0.99603 
   -9.14197  0.00981  4.24267     14.24542  1.50161  0.67681   4.10338  0.27596     0.17525   8953.89519   5316.59584  0.43897         2878.73874     19.91575  0.04576  59025.05803  1.96242  0.04025   810627.54353   45.2813  18.33074     59079.24    50.82396       44.05201   32.23352  46.04789   45.5    0.19606  -20.87792  0.99522 
   -8.70309  0.02322  4.20346       14.106  1.50025  1.23593   6.51536  0.20628     0.16102   9086.29213   5246.56924  0.21716         4109.16678     18.25154  0.00099  59025.49691  3.20877   0.1513  1510729.25855  45.01861  18.36375  59077.65177    50.90576       44.12011   31.66852  43.74549   44.5    0.19704  -20.84752  0.98263 
   -9.33229  0.02562  4.49858     14.22681  1.61813   0.7433   6.21208  0.16232     0.06438    8704.7597   4762.17783  0.13977          2029.5552     16.80219    4e-05  59024.86771  2.80787  0.15918  1069956.39287  45.14234  18.36903  59077.65177    50.96046       44.16502   32.07874  41.59788   46.0    0.19965  -20.88449  0.98124 
  -10.65353  0.00418  4.62776      14.0187  1.52155  1.49888   5.48708  0.16963     0.11488   8277.05955   4757.94912  0.79429         2147.59991     18.46779  0.00163  59023.54647  2.24244  0.02293  2776107.43918  44.67695  18.32974  59077.65177    50.80429       43.97473   34.53592  48.35028   48.5    0.19855  -20.76946   0.9968 
   -8.03461  0.03962  4.48347     14.24772  1.53461  0.73185   3.44988   0.2621     0.28758   8488.41881   4577.48332  0.22795         3485.70379     16.63609    2e-05  59026.16539  1.48281  0.13668   915392.62508  45.19001  18.34874     59079.18    50.81355       43.98853   36.27331  46.79895   45.0    0.21375  -20.81475  0.98269 
   -8.62599  0.02115  4.72998     14.23038  1.56575  0.72886   5.41026  0.21317     0.43806   9817.39651   4746.07646  0.51761         2281.25412     17.49539  0.00017  59025.57401  3.11055  0.11444  1125897.24784  45.06235  18.33591  59077.65177    50.80136       44.00365   33.94489  46.04789   44.5    0.21788  -20.87512  0.98427 
   -8.12918  0.01155  4.03301     14.36052   1.4988   0.5502    3.7544  0.33969      0.3278   9615.49652    5454.5063    0.051          2815.0715     19.22066  0.00923  59026.07082  2.07067  0.04337    430298.0615  45.59956  18.33899  59080.30643     50.8154       43.99084   34.53592  47.01592   42.5    0.21381      -20.9  0.99536 
   -8.90705  0.00381  5.62152     14.48376  1.94665  0.51143   3.33065  0.32202      0.1692   9967.09831   5077.04726  0.04076         2812.18067     19.03335    0.006  59025.29295  1.97375  0.01268   615600.85025  45.26913  18.33129  59077.65177    50.80781       44.01755   32.07874  46.20267   44.5    0.22191  -20.88857  0.99819 
   -9.00938  0.08932  5.02453     14.18823  1.74861  1.06789    3.0146  0.33949     0.24289   9463.61089   4925.34643  0.11609         3635.33449     19.98267  0.05338  59025.19062  1.61054  0.26927   1722839.0157   44.8731  18.35539  59077.65177    50.79635       43.97359   34.53592  48.35028   45.0    0.21639   -20.9001  0.96533 
    -8.7722  0.02676  4.28636     14.28519  1.62999  0.85725  10.46531  0.12698     0.17179   8230.90404   5207.81398  0.29309          5428.0279     19.06629  0.00647   59025.4278  4.22936   0.2801   747808.97696  45.34306   18.2815     59079.24    50.75564       43.96127   39.14071  48.35028   45.5    0.17839    -20.838  0.97091 
   -7.83502  0.00904  4.45778     14.49835  1.98159  0.66797   6.99122  0.22253     0.24749   9188.74517    5186.6216   0.3465          2146.9913     18.53007  0.00188  59026.36498  3.52122   0.0632   368440.02929  45.70125  18.35131     59079.24    50.80309       43.99066   36.27331  47.01592   43.0    0.18334  -20.87671  0.99459 
    -8.4156  0.00184   5.0238     14.23516  1.77168  1.05295   7.08038  0.15622     0.40936   8052.70576   4945.08461  0.51524         5164.97364     18.43937  0.00153   59025.7844  2.73884  0.01306  1405862.58409  44.96722  18.34882     59079.24    50.87644       44.11207   29.93113  43.74549   45.0    0.19455   -20.8559   0.9983 
   -9.22652  0.01298  4.61501     14.09481  1.61699  1.39567   6.32053  0.18202     0.30303   9148.58037   4902.89003  0.32349         2486.61234     19.22594  0.00935  59024.97348  3.15565  0.08201  2066544.10464  44.83396  18.30353  59077.65177     50.7922       43.95769   34.75004  50.43856   44.5    0.20216  -20.85535  0.98974 
  -10.15668  0.00786  4.42311     14.11512   1.4947  0.96313   5.06365  0.24322     0.32726   9384.99297   4708.56132  0.16327         2893.16134     19.37939  0.01331  59024.04332  2.66047  0.03981  1598006.76413  44.94837  18.35402  59082.24988    50.70913        43.8853    45.6936  49.83948   44.5    0.19836   -20.8509  0.99482 
   -9.33851  0.03878  4.78654     14.28336  1.74763  0.75614   6.52716   0.1727     0.05534   8916.26307    5726.5852  0.19766         2914.08953     19.55458  0.01992  59024.86149   3.0954  0.25311   1008315.4602  45.14765  18.32691     59079.24    50.81039       43.98953   34.53592  47.01592   47.0    0.19488  -20.89423  0.97027 
   -7.72787  0.02717  4.80281     14.32123  1.64571   0.6408   4.80851  0.31009     0.22506    10620.157   4721.20272  3.13793         2025.61531     16.49258    2e-05  59026.47213  3.23519  0.13064   802951.79095  45.21752  18.32878     59079.18    50.89309         44.103   32.07874  43.90027   43.5    0.19819  -20.91505  0.98287 
   -8.66719   0.0187  4.33183     14.26697   1.7152  0.97194   9.29365  0.14384     0.36327   8827.86226   5500.11228  0.18093         3852.98678     19.68802  0.02709  59025.53281   4.3204  0.17383    874047.5959  45.28828  18.35927     59079.18    50.80026        43.9666   36.27331  47.01592   45.0    0.19149  -20.85613  0.98271 
   -8.91549  0.02787  3.93217     14.17465  1.82003  1.48658   7.32346  0.12137     0.30559   7913.94267   5288.91693  0.08167         2591.21284     20.47756  0.16683  59025.28451  2.73608  0.20412  1169121.36897   45.2718  18.32478     59079.18    50.77952       43.96316   34.53592  48.35028   46.5    0.20969  -20.95423  0.98467 
   -9.97044  0.00703  4.11065     14.26173  1.44222   0.5912   6.89116  0.16377     0.12687   8952.00559   5139.86943  0.16895         2552.65393      19.8991  0.04404  59024.22956  3.29428  0.04842   677960.09822  45.36885  18.32893     59079.18     50.9488       44.17629   31.66852   41.4431   45.5    0.20583  -20.86827  0.99427 
   -7.24336  0.03261  4.81906     14.56683  1.82857  0.50181   8.06951   0.1351     0.36003   8470.42813   6246.92943  0.27859         5894.17512     18.18751  0.00086  59026.95664   3.4537  0.26316   289856.46602  45.70285  18.36909  59077.65177    50.81017       44.01179   34.53592  46.04789   43.5    0.21068  -20.86807  0.97092 
   -9.58679  0.00592  4.39816     14.02551    1.484  1.31699   5.81926  0.18892     0.20013   9283.09376   4521.62433  0.00634         2780.13041     17.30541  0.00011  59024.61321  2.99144  0.03445  2370145.76743  44.77896  18.30096     59079.24    50.78594       44.02141   36.27331  43.74549   45.5    0.20794  -20.86336  0.99551 
   -8.85758  0.00185  4.03792     13.96684  1.36221   1.4993   4.42132  0.27641     0.13582   9147.75468   5414.16231  0.72853         2084.48161     16.71691    3e-05  59025.34242  2.20703  0.00819  2402684.32464  44.81008  18.31068  59080.30643    50.83072       44.03947   32.23352  46.04789   46.5    0.19091  -20.85491  0.99898 
  -10.87977  0.01736  4.84903     13.90287  1.56344  1.27754   3.41927  0.24574     0.05104   9135.59397   5304.83484  0.17982         3029.05869     17.75918  0.00032  59023.32023  1.70229  0.05934  5339105.99643  44.36415  18.29946     59079.24    50.75875       43.95948   39.06291  47.86308   45.0    0.19644  -20.88469  0.99113 
     -8.443  0.01345   4.7418     14.27441  1.66938  0.78728   7.12904  0.17633     0.08062   8784.72514   5165.55281  0.46582         4765.30865     18.27688  0.00105    59025.757  3.28182  0.09591   985023.69236  45.14607  18.31798  59080.30643    50.80697       43.99113   34.53592  48.35028   45.0    0.19684  -20.89521  0.98797 
   -8.29239  0.09708  4.57948     14.20007  1.67231  1.14305   3.85962  0.27174     0.21396   7658.68781   5973.79562  0.33711         5899.95474     17.95087   0.0005  59025.90761  1.35045  0.37468  1296070.60069   45.0579  18.32476  59082.24988    50.77606       43.97164   40.76282  47.86308   47.5    0.19255  -20.85043  0.95773 
  -10.16043  0.05466  3.75149     14.17628  1.26289   0.6335   6.27352  0.20255     0.07061   9044.53738    5430.7504  0.09976         4287.35169     19.44974  0.01565  59024.03957  3.06134  0.34292   732879.80877  45.35677    18.324     59079.24    50.98298       44.22182   28.67166  41.59885   46.0    0.19393  -20.85932  0.96026 
   -8.38274  0.00206  4.43323     14.01728  1.44892  1.55612   5.84715  0.18765     0.23174   7672.13744   4791.26445  1.17177         3983.39597     18.21548  0.00091  59025.81726  2.05307  0.01204  2441953.49526  44.74871  18.39037  59080.30643    50.77527       43.97432   34.53592  46.95173   48.5    0.18481  -20.83792  0.99834 
   -9.31989  0.01014  4.42879     14.14381  1.63806  1.16559   7.84307   0.1643     0.18603   9232.52759   5174.36821  0.03311          3096.1223     19.48953  0.01715  59024.88011  3.98799  0.07954  1538496.86346  45.00351  18.31692  59076.00873    50.80053       44.00589   32.12719  43.85183   44.5    0.20416  -20.87805  0.99103 
   -9.16542  0.03324  4.83908      14.5258  1.65761  0.35367   2.47106  0.33884     0.24965   8425.45676   4827.95598  0.31442         3883.84843     19.97361  0.05228  59025.03458   1.0464  0.08214   320047.30781  45.61359   18.3252  59080.30643    50.76957       43.97098   39.14071  48.35028   48.5    0.20819  -20.87115  0.98908 
   -9.59417   0.0127  4.63648     14.11193  1.51838  0.94773   6.18777   0.1835     0.13186   8533.70166   4885.88342  0.30349         5282.46208     18.61206  0.00227  59024.60583  2.68804   0.0786  1810138.39381  44.86014  18.33996     59079.24    50.80844       43.99467   34.53592  46.04789   47.5    0.19416  -20.85542  0.98906 
  -10.71022  0.08126  4.93097     13.94969  1.68528  1.11283   3.63112  0.26575     0.03151    9212.5277   5110.34151  0.14483         2236.20107      16.2019    1e-05  59023.48978  1.83834  0.29507  4797008.69112  44.42868  18.38244     59079.18    50.80958       43.99299   34.53592  46.04789   41.0    0.22172   -20.9213  0.96041 
   -9.04234  0.00488  5.02224     14.22106  1.95928  1.38033   4.24565  0.26059     0.42706   8478.23323   5260.22993  0.12084          5762.4652      19.5486  0.01965  59025.15766  1.82046   0.0207  1658003.06503  44.93956  18.33494     59079.18    50.74782       43.88323    40.8781  52.95507   45.5     0.1995  -20.89011  0.99769 
   -9.95361  0.02351  4.86776     14.09559  1.68593   1.2433    4.2911  0.25331     0.36169   9353.93434   4751.10574  0.03171         3720.32829     19.77763  0.03329  59024.24639  2.23967  0.10087  2388590.59307  44.74288  18.32448     59081.14    50.82536       44.01952   36.83831  48.35028   46.5    0.20247  -20.89309   0.9868 
   -8.37819  0.00896  4.20041     14.11569  1.54722  1.20103    4.1964  0.26931     0.19396   9062.55959   5168.60928  0.02147         4000.24443      18.3173  0.00115  59025.82181  2.05592  0.03761  1487858.23819  45.03925  18.34353  59077.65177    50.80633       43.99969   33.97091  46.04789   43.0    0.21754  -20.86995  0.99583 
   -7.74399  0.11348  4.71447     14.39211  1.76098  0.80705   5.93476  0.25025     0.14594    8655.7742   4836.27466  0.60867         4607.06508     17.36527  0.00013  59026.45601  2.65242  0.67346   597327.42606  45.39152  18.33274  59077.65177    50.80882        43.9894   32.23352  46.04789   46.0    0.17406  -20.84103  0.92804 
   -8.38965  0.00481  3.56064     13.87784  1.14016  1.30969   3.30861  0.29681     0.20831   8569.82071   5438.78201  0.13585         5560.42263     18.63325  0.00239  59025.81035  1.44949  0.01591  2355949.52364  44.85059  18.34526     59079.24    50.78962       43.99497   34.53592  46.79895   45.5    0.21888  -20.85286  0.99798 
   -9.26337  0.09535  5.09945     14.17259  1.61335  0.80943   4.94766   0.2369     0.05433  10190.51115   5172.13744  0.56463         2588.49825     17.75099  0.00031  59024.93663  3.06492  0.47177  1759600.94656  44.81611  18.30499  59080.30643    50.74644       43.94814   39.62791  47.86308   42.5    0.20551  -20.90689  0.93134 
  -10.50616  0.00967  5.63293     14.17701  1.97353   0.7147    2.7688  0.28253     0.03886   8446.28595   5294.82447  0.31656         4056.92719     18.70953  0.00285  59023.69384  1.17828  0.02677  2573440.01103  44.65211  18.37834  59077.65177    50.88543       44.11091   29.93113  43.74549   43.0    0.21212  -20.88982  0.99615 
   -8.38556  0.10699  4.81206     14.33083  1.74477  0.77458   5.55325  0.25575     0.26187   9946.82886   4951.48431  0.14776         2009.44823     17.77789  0.00033  59025.81444  3.27751  0.59414   817626.76818  45.23337  18.36342  59080.30643    50.80533        43.9938   33.97091  49.31832   45.0    0.19896  -20.89917  0.93232 
   -8.77605   0.0351  4.07722     14.49426  1.62382  0.47295   8.60217  0.15291      0.2931   8681.96272   4886.70674  0.08889         3104.17183     18.04188  0.00061  59025.42395  3.86786  0.30197   257371.04546   45.8481  18.38256     59079.18    50.78907        43.9726   36.83831  48.35028   44.5    0.18717  -20.84206  0.97146 
   -8.70357  0.01774   4.3817     14.07296  1.47481   1.0931   7.27764  0.18573     0.42222   9557.98812   4456.19711  0.64954         2721.62306     18.90355  0.00445  59025.49643  3.96598  0.12914  1878975.45749  44.88037  18.36359  59080.30643    50.81318       43.98808   36.83831  50.65268   45.5    0.19257  -20.87252  0.98338 
   -8.48796  0.00104  4.27859     14.61765  1.45853  0.25761   3.89573  0.25971     0.22237    8803.0471   5094.44422  0.12511         4970.24619     17.79616  0.00035  59025.71204  1.80087  0.00405   144219.00396  46.01114  18.32435  59080.30643    50.83454       44.03538   32.07874  46.20267   44.0    0.21431  -20.85713  0.99949 
   -8.26639  0.00597  4.24082     14.37715  1.49449  0.49647   2.94694  0.31975     0.30697   8601.70784   5911.21504  0.33689          2856.9659     16.41956    1e-05  59025.93361  1.30067   0.0176   439441.59277  45.54554  18.33467  59077.65177    50.79722       44.00447   32.23352  46.04789   45.5     0.2223  -20.83862   0.9979 
   -8.75805  0.01074  5.01596     14.15952   1.7411  1.30374   5.77879  0.21116     0.46669   9120.77892   4776.66878  0.38324         4222.50459     18.61041  0.00227  59025.44195  2.86766  0.06206  1951185.64962  44.81866  18.33286     59079.24    50.81474       43.99703   32.23352  48.35028   44.5    0.20374  -20.86593  0.99177 
   -9.01618  0.00106  5.22013     14.22343  1.91435  1.18058   4.90481  0.26691      0.4199   9766.00098    4614.3043  0.18904         2192.07947     18.07832  0.00067  59025.18382  2.79051   0.0052  1731187.50849  44.87716  18.33125  59080.30643    50.81117       44.02747   32.23352  46.04789   44.0    0.20085  -20.88938  0.99935 
   -8.71893  0.08771  4.50398     13.98983  1.38423  1.23993    3.3173  0.33056     0.31685   9705.02943   4633.35559  0.71816         2244.99605     17.39691  0.00014  59025.48107  1.86383  0.29097  2732484.01348   44.6663  18.35337     59079.18    50.82131        44.0278   33.81613  43.90027   46.0    0.21147  -20.84766  0.95744 
    -9.8813    0.008  4.85243     14.08767  1.69924   1.5648   5.26857  0.21887      0.4164   9160.85492   4969.49811  0.12747         3512.14386     17.87296  0.00041   59024.3187   2.6375  0.04213  2481151.52468  44.73253  18.32082     59079.24    50.83719       44.00281   36.83831  47.01592   46.0    0.19956  -20.87486  0.99455 
