 texplosion  fnickel    Pspin  log(Bfield)      Mns  thetaPB   mejecta    kappa  kappagamma      vejecta  temperature    alpha  cutoff_wavelength  log(nhhost)      A_V         MJD0   kenergy  mnickel            TSD   log(L0)  Peak_mag     Peak_MJD  log(E_rad)  log(Peak_lum)  Rise_Time    E_fold  tau_1  delta_m15     r_peak     frac 
   -4.67375  0.00906   0.7813     14.21952  1.29661  1.11043  11.55656   0.0448     0.09606  11814.13457   4020.90004  0.04151         5099.70418     17.56044   0.0002  57372.65628   9.62187  0.10472    26743.76429   48.1688  18.26182  57404.94902    51.27926       44.87982   10.36461  20.65326   25.0    0.58192  -21.47482   0.9997 
   -6.05618  0.04863  1.20566     14.58488  1.97291  0.84806   6.81275  0.08469     0.35129  11339.75112   3467.06376  0.06242         5847.04903     16.40656    1e-05  57371.27385   5.22585  0.33127    18014.50602  48.14588  18.27427   57403.2835     51.0887       44.60359    15.2295  22.84424   27.0    0.49799  -21.33699  0.99867 
   -5.64495  0.26912  1.13857     14.65419  1.97958  0.66252   6.56631   0.1074         0.5  14806.78215   6873.47171  0.04836         4494.43738     20.83566  0.38053  57371.68508   8.58756  1.76712    11714.43643  48.38398  18.25391  57404.94902    51.22376       44.76175   13.32581  22.62566   27.0    0.51484  -21.74406  0.99387 
   -5.89163  0.00119  1.09834     14.76137  2.03001  0.44459   5.91254  0.07385     0.02446  10833.65159   3232.65033  0.01087          5041.5656     17.18186    8e-05   57371.4384   4.13953  0.00701     6824.10704  48.66083  18.34653  57407.25248    51.20256       44.71232   11.42212  24.74793   26.5      0.537  -21.43626  0.99998 
   -6.04921  0.00136  1.45998      14.2619  1.48759  1.02279    2.0426  0.22552     0.46868  11759.37229   5205.09537  0.02187         2994.26076     17.80769  0.00036  57371.28082   1.68492  0.00277    88142.23796  47.16745   18.2588  57404.94902    51.25079          44.84   10.36461  21.99807   28.0    0.51341  -21.41203  0.99996 
    -4.8501  0.03527  1.56487     14.52788  1.49854  0.51196   4.25077  0.11285     0.49044  12531.76165   3244.29235   0.1062         3815.94577     18.50522  0.00178  57372.47993   3.98216  0.14994    29970.00256  47.57887  18.34589   57403.2835     50.9942       44.43869   17.13318  25.38223   27.0    0.54266  -21.48446  0.99776 
   -5.04521  0.00531   1.4438     14.48035  1.68965  0.76726  11.75278  0.04582         0.5  12239.61361   3129.24051  0.04996         5204.30581     18.94575   0.0049  57372.28482  10.50275  0.06239    35803.63652   47.6237  18.38435  57407.25248    50.98486       44.41144   19.03687  26.65162   26.0    0.55134  -21.46726  0.99939 
   -4.22547  0.00894  1.59453     14.44925  1.90048  1.19712    3.9722  0.13144     0.45964  11488.23335   5478.24997  0.29568         4419.24218     16.82001    4e-05  57373.10456   3.12727  0.03552    56682.71433    47.389  18.27853   57403.2835    51.21502       44.80454   10.36461  21.99807   26.0     0.5165  -21.47466  0.99965 
   -7.16042  0.48931  3.47442     14.58833  1.94857  0.47863   1.58382  0.28262      0.4993  12367.62266   9968.82368  0.18897         2585.16518     17.91527  0.00046  57370.16961   1.44513  0.77498   145424.53078  46.31416  18.27298  57404.94902    51.33853        44.9189    9.51843  22.84424   27.5    0.39914  -21.44529  0.96021 
   -5.92006  0.05692  4.28161      14.3502  1.89175  0.84795   1.79726  0.25591     0.39287  13511.46781   9299.58809  0.37546          5051.5918      20.0663  0.06472  57371.40997   1.95724  0.10231   641925.92705  45.47501   18.3302   57403.2835    51.10284       44.64876   11.42212  22.84424   27.5    0.46172  -21.52977  0.99135 
   -6.13208  0.03054  3.93267     14.10134  1.40351  1.04304   1.79938   0.2471     0.46707  11795.72196   9384.32435  0.59941         5660.35515      19.0454  0.00617  57371.19795   1.49348  0.05496  1263958.74731  45.12495  18.32741  57404.94902    51.08889        44.5837   17.13318  24.74793   29.0    0.43413  -21.42771  0.99383 
   -5.45696  0.00742  1.04069     14.65772  1.98297  0.66015  17.59338  0.03381     0.07615  12818.97408   3266.09799  0.01455         4711.08415     20.24463  0.09758  57371.87307  17.24579  0.13049     9645.89817  48.54718  18.38439  57404.94902    51.03965       44.48018   17.13318  26.65162   24.5    0.55534  -21.62355  0.99966 
   -7.01406  0.01612  3.56742     14.28573  2.06091  1.29098     1.257  0.31177     0.49996  12320.08906   9755.68394  0.03197          5157.4305     16.40541    1e-05  57370.31597   1.13813  0.02026   653329.81965  45.66306  18.36008   57403.2835    50.97684       44.45062   17.13318  24.74793   27.5    0.44034  -21.43925  0.99895 
   -7.49267  0.00137  3.83206     14.36091  1.60819  0.41123   1.14788  0.24861     0.10719  13915.95783   9379.60941  0.11818         2560.15217     18.44945  0.00156  57369.83736   1.32602  0.00157   416103.78978  45.68912  18.25896   57403.2835    51.24509       44.84897   10.36461  20.65326   26.0    0.43753  -21.45928  0.99986 
   -5.98306  0.00488  2.27336     13.90633  1.08625  1.17216   1.18571  0.32758      0.4961  12360.70531    9376.5581  0.12658         5161.56593     18.45332  0.00158  57371.34697   1.08067  0.00579   802464.72884  45.68701  18.30248   57403.2835    51.17173       44.73762   11.42212  20.94056   27.5    0.46586  -21.46201  0.99968 
   -5.70967  0.34976   4.2122     14.63992  1.97699  0.43692   1.34113  0.32391     0.26771  14311.30767   8890.17757  0.24282         2832.60766     19.52741  0.01871  57371.62036   1.63854  0.46907   170997.51484  46.08284  18.34382  57404.94902    50.93896       44.34992   19.03687   28.5553   28.0    0.47211  -21.47075  0.96507 
   -5.21476  0.00548  0.78149      14.4883  2.17193  1.36933  20.68902  0.02279       0.464  10816.87893   3513.90349  0.06611         5239.56658     19.99425  0.05482  57372.11527  14.44013   0.1134      12998.797  48.70594  18.34949  57404.94902    50.95116       44.37047   19.03687  26.65162   26.5    0.55168  -21.51051  0.99991 
   -5.15863  0.01886   1.2543     14.59145  2.04865  0.85557   17.0103  0.03004     0.22565  12162.86465   3266.43998  0.03157         4440.69857     17.10684    7e-05   57372.1714  15.01105  0.32082    19641.86404  48.09033  18.27198   57403.2835      51.218       44.79889    9.51843  20.94056   25.5    0.57392  -21.47245  0.99862 
   -3.73676  0.01137  0.75099     14.59438  1.20557  0.32568  14.00254  0.02868      0.0658  11840.18354   4371.27081  0.10428         2345.70988     16.80506    4e-05  57373.59327  11.70984  0.15917      4088.0928  48.98725   18.4226  57404.94902     50.9649       44.42967   19.03687  26.65162   26.0    0.61545  -21.47843  0.99949 
   -7.32436  0.01137  3.67309     13.95525  1.27779  1.17326   1.75121  0.28669     0.33994  13236.48918   9153.39268  0.55452         3765.33966      18.7638  0.00322  57370.00567   1.83025  0.01991  1967142.72748   44.9514  18.34022  57404.94902    51.37769       44.99074   13.32581   20.1406   30.5    0.38776  -21.36988  0.99774 
   -6.47826  0.05338  2.67304      14.0156  1.10991  0.75515   1.48107  0.31509     0.17186  13205.78192   9682.39468  0.18519         4075.17396     18.53937  0.00192  57370.85177   1.54075  0.07906   685362.74045   45.6242  18.41489   57403.2835    50.95318        44.4035   19.03687  24.74793   25.5    0.42823  -21.47186  0.99419 
   -5.07775  0.26961  2.20302     14.45192  1.68684  0.62649   4.51545  0.08319     0.49887  12066.23157   9809.76766  0.07352         3322.95816     16.06334    1e-05  57372.25228   3.92167  1.21743    94863.03585  46.83278  18.23637  57404.94902    51.35362       44.95514    9.51843  20.94056   27.0      0.483  -21.48238  0.96898 
   -7.01277  0.47878  2.64312     14.25787  1.28262  0.67245   2.42568  0.25188     0.24155  13289.36097   9561.62466  0.21466         3436.78248     16.72103    3e-05  57370.31726   2.55546  1.16137   253745.05224  46.12831  18.32691   57403.2835    51.21202       44.74339    15.2295   20.1406   26.0    0.43535  -21.43573  0.93709 
   -5.42366   0.0184  1.97399     14.75743  2.13774  0.53665   5.26361  0.10487     0.22546  12936.05152   6619.64291  0.00647         4551.18531     17.93656  0.00048  57371.90637   5.25429  0.09687    23636.77653  47.63452   18.2949   57403.2835    51.11472       44.65901   14.51488   21.4366   26.0    0.55681  -21.47193  0.99867 
   -5.72661  0.00213  1.96643     14.35648  1.76647  1.19813   1.78469  0.27245      0.1742  11537.33818    5912.6755  0.15706         5514.62607       18.879   0.0042  57371.60342    1.4171   0.0038   122836.56506  46.83927  18.33134   57403.2835    51.19085       44.76216   11.42212  20.94056   27.5    0.51693  -21.43345  0.99993 
   -4.72352  0.09215  0.73999     14.62984  2.12857  0.98971  12.22537  0.04227      0.4986  12166.59987   6508.47139  0.00094         3899.48245     16.56394    2e-05  57372.60651  10.79512   1.1266     5952.14857  49.08381  18.31763  57404.94902     51.0222       44.48693   17.13318  24.74793   26.5    0.58683  -21.43464  0.99944 
   -5.51185  0.00465  4.77785     14.26715  2.12603  1.42723   1.66494  0.19667     0.49731  12793.31345   9333.04325  0.47928          4184.9327       19.477  0.01666  57371.81818   1.62552  0.00774  1316877.28357   45.1184  18.33214  57404.94902    51.07096       44.55172    15.2295  24.74793   31.0    0.43734  -21.47857  0.99931 
   -5.26654  0.00215  5.82276     14.36018  2.16347  0.93328   1.29996  0.33583      0.4889  12910.14668   9868.42088  0.87324          4609.1054     18.05926  0.00064  57372.06349   1.29247   0.0028  1296795.48562  44.96087  18.35571   57403.2835    50.98538        44.4352   17.13318  25.38223   29.5    0.43846  -21.44942  0.99964 
   -5.10796  0.05855  2.05225     14.90578  1.82889  0.29352   4.01115  0.13555         0.5  13339.85225   3330.87146  0.14523         2574.34085     17.04997    6e-05  57372.22207   4.25792  0.23486    11038.32675  47.86367  18.35642   57403.2835    51.05126       44.55676    15.2295  22.84424   26.5    0.55865  -21.46564  0.99545 
   -4.71246  0.01341  0.93486     14.81617  1.65007  0.30135  12.15668  0.03445     0.11472  11603.35746   6585.61545  0.05015         4145.14483      16.4529    2e-05  57372.61757   9.76359  0.16303     3122.29644  49.05039  18.34749  57404.94902    51.05667       44.58952    15.2295  22.84424   26.0    0.56579  -21.50944  0.99948 
   -6.29466  0.02462  4.71479     14.40301  1.93465  0.62712   2.06584  0.17604     0.23099  13813.29918   9393.60885  0.59197         2525.68324      16.5425    2e-05  57371.03537   2.35136  0.05087   624186.67428  45.41321  18.32734  57407.25248    51.02651        44.4954   17.13318  25.38223   30.5    0.42422  -21.39878  0.99491 
   -5.28154  0.00554  2.31192     14.16402  1.13232  0.56982   3.40574  0.10938     0.24154  11361.93466   9938.93423  0.36403         3415.44075     18.63071  0.00237  57372.04849   2.62267  0.01888   264055.69699  46.17317  18.31776   57403.2835     51.0933       44.59069    15.2295  22.84424   28.0    0.43875   -21.4235  0.99899 
   -5.15337    0.057  0.75327     14.59589  2.16454  1.46621  25.03883  0.02299     0.22053  12588.20849   3186.47998  0.02407         4254.28253     16.89347    4e-05  57372.17666   23.6684  1.42731      7333.2227  48.98501  18.35956   57403.2835    50.94435       44.38402   19.03687  24.74793   26.0    0.56931  -21.45911  0.99937 
   -5.13191  0.08353  0.70551     14.62019  1.96534  0.80365   8.87664  0.05928     0.48724  11969.09208   5646.49236  0.01266         5365.03468     16.38901    1e-05  57372.19812   7.58574  0.74143     5222.52455  49.14739  18.30868  57402.64555    51.02436       44.53608   11.42212  22.84424   25.0    0.55298   -21.5028  0.99958 
   -6.06161   0.0174  3.89306     14.20899   1.8008  1.14633   1.75285  0.19619     0.49652  13982.18066   9221.22832  0.08736         2319.56389     18.43219   0.0015  57371.26842    2.0442   0.0305    968006.3642  45.35785  18.30183   57403.2835    51.15122       44.70818   11.42212  22.84424   29.0    0.46639  -21.43604  0.99769 
   -5.90344  0.04955  4.43784     14.10583   1.5921  1.26487   1.40738  0.28389     0.39267  14780.42026   8608.27958  0.54637         3879.64824     19.60027  0.02213  57371.42659   1.83405  0.06974  1788401.48868  44.92401  18.27035  57404.94902    51.29135       44.89698   10.36461  20.65326   31.0     0.4882  -21.43956  0.99174 
   -4.37919  0.31574  1.55864     14.41549  1.58071  1.20029   4.24117  0.15122     0.44082  14277.80767   5072.36072  0.21152         3610.47296     16.35514    1e-05  57372.95084   5.15746  1.33909    52622.02515  47.36104  18.31561  57404.94902    51.11389       44.60043    15.2295  22.84424   26.5    0.51898  -21.43542  0.98443 
   -4.78197  0.01299  0.98563     14.49884  2.16026  1.51907  12.24756  0.03931     0.48872  10945.49305    5948.6322  0.17264         3742.05642     16.84918    4e-05  57372.54806   8.75281  0.15908    19591.99822  48.32384  18.37597   57403.2835    50.96629       44.41559   17.13318  26.65162   26.0    0.54251  -21.46074  0.99972 
   -5.21345  0.00134  1.58492     14.46136  2.15992   1.3272  12.96683   0.0332     0.47971  10350.48787    3035.2222  0.24001         4754.00108     19.20743  0.00896  57372.11658   8.28672  0.01739    60192.38883  47.42372  18.40841  57404.94902    51.02394       44.52857   13.32581  24.74793   28.0    0.51587    -21.483  0.99986 
   -5.39276  0.01814  3.99308     14.30179  1.50446   0.5319     1.369  0.26612         0.5  14125.81108   9971.46449  0.44194         3747.15873     18.61846  0.00231  57371.93727   1.62951  0.02484   554912.41198  45.49938  18.30866   57403.2835    51.12246       44.66984    9.51843  22.84424   28.5      0.451  -21.45946  0.99739 
   -4.80915  0.01183  1.68518     14.49944  1.28764   0.3472   3.68909   0.0889     0.35075  10854.26515   9403.15467   0.2437          3585.2554     17.90185  0.00044  57372.52088   2.59267  0.04363    34041.89457  47.39334  18.26049  57404.94902    51.27342        44.8601    7.61475  22.84424   27.5    0.50985  -21.45645    0.999 
   -5.88099  0.23173  2.71463       14.424  1.71377  0.86028   1.65729  0.32572     0.49999  13506.56707   4466.81678  0.07558         5124.20175     18.86176  0.00404  57371.44904    1.8035  0.38404   166412.05814  46.41419  18.21245   57403.2835    51.31798       44.92838   10.36461  20.09438   28.5    0.52294  -21.41482  0.98523 
   -4.85269     0.32  2.48153     14.39028  1.75428  0.79814   2.80189  0.13168     0.47754   11741.1679   9654.26983  0.18286         4025.91331     16.83306    4e-05  57372.47734   2.30409   0.8966   166258.97706  46.50272   18.2518  57404.94902    51.36121       44.97951    9.51843  20.94056   27.0    0.49377  -21.47563  0.97245 
   -5.44039  0.00875  3.02524     14.32432  1.69527  1.19597   1.95882  0.32638         0.5  14924.57362   5415.26028  0.37526          2005.3633      16.6227    2e-05  57371.88964   2.60271  0.01714   323540.60448  46.02664  18.33068   57403.2835    51.01704       44.47841   17.13318  24.74793   26.5    0.51347  -21.42405  0.99915 
   -7.73926  0.02351  4.50283     14.27738  1.88964  1.12261    1.7182  0.33697         0.5  12862.95002    9400.4348  0.31467         5961.87622     17.15615    8e-05  57369.59077   1.69583   0.0404   991772.38963  45.24184  18.31504  57404.94902    51.18023       44.72541   13.32581  20.94056   27.5    0.43135  -21.42044  0.99619 
   -4.67383  0.13754  2.04615     14.55637  2.01325  0.99666   4.90206  0.12696     0.47404  14064.42019   5995.26239  0.06465         3027.63376     17.02386    6e-05   57372.6562   5.78428  0.67422    60373.58415  47.17002  18.26376  57404.94902    51.33079       44.94201   10.36461  20.09438   26.0    0.57343  -21.45693  0.98938 
   -6.19123  0.09749   5.2837     14.32565  1.90582  0.96621   1.67018  0.29083     0.49182  12170.39517   9754.79807  0.66746         5986.31026     17.55904   0.0002   57371.1388    1.4757  0.16283  1102758.44103  45.06057  18.34664  57404.94902    51.13941       44.67643   13.32581  22.84424   28.5    0.42922   -21.4301  0.97942 
   -4.84551  0.02037  1.71754     14.44508  2.00588  1.36005    5.7118  0.09585     0.42303  12329.08797   6181.02176  0.06091         3468.52956     19.37603  0.01321  57372.48452   5.17919  0.11637    70756.40597  47.25157  18.33245   57403.2835    51.03907        44.5346    15.2295  22.84424   26.5    0.52397  -21.43275  0.99873 
   -5.08092  0.05735  1.13814     14.30034   1.5887  1.19922   4.49037  0.10956     0.47541  11891.07692   4742.12543  0.04157         2831.61531     18.62913  0.00237  57372.24911   3.78749  0.25752     47926.0839  47.67692  18.37322  57404.94902    51.08164       44.53434   19.03687  24.74793   26.5    0.51951  -21.48552  0.99844 
   -3.74812  0.05818   1.5345     14.42451  1.47539   0.7513    3.4176  0.16906     0.49788  12980.99962   4793.93198  0.46352          2972.3936     17.59236  0.00022  57373.58191    3.4353  0.19883     45670.4219  47.40619  18.29114  57404.94902    51.30941       44.91647   10.36461  20.09438   26.0     0.5164   -21.4948  0.99718 
   -5.26834  0.07148  1.33867     14.45818  2.02099  1.55876   6.59206  0.07858     0.47991  12246.75788   6390.03723  0.03529         5077.25204      17.6407  0.00024  57372.06169    5.8978  0.47122    40771.76749  47.71071  18.23267   57403.2835    51.42789       45.05493    9.51843   19.8454   26.0     0.5648    -21.466  0.99745 
   -5.34795  0.19545  3.86253     14.48965  2.05148  0.70765   2.16312  0.18672     0.47183  13448.05313   9239.74024  0.22947         2960.76006      16.7895    3e-05  57371.98208    2.3336  0.42279    298071.3223  45.93285  18.38621  57404.94902    51.02155       44.46039    15.2295  27.28592   27.5    0.47098  -21.47319  0.97477 
   -4.98897  0.43421  1.06437     14.61044  1.94163  0.92069   2.79944  0.21343     0.29622  12201.85069   5148.00198  0.14759         3894.88608     16.78499    3e-05  57372.34106   2.48628  1.21556    12282.26682  48.41355  18.35226  57404.94902    51.32067       44.90736   10.36461  20.65326   26.0    0.50104  -21.50418  0.99724 
   -4.83549  0.04015  0.75554     14.52473  1.74011  1.08923  30.44529   0.0207         0.5  12417.97445   3138.44663  0.11997         5552.29706     16.02955    1e-05  57372.49454  28.00585  1.22232     8230.73895  48.83747  18.38137  57404.94902    50.99119       44.41049   20.94056  26.65162   26.0    0.52271  -21.38355  0.99906 
   -4.74135  0.00131  4.32053      14.2144  1.82242  1.42281   1.91639  0.28672     0.49667  14169.99687   9421.35255   1.0517         3114.86645     19.42785  0.01488  57372.58868   2.29536  0.00251  1176872.96879  45.18769  18.29246  57404.94902    51.35361       44.97721    8.46093  20.65326   26.5    0.45991   -21.4947  0.99977 
   -3.77459  0.30071  1.25884     14.54969  1.84759  1.31737   4.58584  0.15607     0.36321  14253.89678   4549.22451  0.13943         5435.38202     18.73439  0.00301  57373.55544   5.55794  1.37901    21626.79218  48.00052  18.31908   57403.2835    51.10529       44.60825    15.2295  22.84424   26.0    0.52213  -21.43329  0.99474 
   -4.36804  0.00561  1.09214     14.59736  2.13958  0.81399   9.95758  0.04189     0.40377  11337.19049   6489.66585  0.17872          2272.4895     16.51947    2e-05  57372.96199    7.6347  0.05591    15134.84833  48.34264  18.30807  57404.94902    51.13466       44.63202   14.51488  23.55886   26.5    0.53004   -21.4675  0.99984 
   -3.90848  0.28485  0.88453     14.44462  1.48617  1.24725   7.14857  0.09612     0.45377  14583.14569   6546.55242  0.08273         4599.60049     16.25673    1e-05  57373.42155   9.06877  2.03625    13933.42933  48.40343  18.25418   57403.2835    51.14116       44.70109   14.51488  19.75149   27.0    0.50527  -21.37472  0.99643 
   -5.03484   0.1742  2.52641      14.5457  2.18719  1.18321   4.13958   0.1894     0.49955  14388.55668   8084.66683  0.19135          2352.8326     17.65891  0.00025  57372.29519   5.11232  0.72112   105028.51567  46.78242  18.33633   57403.2835    51.01914       44.52014    15.2295  22.84424   24.5    0.49304   -21.4739  0.98398 
   -4.68485  0.00655  1.11196     14.47959  2.14438  0.93898   6.24425  0.05725     0.01118   9577.51172   7276.54955  0.15442         4453.47168     18.71871  0.00291  57372.64518   3.41675   0.0409    27046.35604  48.07586  18.27973   57403.2835    51.35361       44.94585    9.51843  20.94056   26.0    0.53802  -21.50856  0.99986 
   -4.68112  0.00272  0.70565     14.49903  2.03687   1.0752   8.55803  0.05293     0.26568  11060.58908   3579.92096  0.02508         4128.45664     18.76953  0.00327  57372.64891   6.24536  0.02329     9460.28052  48.90472  18.37296  57407.25248    51.09782        44.5076   13.32581  29.18961   25.5    0.57402  -21.49482  0.99998 
   -5.75058   0.0074  3.40743     14.30899  1.33587  0.47366   1.68033  0.24356     0.43729   14391.0634    9018.0079   0.3924         4088.31205     19.88602  0.04273  57371.57945   2.07591  0.01243   347096.16023   45.7893  18.28946  57404.94902    51.08183       44.55594   17.13318  22.84424   29.0    0.47529  -21.52747  0.99887 
   -2.75234   0.0064  1.08048     14.66604   2.0435  1.14607   2.44507  0.33233     0.44662  11577.23731   4778.70983   0.6004         5625.53933     19.00042  0.00556  57374.57769   1.95492  0.01565    10311.91955  48.49865  18.39915  57404.94902    50.96844       44.44173   19.03687  26.65162   25.5    0.40507  -21.41437  0.99998 
     -6.247  0.00636  3.45434     14.31507  2.16994  1.36182   1.99122  0.18519     0.46116   11758.3528   9914.57412   0.1194         2027.64549     18.36846   0.0013  57371.08303   1.64225  0.01266   563450.83583  45.77771  18.22456  57404.94902    51.42131       45.05117    9.51843   19.8454   27.5    0.43136  -21.41504  0.99943 
   -4.38029  0.00398  1.64047     14.73059  1.85859   0.4621   3.13435  0.14185     0.49915  11423.94505   4814.03439  0.23594         4867.88187     18.30735  0.00113  57372.94974   2.44009  0.01247    16060.36569  47.90234  18.18468  57404.94902    51.49858       45.14209    7.87412  20.68118   26.0    0.52132  -21.47906  0.99986 
   -6.46172  0.00359  4.58304     14.41896  2.06948  1.03348   2.21099  0.31535         0.5  14346.69763    8713.1704  0.31151         5555.57447      18.0814  0.00067  57370.86831   2.71468  0.00793   586229.98797  45.49433  18.29619   57403.2835    51.31796       44.91959    9.51843  20.94056   25.5    0.45984  -21.45941  0.99932 
   -6.39478  0.46908  2.73129     14.43334  1.50293  0.57438   2.27671  0.20855     0.49783   13687.8176   8425.04212  0.00086         3994.85955     17.33899  0.00012  57370.93525   2.54451  1.06795   141514.72367  46.42225  18.27454  57404.94902    51.25268       44.84291   11.42212  20.94056   28.0    0.48058  -21.43513  0.95073 
    -4.2412  0.00168  1.65814     14.60023  1.51267  0.45247   8.01092  0.05996         0.5  11838.20564   6465.91963  0.21565          4668.7874     16.01012    1e-05  57373.08883   6.69702  0.01345    24340.90337  47.62301  18.38919   57403.2835    50.94064       44.40157   17.13318  25.38223   26.5     0.5394  -21.46097  0.99978 
   -5.06477  0.06795   3.2899     14.78525  2.02639   0.4264   2.54142  0.20196     0.42725  13212.01157   5532.49689  0.17038         5783.00263     16.80392    4e-05  57372.26526   2.64632  0.17268    54752.87758   46.8028  18.35468  57402.64555    51.00557       44.51395    15.2295  22.84424   27.5    0.53779  -21.44785  0.99233 
   -6.58821   0.4431  2.69441     14.63418  1.84814  0.60876   3.53887  0.23564     0.10259  14131.11059   9273.10384   0.0717         3904.04409     17.42727  0.00015  57370.74182   4.21546  1.56806    67161.36497  46.84753  18.36844  57402.64555    51.07145         44.639   14.51488   21.4366   24.0    0.43711  -21.41033  0.94939 
    -5.3898  0.29439  2.69562     14.43168   1.4839  0.62466   2.98561  0.20786     0.48553  13474.03552   8817.71944  0.37813         3577.64526     17.41068  0.00014  57371.94023   3.23338  0.87895   137144.61708  46.44175  18.25089  57404.94902    51.27702       44.87485    8.46093  21.99807   25.5    0.46404  -21.46254  0.95948 
   -4.95102  0.00287   1.6383     14.61495  2.07361  0.91794   5.13706  0.14821     0.32265   12677.0229   6889.70983  0.21852         3489.05928      17.5629   0.0002  57372.37901   4.92466  0.01477    30439.42228  47.67335   18.2466   57403.2835    51.30652       44.90043    8.46093  20.65326   25.5    0.48822  -21.43775  0.99988 
   -5.03905  0.00156  2.41419     14.47059  1.90933  0.65449   4.39895  0.07691     0.01469  10769.36519   4418.17966  0.49871         2330.35111     17.13583    8e-05  57372.29098   3.04338  0.00688   118318.42861  46.71113  18.29589  57404.94902    51.21569       44.80994    9.51843  20.94056   27.5    0.53606  -21.45057  0.99982 
   -4.18667  0.43804  1.24375     14.63512  1.44494  0.54719   4.33712  0.19709     0.49505  14454.75098   8965.27338  0.37022         2393.82857      17.8537   0.0004  57373.14336   5.40568  1.89985    11140.28117  48.19233  18.29199  57404.94902    51.25064       44.83517   10.36461  21.99807   23.5    0.46315  -21.43409  0.98657 
   -5.10525  0.07925  1.42152     14.33104  1.72987  1.54991   2.68868  0.17012         0.5  11914.32871   6511.88339  0.03398         4682.51515     16.25216    1e-05  57372.22478    2.2767  0.21308    70673.18498   47.3521  18.30117   57403.2835    51.24964       44.84889   10.36461  20.65326   26.5    0.58415  -21.43638  0.99806 
   -4.73826   0.0734  1.06373     14.38422  1.37717  0.73475   9.20201  0.05389     0.29422  12224.19327   6857.24934  0.04771         3369.42113     17.56547   0.0002  57372.59177   8.20257  0.67545    24661.75336  47.96215   18.3709  57404.94902    51.07515         44.533   11.42212  26.65162   27.0    0.54628  -21.44499  0.99572 
   -4.11986  0.00236  1.03288     14.44928  1.88792  0.98118  14.94665  0.02913     0.01049  10848.62749   3032.10701  0.16314         5454.12163     20.34169  0.12202  57373.21017  10.49351  0.03522    23623.24449  48.14339  18.31699  57404.94902    51.02699        44.5153   17.13318  24.74793   25.5    0.57093   -21.5762  0.99989 
   -4.63545   0.0054  1.89698     14.42621  1.82819  0.57154   5.28946  0.07605     0.01254  11710.86901   6296.35753  0.24387         4767.11992     20.86205  0.40437  57372.69458    4.3273  0.02855    85811.50975  47.04119  18.25106   57403.2835     51.2745       44.83123   13.32581  19.03687   26.0    0.57761  -21.81703  0.99951 
   -6.95179  0.00874  4.86706     14.38423  1.95888  0.78088    1.9413  0.22487     0.43439  14195.88632   8556.42166  0.17789         4953.26245       16.873    4e-05  57370.37824    2.3337  0.01697   734343.05706  45.32042   18.3439  57404.94902     51.0482       44.50164   17.13318  26.65162   30.0    0.45927  -21.39467  0.99822 
   -4.73937  0.03055  0.75536     14.55697  1.90151  0.83718  17.57431  0.02737         0.5  11062.35624   6318.25457  0.07725         5143.99644     16.40618    1e-05  57372.59066  12.82923  0.53684      7749.4709  48.90237   18.2905  57404.94902    51.18346       44.75411   11.42212  22.04428   26.5    0.55719  -21.46389  0.99951 
   -7.69515  0.00255  2.76624     14.24863  1.69472   0.9074   3.33592  0.10829     0.46886  11680.81942   9754.44703  0.00695         3949.32373     17.89857  0.00044  57369.63488   2.71512  0.00849   383209.96887  46.03073  18.32123   57403.2835     51.1497       44.72019   11.42212  22.04428   28.0    0.43749  -21.40391  0.99965 
   -4.67695  0.16128   1.9978      14.5543  1.12592  0.27515   2.37511  0.19702     0.49766  13477.06058   8224.50262  0.46867         2090.40078     16.95816    5e-05  57372.65308   2.57336  0.38306    32496.35307  47.20742  18.27098  57404.94902    51.31664        44.9136    9.51843  20.94056   26.5    0.51474  -21.46343  0.98495 
   -6.02968  0.06311  1.81039     14.42266  1.97408  1.37682   1.96078  0.27794     0.49988  12721.51976   3554.16468  0.02206         5126.96758     19.86497  0.04071  57371.30035   1.89293  0.12375     85784.0541  47.11526  18.30366  57402.64555    51.03374       44.51223   17.13318  22.84424   26.5    0.54669  -21.44128  0.99841 
   -5.95233  0.10803  2.99909     13.93047  1.19039  1.29177   1.87018  0.25154     0.49892   14534.0979   9257.72634  0.21598         3634.49498     19.14045  0.00768   57371.3777    2.3566  0.20204  1369442.30705  45.25401  18.35475  57404.94902    50.88946       44.28712   20.94056   28.5553   27.5    0.47341   -21.4911  0.98333 
   -6.31259  0.47905  4.00229     14.29047  1.88067  0.98837   1.28514   0.3238         0.5   13714.3009   9532.14885  0.27635         2276.52125     18.04767  0.00062  57371.01744   1.44187  0.61564   734178.00666  45.47274  18.29273   57403.2835    51.14518        44.7066   13.32581   20.1406   28.5    0.42468   -21.4531  0.95579 
   -5.67398  0.46945  4.02455     14.39462   1.7999  0.84043   1.85358  0.30744     0.46189  14205.52429   9263.25864  0.58389         3066.85971     18.74756  0.00311  57371.65605   2.23128  0.87017   439803.00922   45.6714  18.20269   57403.2835    51.37138        45.0058    9.51843   19.8454   26.0    0.44608  -21.44833  0.93423 
   -5.85971  0.46038  2.99576     14.37969  1.59456  0.75912   1.61054  0.32709     0.47592  13906.33742   8125.80965   0.1846         2483.78067     16.99432    5e-05  57371.47032   1.85791  0.74147   231256.30543  46.15438  18.39702   57403.2835     50.9942       44.45422   17.13318  25.38223   28.0    0.49386  -21.42702  0.96188 
   -5.92315  0.31916  3.60685     14.24379  1.79031  1.04078   1.74682  0.23238     0.07695  12808.93549   8653.70347  0.30536         3000.50012     19.89431  0.04355  57371.40688   1.70963  0.55751   703749.53728   45.5601  18.32155  57404.94902     51.1282       44.63919    15.2295  22.84424   26.5    0.46278  -21.46803  0.96471 
   -5.63352  0.01904   2.4581      14.2314  1.35698  0.83508   2.52293  0.29154     0.37985  13765.16758   9456.10605  0.36975          2804.4143     17.46096  0.00016  57371.69651   2.85165  0.04803   262290.09975  46.20144  18.28143   57403.2835    51.27278       44.83965    9.51843  21.49944   23.5    0.42683  -21.47259  0.99781 
   -5.69619   0.0505  3.02969     14.08691  1.41686  1.03829    1.7069  0.24117     0.46836  13464.57179   9337.97716  0.52474         2215.24782      19.6692  0.02594  57371.63384   1.84595  0.08619   809303.26634  45.54927  18.24107  57404.94902    51.33537       44.93035    9.51843  20.94056   28.0    0.43193  -21.48378  0.99436 
    -5.7038  0.00476   5.0616     14.30484  2.01954  1.06564   1.65283  0.25677     0.48794  13511.06429   9368.51334   0.5945         4057.82101     18.47418  0.00166  57371.62623   1.79985  0.00787  1180241.44574  45.09355  18.34445   57403.2835    51.07634       44.58887    15.2295  20.94056   28.5    0.46007  -21.43686  0.99915 
   -4.41823  0.35003  2.08422     14.56526  1.96519  1.15369   3.07789   0.2373       0.426  14761.83753   5925.22956  0.23196         4826.80958     17.76949  0.00033   57372.9118   4.00093  1.07737    58692.48411  47.15578  18.44721  57404.94902    50.92323       44.32366   20.94056   29.2422   25.5    0.51441  -21.49484  0.98264 
   -8.16751  0.11529  3.82309     14.01294  1.49007  1.29657   1.46703  0.31698     0.16719  14552.36126   8940.19922  0.01065         3797.75575     19.70414  0.02811  57369.16252   1.85325  0.16913  1905363.17283  44.99725  18.39095  57402.64555    50.91816       44.37536   17.13318  25.38223   27.0    0.43882  -21.42787  0.98371 
   -3.73828  0.25087  1.15972     14.56605  1.97399  0.98996   2.65741   0.1946     0.36158  11701.29738   5189.77964  0.27456         3834.07809      19.1621  0.00807  57373.59175   2.17047  0.66665    18187.08795  48.17572  18.22753   57403.2835    51.35688       45.00266    8.46093  18.99922   26.0     0.5295  -21.45836  0.99782 
   -6.28692  0.00135  4.73214     14.28346  2.01765  1.51517   3.11437  0.16222      0.4968  12162.78921   9311.51854  0.61898         4656.82661     16.55093    2e-05  57371.04311    2.7483  0.00421  1137247.40233  45.16772  18.25129  57404.94902    51.41248       45.01887    9.51843  20.94056   28.5     0.4221  -21.43577   0.9996 
   -4.76224  0.08036  0.97691     14.33437  1.43666  1.01846   8.62642  0.06078     0.03332  11873.56263   5680.91879  0.11787         5418.62751     16.28091    1e-05  57372.56779   7.25471  0.69322    27298.26045  48.01036   18.3465  57404.94902    51.21945       44.77336   10.36461  23.10179   26.5     0.5399  -21.45883  0.99707 
   -5.60004  0.06031  2.79197     14.23732  1.54027  0.96073   1.83634  0.26853     0.49987  13156.51355   8875.34549  0.29179         3968.27729      19.7719  0.03286  57371.72999   1.89611  0.11075   373755.54669  45.99203  18.43991   57403.2835     51.3114       44.84668   10.36461  23.10179   26.0    0.48915  -21.52595  0.99461 
   -5.98715  0.00132  2.14299     14.24829  1.56485  0.90525   2.64836   0.1675     0.48066  11491.69125   9799.38758  0.14067         3746.02093     16.36769    1e-05  57371.34288   2.08628  0.00351   212686.62315  46.47354  18.24322  57404.94902    51.38072       45.00117    9.51843  20.94056   25.5    0.45163  -21.48012   0.9999 
   -5.69474  0.28118  1.06997     14.44829  1.74023   1.0958   5.37027  0.11646     0.07122  10771.49112   9840.76661  0.15339         5820.09574     16.08193    1e-05  57371.63529   3.71685  1.51002    23473.63317  48.08013  18.30348   57403.2835    51.24908       44.83459   11.42212  20.94056   24.5    0.41521    -21.409  0.99473 
    -4.9646  0.00892  1.10929     14.34855  1.63659   1.1758   3.20598  0.16598      0.4961  12042.81313   4635.58709  0.05497         5484.25951     18.02364  0.00059  57372.36543    2.7736  0.02861    37561.84961  47.81795  18.25195   57403.2835    51.21366       44.79691   11.42212  20.94056   25.0    0.53495   -21.5157  0.99986 
   -5.52423  0.02646   5.0605     14.35575  2.12462  0.95993    2.2946  0.15609     0.49984  12512.72744   9739.75428  0.48704         4499.03641     16.89295    4e-05   57371.8058   2.14308  0.06072   981700.93604  45.19576  18.29335  57404.94902    51.21058       44.78185   11.42212  22.04428   29.5    0.43384  -21.42998  0.99393 
   -6.62731  0.01685  4.48342     14.17244  1.87415  1.42081   1.76891  0.30494     0.41616  14952.82687   9480.57709  0.32147         2055.32504     19.08059  0.00669  57370.70272   2.35928  0.02981  1581122.72485  45.03946  18.25739   57403.2835    51.17249       44.74101    9.51843  22.84424   26.5    0.44111  -21.45371  0.99717 
   -5.72232  0.00132  0.98864     14.53436  1.91733  0.80361  20.25156   0.0236         0.5  10208.25404    3235.9817  0.22893         3090.61557     16.28921    1e-05  57371.60771  12.58892  0.02672    14854.99517  48.38959  18.31281  57404.94902    51.14262       44.62404   17.13318  22.84424   27.5    0.49024  -21.41824  0.99993 
   -6.38234  0.00755  4.61519      14.2863   1.9386  1.19338   2.20608  0.25025     0.49992  12362.14744   9923.81407  0.58755         5065.29532     17.31227  0.00011  57370.94769   2.01112  0.01665  1025860.06762  45.21687  18.33715   57403.2835    50.99875       44.46401   17.13318  24.74793   26.5    0.42505  -21.46432  0.99841 
   -5.92362  0.13293  1.91641     14.25775  1.51117  1.37708    2.1956  0.25391     0.44156  12870.59381   6658.50075  0.11321         5274.63265     19.00828  0.00566  57371.40641   2.16959  0.29185   157254.61592  46.68658  18.43685  57404.94902    50.90969       44.32678   19.03687  26.65162   26.5    0.52936  -21.43185  0.99339 
   -7.00954  0.00271  3.86894     14.18679  1.91447  1.44204   2.10693  0.17954     0.16402  12401.13014   9984.81868  0.20398         3376.85882     18.14022  0.00077  57370.32049   1.93286  0.00571  1125819.42659  45.32424  18.29516  57404.94902    51.28594       44.87175    9.51843  22.84424   28.5    0.41532  -21.43901  0.99961 
   -6.63936  0.00387  4.34118      14.1816  1.85561  1.05437   1.29469  0.30311     0.49936   13720.1133   9851.22766  0.06172         3063.04205     16.01748    1e-05  57370.69067   1.45381  0.00501   1407045.3942  45.11381  18.31623  57404.94902    51.14793       44.66567   16.41856  21.65517   29.5     0.4252  -21.42271  0.99955 
   -6.00162   0.0013  4.43305      14.3454  1.85362   0.7866   1.50022  0.30383     0.42033  15058.13071   9106.64326  0.23967         2982.63943     16.62414    2e-05  57371.32841    2.0292  0.00196   689344.38674  45.40502  18.33342   57403.2835    51.02402       44.54556   17.13318  24.74793   27.0    0.47913  -21.45021  0.99982 
   -5.39964   0.1253  1.51544     14.43984   1.8268   0.9654   3.84687  0.12329     0.04544  12113.45654     3605.568  0.12295         4937.64253     19.99244   0.0546  57371.93039   3.36722  0.48201    51393.41536  47.45855  18.30173  57404.94902    51.11638       44.63982    15.2295  20.94056   26.0    0.53522  -21.52364  0.99531 
    -4.7331  0.13472  1.85329     14.68768  1.97063  0.62105   5.77819  0.08919      0.4535  12921.61124   4398.86342  0.07168         5100.05213     16.22501    1e-05  57372.59693   5.75509  0.77842    26481.88526  47.60461  18.33867   57403.2835    51.02647       44.53352   17.13318  22.84424   27.0    0.55984  -21.44965  0.98981 
   -4.81822  0.00812  1.51611     14.37161  1.72433  1.32616   4.87749  0.11779     0.37443  11900.47849   3311.93787  0.28699         3558.60479     17.87737  0.00042  57372.51181   4.12052  0.03963    66478.46621  47.32132  18.26927   57403.2835    51.26866        44.8605   10.36461  20.65326   26.0    0.50871  -21.43519  0.99959 
   -4.74628  0.00338   1.1511     14.60756  1.74963  0.57632  17.04604  0.02806     0.45769  11952.97534   4101.08424  0.03249         2278.00785     16.56054    2e-05  57372.58375   14.5279  0.05767    13117.91372   48.2717  18.55482   57403.2835    50.80654       44.18987   22.84424  32.29621   25.5    0.58203  -21.45678  0.99971 
   -6.36826   0.2109  2.47985     14.10487  1.38742  1.34556   3.86742  0.12341     0.18814  11475.23553    9769.9037  0.24015         4790.76518     18.07964  0.00067  57370.96177   3.03789  0.81566      488808.91  45.93306  18.32409  57402.64555    51.08403       44.61127    9.51843  22.84424   27.0    0.43302  -21.43435  0.96451 
   -6.09718   0.0187   4.5227     14.38293  2.04298  0.99552   1.99203  0.24722     0.42291  12258.63604   9010.28762  0.72413         3639.70423     18.43285  0.00151  57371.23285   1.78569  0.03724   665299.25322   45.4453   18.2381   57403.2835    51.28861       44.87216   11.42212  20.94056   28.5     0.4278  -21.40273  0.99686 
   -4.96107  0.01708  3.18332     14.29272  1.90944  1.26345    1.7703   0.2143     0.39355  12953.58779   9105.20423   0.1991         3484.65614     16.24746    1e-05  57372.36896   1.77196  0.03023   466705.70014  45.87495  18.32646  57404.94902    51.06847       44.55628   14.51488  25.46255   26.5    0.49527  -21.49235  0.99861 
   -5.86115  0.20449    3.519     14.38601  1.82406  0.95614   2.05699  0.24945     0.42784  13527.07575   8458.24032  0.21054         4633.56208     17.48962  0.00017  57371.46888   2.24527  0.42064   354546.01238  45.88737  18.18362  57404.94902    51.45414       45.09563   10.36461  20.09438   26.5    0.49065  -21.44278  0.97523 
   -6.62215  0.00192  1.01251     14.49553  1.67133  0.65178    7.9769  0.05712     0.48421  10604.18206    7405.7367  0.13576         3519.08089     19.81053  0.03591  57370.70788   5.35076   0.0153    16241.20659  48.27049  18.21335  57404.94902    51.41635       45.04622    9.51843   19.8454   28.0     0.4815  -21.36805  0.99994 
   -6.69696   0.2803  1.68736     14.51926  1.91943  1.17053   6.89628  0.14438     0.49464   13866.1391   9565.23018  0.07216         4890.71265     19.62545  0.02345  57370.63307   7.90957    1.933    46439.27718  47.43072  18.30911   57403.2835    51.00712       44.48037   17.13318  24.74793   25.0    0.41671  -21.36273  0.98042 
   -5.53316  0.49569   3.6027     14.58916  1.81562   0.4637   1.99825  0.25561     0.46349  14226.37078   9627.31508  0.30093         2371.98916      18.9445  0.00489  57371.79687   2.41249  0.99052    145137.1114  46.25283  18.37795  57404.94902    50.96451       44.48064   11.42212  26.65162   25.5    0.47225  -21.50524  0.94044 
   -8.76131  0.00949  4.55269      14.6388  2.00148  0.20122    2.4456  0.10539     0.02956  12815.43144   9484.18182  0.12895         5820.23473     16.90519    4e-05  57368.56872   2.39596  0.02322   203284.91548  45.94555  18.33294  57404.94902    51.18841         44.716   14.51488   21.4366   27.0    0.40064  -21.42156  0.99788 
   -4.67807  0.00658  0.84705     14.45089  1.90609  0.99766  16.47219  0.02589     0.47263  11148.24244   4405.56865  0.00686         2054.33206      19.1525  0.00789  57372.65196  12.21213  0.10845    15922.34493  48.49116  18.23671   57403.2835    51.21344       44.80878    9.51843  20.94056   26.5    0.58087  -21.49693  0.99982 
   -4.87165  0.00169  0.75153     14.44357  2.15647  1.40315   6.40933  0.06173      0.4997  10702.80079   5377.94226  0.00529         5348.79084     18.02747  0.00059  57372.45838    4.3796  0.01086    14666.08413  48.68438  18.38918  57404.94902    50.91371       44.34917   19.03687  25.98741   28.0    0.54062  -21.47313  0.99999 
    -6.3545  0.00122  1.33936     14.72798  1.88281  0.43152   9.09389  0.04722     0.05196  10728.70916   3286.91828   0.0837          3299.4766     16.06638    1e-05  57370.97553   6.24413   0.0111    10976.14036  48.24941  18.33438   57403.2835    51.11026       44.62058   13.32581  22.62566   29.5    0.49533  -21.36211  0.99992 
   -4.67456  0.00539  1.34289     14.63419  2.00931  0.69717   6.13944  0.08261     0.34534  11716.67735   5996.07307  0.24667         2485.91082     17.33674  0.00012  57372.65547   5.02765   0.0331    18136.58289  48.05725  18.27423   57403.2835    51.16602       44.73749   11.42212  20.94056   26.5    0.52369  -21.45882  0.99981 
   -5.96439  0.00102  4.35874      14.1462  1.66693  1.26894     1.581  0.30612         0.5  16345.10152   8448.07472  0.38769         2016.50034     17.64386  0.00024  57371.36564   2.51962  0.00161  1499872.21533  45.03599  18.34467   57403.2835    51.03736       44.56873   14.51488  21.65517   28.5    0.50196  -21.44301  0.99983 
   -6.19537  0.12072  4.90756     14.31039  2.13486  1.20667   1.07488  0.33446      0.4992  15330.48385   8596.67642   0.0763         2669.83558     18.07721  0.00066  57371.13466   1.50695  0.12976  1143222.25727  45.15835  18.37597  57404.94902    51.01922       44.47652    15.2295  27.28592   30.0    0.47378  -21.44526  0.98799 
   -4.67693  0.00872  3.24179     14.52361  1.82071  0.59089   2.25273  0.19552     0.16082  14394.82747   4359.83161  0.23181         4570.19514     20.48406  0.16935   57372.6531   2.78451  0.01965   159372.49397   46.3051  18.31951  57404.94902    51.04039       44.50987    15.2295  24.74793   29.0    0.55031  -21.58196  0.99899 
   -4.24197  0.05435  1.08231     14.65645  1.88421  0.61628   4.42147   0.1111     0.47517  11557.91491   4625.86114   0.1221         4437.72233     16.55546    2e-05  57373.08806   3.52332  0.24029     9971.35667  48.47652  18.36019  57404.94902    51.08154       44.60355   13.32581  24.74793   25.5    0.55286  -21.46847  0.99921 
   -4.54348  0.16525  1.09542     14.57693  2.07323  0.94919   5.40261   0.0833     0.49983   11037.3828   6695.70214  0.16072          4750.4441     17.08292    7e-05  57372.78655   3.92612  0.89281    16209.53163  48.29656  18.25586   57403.2835     51.2366       44.85489   13.32581  19.03687   27.0    0.54719  -21.50588  0.99764 
   -5.76444  0.48878  2.37839     14.29805  1.45835  0.78628   2.04633  0.25774     0.49171  12777.78686   9437.78482  0.15812         2950.97215     16.42936    1e-05  57371.56559   1.99303   1.0002   194157.30825  46.39199  18.34118   57403.2835    51.11738       44.63135    9.51843  22.84424   25.5    0.44907  -21.45875  0.96305 
   -4.40952  0.01237   1.5645     14.50374  2.16385  1.44173   2.39275  0.22382     0.44231  12721.88532   6724.92301   0.0666         2891.53724     19.60638  0.02244  57372.92051   2.31009  0.02959    48341.73929    47.531  18.23381  57404.94902    51.32637        44.9265    9.51843  21.49944   25.0    0.54887  -21.45695  0.99978 
   -5.99797   0.0395  3.07107      14.1886  1.51316  0.88891    2.0432  0.19587         0.5  12793.66511   9437.55541  0.28649         2726.34958     18.16292  0.00081  57371.33206   1.99493   0.0807   555995.43648  45.72908  18.21698   57403.2835    51.37692       45.00797    7.61475   19.8454   27.5     0.4365  -21.44625  0.99509 
   -7.30041  0.00364  4.37173     14.22245   1.7441  0.81928   1.55835   0.2813     0.39145  13857.51185   9670.11651  0.32186         3402.48877      18.1724  0.00083  57370.02962    1.7851  0.00567  1111190.28363  45.18332  18.32008  57404.94902    50.95851       44.39989   19.03687  26.65162   29.5    0.41062  -21.42959  0.99943 
   -5.79412   0.1021  2.01775      14.3275  1.59596  1.36519   2.50653  0.31557     0.49786  14302.35213   4046.45367  0.02214         3129.22248     19.45458  0.01582  57371.53591   3.05855  0.25591   133528.06839  46.73656  18.33929   57403.2835    50.98861       44.43545   17.13318  26.65162   26.0    0.49404  -21.40328  0.99414 
   -4.27069  0.25266  2.00735     14.47988  1.93142  1.35182   4.64774  0.11956     0.37677  13857.06524   4151.37428  0.09177         4617.00747     17.09281    7e-05  57373.05934   5.32367  1.17431    79282.75204   47.0503  18.25081  57402.64555    51.27828       44.87351   13.32581  17.69207   26.5    0.57515  -21.45319  0.98138 
    -4.4169  0.02726  0.81593     14.65725  2.11928   0.8657  14.90059  0.03998     0.43132  12456.47511   5050.08781  0.02324         3911.50479     19.26307  0.01018  57372.91313   13.7918  0.40621     6350.50985  48.96892  18.36339   57403.2835    51.05533       44.58784   13.32581  22.62566   22.0     0.5699  -21.82735  0.99969 
   -5.00466   0.0148  1.12856     14.55654  1.64582  0.56716   7.50092  0.05804     0.43338   11393.0519   6295.21631  0.15972         3760.33399     17.32483  0.00012  57372.32537   5.80793  0.11098    15002.49503  48.20402   18.2532   57403.2835    51.22615       44.77994   13.32581   20.1406   26.5    0.57176  -21.51874  0.99938 
   -4.86606  0.00716  0.87561     14.50256  1.66358  0.68277   8.04104  0.05662     0.49996  11477.68312   3081.00394   0.0329         2127.24256      19.2812  0.01062  57372.46397   6.31899   0.0576    11704.95632   48.5369   18.3763   57403.2835    50.98585       44.50416    15.2295  22.84424   26.5    0.56347   -21.4532  0.99986 
   -6.01585  0.01434  4.29917     14.26517   1.8975  1.06068    1.3155  0.28175     0.49981  11574.45573   9887.86437  0.54576         4294.69227     18.37328  0.00131  57371.31418   1.05129  0.01886   960345.51098  45.29783  18.42926  57404.94902    50.94103       44.35386   20.94056  26.65162   29.0    0.42038  -21.43105  0.99839 
    -5.5793   0.4336  2.27431     14.45507  1.61137  0.61813   1.71004  0.25898     0.49926   12246.3379   8775.66407  0.06462          3907.3354        17.11    7e-05  57371.75073   1.52984  0.74147    95184.40153  46.78377  18.31823   57403.2835    51.11148       44.65472   13.32581  20.94056   27.0    0.49108  -21.43466  0.97823 
   -4.74774  0.00901  0.89739     14.43565  1.51271  0.70594  18.84034  0.02458     0.29335  11636.45051   6228.48923  0.00108         4912.98838     16.32541    1e-05  57372.58229  15.21798  0.16967    15213.70552   48.3604  18.48215  57404.94902    50.86858       44.26172   20.94056  27.33851   26.0    0.56184   -21.4551  0.99944 
   -4.72669  0.22909  1.72182     14.43117  1.91498  1.40962   2.86073  0.15294     0.05994   8510.86011   6030.01914   0.5439         5905.38537     17.84041  0.00038  57372.60334   1.23609  0.65536    72377.96528  47.21943  18.32325  57404.94902    51.19339       44.76071   11.42212  22.04428   30.0    0.43397   -21.4425  0.99236 
   -6.10038  0.02547  4.08492     14.35793  1.92391  0.85785   1.40107  0.29669     0.49707  13653.40819   9159.43419  0.11659         5913.05638     17.97735  0.00053  57371.22965     1.558  0.03569   573456.01326  45.57216  18.25954  57404.94902    51.29179       44.88221   10.36461  20.65326   27.5    0.47266  -21.46924  0.99731 
   -7.50681  0.01349  3.60087     14.09899   1.6266   1.1173   1.42216  0.30475         0.5    13542.572   9841.74242  0.11755         2405.93715     19.94806  0.04929  57369.82322   1.55588  0.01918  1241445.42045  45.27338  18.25072   57403.2835     51.1311       44.69108   11.42212  22.62566   28.0    0.42669   -21.4736  0.99855 
    -4.7266  0.03272  1.27139     14.41778  1.94662  1.35734  11.55956   0.0385     0.24568  11653.88237   3260.44835  0.00116         2116.40685     17.76472  0.00032  57372.60343   9.36504  0.37828    42668.27612  47.71946  18.26836   57403.2835    51.25725       44.83986   10.36461  20.65326   27.0    0.56727  -21.43493  0.99799 
   -5.13381  0.00664  0.97035     14.41309   2.0544  1.51995  16.60707  0.02353         0.5  10473.28634   6246.06369  0.08465          3665.4099      16.4407    2e-05  57372.19622  10.86641  0.11022    26802.71438   48.1795  18.29354   57403.2835    51.10217       44.61469    15.2295  22.84424   27.5    0.54555   -21.4781  0.99975 
   -5.81998  0.44565  2.75566     14.45935  1.67857   0.8116   3.18267  0.24888     0.30761  14244.11558   8933.00838  0.17026         3200.56052     18.29672   0.0011  57371.51005   3.85203  1.41835   142729.47025  46.45882  18.32922  57404.94902    51.18495       44.73616   10.36461  23.10179   25.0    0.43621  -21.42628  0.94451 
   -6.35987   0.0035  1.33733     14.38064  1.81837  1.05823   5.33157  0.07915     0.42688  10221.37492   4140.36097  0.04957         3803.36033       18.382  0.00134  57370.97016   3.32278  0.01866    52323.97557  47.55735  18.31627   57403.2835    51.19103       44.73395    9.51843  23.94797   30.5    0.49134  -21.31253  0.99986 
   -7.38792  0.04589  5.25073     14.06208  1.64871  1.29325   1.55175  0.30943     0.25127  15044.98195   8843.36987  0.45273         5873.03989     18.97048  0.00519  57369.94211   2.09523  0.07121  3171298.04475  44.54431  18.34277   57403.2835    51.07702       44.59834    9.51843  24.52935   31.5    0.41966  -21.37749   0.9887 
   -5.21395  0.00724  0.76989     14.71374  2.17711  0.59929  18.19433  0.02331         0.5  10949.45371   5255.32157  0.00239         2568.09011     18.00593  0.00056  57372.11608  13.01212  0.13175      4477.7869  49.18281  18.20331  57404.94902    51.46037       45.09039    7.87412  20.68118   26.5    0.56896  -21.49336  0.99989 
