 texplosion  fnickel    Pspin  log(Bfield)      Mns  thetaPB   mejecta    kappa  kappagamma      vejecta  temperature    alpha  cutoff_wavelength  log(nhhost)      A_V         MJD0  kenergy  mnickel             TSD   log(L0)  Peak_mag     Peak_MJD  log(E_rad)  log(Peak_lum)  Rise_Time    E_fold  tau_1  delta_m15     r_peak     frac 
   -7.84836  0.01847  2.19955     14.09217  1.92491   0.7257   6.89545  0.19811     0.01715  10726.68983    3787.1626  1.50891         4615.52613     18.55693    0.002  53779.35164  4.73283  0.12733    565651.28395  46.11604  21.58196  53846.60184    51.39918        44.7267   30.81823  35.55949   38.0    0.23764  -22.55981  0.99721 
   -6.71571  0.44252  2.95851     14.22152  2.01647  0.55073   3.84594   0.2134     0.01481   7836.42872    4954.3836   1.7763         4126.53581     16.32806    1e-05  53780.48429  1.40886  1.70189    590898.76056  45.85978  21.30945  53851.79115    51.48032       44.83764   27.26228  33.18886   40.5    0.24608  -22.12599  0.94021 
   -5.52636  0.00599  2.38864     13.99088  1.73348  0.77633   3.09187   0.3022     0.03597  10851.79053   5802.04675  2.18626         4052.39471     18.36424  0.00129  53781.67364  2.17196  0.01851    957790.18902  45.77019  21.19046  53854.38581    51.44515       44.79137   32.00354  33.18886   36.0    0.28853    -22.534  0.99944 
   -6.46397  0.01238  2.12493     14.04272  1.72166  0.77274   5.72375  0.11274     0.01214   7743.95934   5296.81497  1.49601         4609.50696     16.55278    2e-05  53780.73603  2.04755  0.07085    592931.32877   46.0771  21.70797  53849.19649    51.36326       44.73336   24.89165  33.18886   38.0    0.26156  -22.37071  0.99829 
   -8.01154  0.05855  2.71319     13.70308  1.49209  0.91605   1.68409  0.23701     0.01348   5389.45101   6328.37812  3.57849         3420.97315     16.02329    1e-05  53779.18846   0.2918  0.09861   4003163.22662  44.97328  21.47171  53836.22321    51.40012       44.76252   22.52101  33.18886   44.5    0.25022  -21.83262  0.99502 
   -6.33992  0.00962  1.69255     13.20961  1.81178  1.19242   4.79839  0.31735     0.02031  13627.96164   4600.32959  1.18933         2702.78433     18.46399  0.00162  53780.86008    5.316  0.04618  18356070.28964  44.80609  21.79567  53851.79115    51.36577       44.68723   33.18886  36.74481   53.0      0.183   -22.3403  0.99924 
    -7.3838  0.17322  2.94393     13.94565  2.03818  1.00564   6.42817  0.07238     0.01323   9832.63161   4698.41362  1.96911         3401.82536     18.49412  0.00173   53779.8162  3.70727  1.11346   2106768.88344  45.31662  21.43253  53841.41252    51.36814       44.72886   27.26228  33.18886   42.5    0.29287  -22.26962  0.96077 
   -5.96776  0.00657  2.90654     14.35994   1.9089  0.56952   5.34933  0.09129     0.01275   5432.60204    3131.7266   4.0259         3889.47149     18.99092  0.00544  53781.23224  0.94176  0.03513     285413.5658   46.1674  21.53521  53838.81786    51.58634        44.9038    28.4476  36.74481   39.5    0.24975  -22.16815  0.99864 
   -7.03243  0.11245   3.3684     14.09504  1.86774  1.49113   5.31518  0.06806      0.0433   5181.02869   3880.09199  2.20521         2913.29872     16.42801    1e-05  53780.16757  0.85109  0.59768   1270301.91654  45.38141  21.63939  53854.38581    51.38713       44.69622   33.18886  35.55949   63.0    0.21041  -21.24591   0.9688 
   -3.81693   0.1085  2.56985     14.13843  1.86745  0.88514   2.45715  0.32159     0.02413   8969.99116   4917.86494  3.47283         2841.67143       20.053  0.06277  53783.38307  1.17935  0.26661    605368.67989  45.93826  21.10031  53851.79115    51.49105       44.85696   30.81823  33.18886   35.5    0.29638  -21.98625  0.99173 
   -6.37333  0.00842  2.31185      13.6412  1.29048  0.86463   2.13363  0.26426     0.09646  12124.26615   4403.08478  2.98312         2998.35259      17.5044  0.00018  53780.82667  1.87093  0.01796   3342641.27611  45.12759  21.18437  53838.81786    51.47678       44.87728   26.07696  29.63291   49.5    0.23356  -22.20696  0.99918 
   -5.37095  0.03349  1.69388     14.02967  1.88089   0.8652   4.43565  0.26589     0.02665  10524.54316   3080.77806  0.54465         3976.97799     18.70664  0.00283  53781.82905  2.93083  0.14856    437116.75389  46.44485  21.14084  53833.62855    51.58219       44.95359    21.3357  32.00354   38.5    0.23432  -22.31294  0.99801 
    -6.4137  0.00276  2.46353     13.70194  1.30211  0.94791   4.65564  0.08216     0.01595    7960.9177   4085.05951   3.8377         3137.64184     17.11092    7e-05   53780.7863  1.76008  0.01285   2895297.79398  45.13868  21.80845  53841.41252    51.26919       44.63697   27.26228  33.18886   45.5     0.2701  -22.04222  0.99935 
   -6.98792  0.48111  1.79788     13.93255  1.62717  0.92768   6.44647  0.17295     0.02034  10050.42397   3264.95819  0.25082         2158.91403     19.58165   0.0212  53780.21208  3.88435  3.10145    666305.12091  46.14708  21.47367  53854.38581    51.45368       44.75138   33.18886  37.93013   43.0    0.20952   -22.0047  0.94484 
      -5.76  0.01243  2.53549     13.77759  1.81226  1.10651   2.34719  0.20524     0.02812  10068.48572   4483.52822  1.59179         3979.79915     19.45943    0.016     53781.44  1.41939  0.02919   3012859.48597  45.23996  21.96832  53854.38581    51.29453       44.59883   34.37418  36.74481   38.5    0.32239  -22.41391  0.99905 
   -6.20835  0.35422   1.8744     13.61978  1.73569  0.87318   5.58757  0.31118     0.01017  12097.78707   4957.29693  2.23538         3053.21905     18.48417  0.00169  53780.99165  4.87823  1.97925   3261748.37233  45.44914  21.55633  53838.81786    51.48108       44.90017   20.15038  30.81823   44.0    0.22743  -22.40234  0.96327 
   -7.26514  0.29441  2.17152     13.73302  1.81522  0.68142   4.29042  0.26222     0.02576  12144.38048   4279.11764  1.04171         3355.65775     18.59942  0.00221  53779.93486  3.77465  1.26313   2717907.25573  45.42001  21.21734  53854.38581    51.51225       44.86613   30.81823  33.18886   46.0    0.21122   -22.4203  0.97004 
    -3.2066  0.00461  2.20249     13.93299  1.90652  1.01349  15.78975  0.13172     0.01041   6087.36463   8476.09611  1.20049         4247.85269     16.87285    4e-05   53783.9934  3.49029  0.07272    1169243.6664  45.79535  21.34911  53836.22321    51.51925       44.89684   23.70633  32.00354   59.5    0.08151  -21.89881  0.99837 
   -8.85649  0.00261   2.8811     14.01131  1.52279  0.68303   5.16061  0.15612     0.01446   8046.07353   5541.06389  2.95621         2641.70334     18.49096  0.00172  53778.34351  1.99295  0.01345    1114173.4032  45.48541  21.62751  53825.84457    51.32515       44.70544   18.96506  35.55949   43.5    0.21152  -21.56202  0.99927 
    -5.3339  0.04333  2.08007     13.78807  1.50899  0.68464    4.7048  0.13475     0.01231   9225.21025   5473.47495  2.93235         4065.66406     17.24623   0.0001   53781.8661  2.38848  0.20388   1608884.00733  45.60485  21.25667  53828.43923    51.43878       44.89044   18.96506  26.07696   36.0    0.31784  -22.77206  0.99415 
    -6.4748  0.03221  1.49681     13.44382  1.45169  1.19399   3.50839  0.29183     0.01234   9801.81222   3224.31159  1.45496         3637.27289     18.39332  0.00137   53780.7252   2.0107    0.113   3911876.66413    45.488  21.81751  53844.00718    51.26413       44.59972    28.4476  35.55949   43.0    0.25046  -22.58107  0.99821 
  -10.32929  0.05756  2.03689     13.77233  1.81359  0.49539    2.7162  0.30738     0.01731   9606.02544    3809.6148   2.4401         4362.31184     16.62648    2e-05  53776.87071  1.49512  0.15635   1993548.89531  45.60982  21.29135  53838.81786    51.44255       44.84024   24.89165  30.81823   41.5    0.25963  -22.76926  0.99659 
   -3.95822  0.03841  2.03518     14.20435  1.78848  0.45746   5.94108  0.19725      0.0171  10122.14513   4956.98979  2.13498         4118.90086     19.64984  0.02481  53783.24178   3.6311  0.22818    268417.91092  46.47531  21.53614  53841.41252    51.40688       44.74836   26.07696  34.52816   37.5    0.25148   -22.6566  0.99523 
   -4.22412  0.01593  1.43003     13.64911  1.25052  1.20692  12.84458   0.0649     0.01196   8758.14758   3721.13135  2.80948         4994.92132     17.40678  0.00014  53782.97588  5.87722  0.20462   1195016.39497  45.97787  21.13174  53841.41252    51.49065       44.88827   24.89165  30.81823   39.0    0.23735  -23.27321  0.99639 
   -7.53079   0.0353  1.54124     13.26098  1.68066  0.80553   5.08061  0.27502     0.01527  14725.83276   3537.89045  2.72538         2902.05355     18.88025  0.00422  53779.66921  6.57208  0.17935  11144835.40772  45.07151  21.36112  53838.81786    51.46989       44.85067   26.07696  32.00354   48.0    0.22496  -22.45598  0.99726 
   -4.99986  0.00422  2.07534     14.07487  1.73058  0.64219   7.01478   0.1569     0.01055   8124.55603   5363.01228  2.20461         4224.97462     17.02102    6e-05  53782.20014  2.76211  0.02957    490281.87749  46.18241  21.48095  53838.81786    51.39092       44.75624   26.07696  34.37418   40.0    0.22413  -22.46671  0.99932 
   -4.59916  0.10863  1.34605     14.21571  1.20924  0.30064   4.27831  0.25835     0.02721   10108.5466   3927.17105  1.84908         2333.16734     17.20365    9e-05  53782.60084  2.60781  0.46474     75340.86373  47.21621  21.94785  53846.60184    51.24175       44.51075    29.8148  43.67482   40.0    0.21103  -22.08162  0.99243 
    -6.4243  0.01745  2.25377     14.10988  1.84544  0.86599   9.63194  0.08726     0.04716   9231.16457   4418.04453  1.05963         3468.99356     18.74179  0.00307   53780.7757  4.89614  0.16804    524778.26608  46.10915  21.84538  53851.79115    51.24242        44.5469   33.18886  36.74481   49.5    0.21592  -21.98817   0.9959 
   -6.05345  0.00718   2.0432     14.02269  1.64222  0.88591  10.74633  0.07853     0.01064   9035.55389   3603.15337  0.94683         3871.39888     16.35499    1e-05  53781.14655  5.23355   0.0772     573452.9721  46.10516  20.97362  53846.60184    51.47632       44.87459    28.4476  29.63291   40.0    0.23412  -22.01553  0.99815 
   -6.26462  0.35355  2.23735     14.13751  1.92175    0.674   3.93654  0.28343     0.02521  10643.34183    4198.3494  2.40685         3622.40688     17.30309  0.00011  53780.93538   2.6601  1.39177    474195.77425  46.17711  21.03402  53851.79115    51.44483       44.80617   29.63291  32.00354   37.0    0.26891  -22.53231  0.96928 
   -7.55012  0.04706  1.67604       13.896  1.41942  0.77753    7.0035  0.18651     0.01826  10546.91284    4339.6439  1.23097         3650.78741     18.63814  0.00241  53779.64988  4.64722   0.3296    597727.15604  46.19588  22.19514  53851.79115     51.3206       44.54437   35.55949  47.41266   39.5    0.21562  -22.29264  0.99342 
   -8.29575  0.07607  1.17636     13.57271  1.39478  0.78608   6.31709   0.2588     0.01829  12996.28155   3710.13545  0.51668          5669.4455     20.58419  0.21326  53778.90425  6.36476  0.48053   1282264.85176   46.1643  20.95912  53849.19649    51.62644       44.98865   26.07696  33.18886   41.0    0.22316    -23.009  0.99509 
   -3.62513  0.00629  3.02205     13.54718  1.85518  1.26566   8.16998  0.08716     0.01517   6024.16589   5833.52139  0.72841         2245.75582      17.7031  0.00028  53783.57487  1.76865  0.05135  12660529.40088  44.47418  21.35249  53838.81786    51.43739       44.80894   24.89165  33.18886   84.5    0.07471  -21.39364  0.99752 
   -4.67241  0.01017  2.50588     14.01908  1.91849  0.82135   4.68848   0.1657     0.01516   7909.12779   4277.17232  1.67012         4830.85816     17.63799  0.00024  53782.52759  1.74951   0.0477   1024567.99143  45.74334   21.5379  53844.00718    51.39611        44.7503   26.07696  34.52816   40.0    0.24174  -22.45816  0.99863 
   -4.04443   0.0044  2.63363     14.11048  1.69652  0.62566   3.61373  0.28072     0.02543    6838.4575   5955.87852  3.29252         3571.58741     17.59053  0.00022  53783.15557  1.00809  0.01589    656948.34018  45.83977  21.54853  53841.41252    51.39363       44.81187    21.3357  29.63291   47.5    0.16092  -21.97352  0.99939 
   -5.87849  0.46952  1.25744     13.85684   1.2633  0.77584  10.61814  0.20222     0.01044  10672.69187   5002.05428  0.91434         4818.04675     16.22313    1e-05  53781.32151  7.21479  4.98542    358610.88317  46.61675  21.75296      53847.0    51.29569       44.62529    29.8148   35.3776   41.5    0.19869  -22.41553  0.93739 
   -6.82804  0.00221  2.76712     13.87711  2.06165  1.16304   4.19317  0.20722     0.03498   7733.24328   3170.35206  3.40665         3713.72526     17.20256    9e-05  53780.37196  1.49587  0.00926   2581515.84186  45.28713  21.96708  53864.76444    51.37542       44.63102   40.30076  41.48608   52.5    0.17065  -22.43835   0.9997 
   -7.69734  0.00197  3.07052     14.37747  2.13659  0.35445   5.60974  0.07963     0.01226   7204.45368   6185.16208  2.47454          3688.1833     18.23605  0.00096  53779.50266  1.73689  0.01107    328866.27359  46.10712  21.65658  53856.98047    51.43551       44.71535   24.89165  41.48608   45.0    0.24637  -22.23724  0.99959 
   -5.76258  0.00334   2.5344     13.99442  1.75061  0.82686    3.2821   0.2344     0.02701   8353.68502   5825.30753  2.88823         3080.68424     16.60503    2e-05  53781.43742  1.36626  0.01095   1071334.80442  45.67436  21.60772  53851.79115    51.40031       44.70711   27.26228  36.74481   43.0    0.22093  -22.08091  0.99963 
   -7.83241  0.38212   2.3816      13.9653   1.7798  0.51647   5.03322  0.15565     0.01556   10960.1419   3294.95589  2.33554         3885.93295     17.67103  0.00026  53779.36759  3.60666  1.92332   1099807.67699  45.72416  21.92753  53864.76444    51.25475       44.46107   40.30076  47.41266   38.5    0.29614  -22.64118  0.94592 
   -6.22301  0.15664  2.44698     14.14326  2.14846  0.95279   3.42448   0.2965     0.02436   8899.70311    4978.3483  1.06478         3947.52799     17.18667    9e-05  53780.97699  1.61798  0.53642    617576.21313  46.03302   21.4363  53854.38581    51.42533        44.7342   32.00354  37.93013   39.0    0.23442  -22.08485  0.98782 
   -8.13267  0.03258  2.02823     13.69015  1.77317  0.55612   4.50588  0.24035     0.01392  11705.76196    4224.3426  1.93066         3369.53151     17.31558  0.00011  53779.06733  3.68304   0.1468    2821606.8267  45.45287  21.82609  53849.19649    51.29465       44.62341   30.81823  35.55949   45.5    0.23953  -22.38106  0.99669 
   -6.88977  0.04138   2.6594      13.9592  1.93943  0.86699   3.50105  0.14342     0.01041   7926.26197   4594.42398  1.37071         3039.45323     17.17534    8e-05  53780.31023  1.31209  0.14488   1536957.73593  45.52029  21.43517  53851.79115    51.44651       44.78376   30.81823  34.37418   41.0    0.28131  -21.87849  0.99537 
   -6.30874   0.0076  2.32052     14.48342  2.00971  0.26998   5.49386  0.20014     0.03344  10164.26664   3827.42739  1.48067         5721.29891     19.11572  0.00725  53780.89126  3.38577  0.04175    108463.34618  46.80553  21.89865  53854.38581    51.27414       44.57217   33.18886  37.93013   40.5    0.20842  -22.83563  0.99904 
   -6.60101  0.02068  2.16066     13.89422  1.71937   1.1912   6.79291  0.18717     0.02463  10428.97628   3002.13443  1.08768         5507.70194     17.07368    7e-05  53780.59899  4.40724   0.1405   1213144.00686  45.75113  20.82082  53841.41252    51.45138       44.87864   27.26228   28.4476   40.0    0.21715  -22.48671  0.99648 
   -6.87221   0.0051   2.6266     13.51905  2.04481  1.53334   2.39472  0.20463      0.0939  11405.34376   6465.92526  2.78338         3130.17508     16.50916    2e-05  53780.32779  1.85823  0.01222  11999498.14393  44.66155  22.32062  53844.00718    51.13802       44.44075   30.81823  39.11544   67.0    0.13782  -22.36195  0.99962 
   -6.00831  0.00378  2.00063     13.81807  1.50989   1.4202   6.74901  0.06243       0.011   8009.52544    5201.3536  0.70168         4075.22789     18.02022  0.00058  53781.19169  2.58274  0.02551   1297070.39252  45.73249  21.95846  53841.41252    51.26744       44.56123    29.8148  40.11887   43.0    0.26722  -21.89551  0.99933 
   -7.05739  0.27065  1.56662      13.4986  1.22227  0.71566   4.48503  0.11081     0.01044  11373.01718   7502.67167  0.61849         4496.34516     16.32367    1e-05  53780.14261  3.46054  1.21387   2803578.80809  45.51837  21.62743  53841.41252    51.38022        44.7368   27.26228  34.37418   39.5    0.30587  -22.36959  0.97312 
   -4.69077  0.02455  1.99807     13.90538  1.52191  1.00965   4.57614  0.27366     0.01194   6126.78388   4593.75401  2.67596         3498.67476     16.17272    1e-05  53782.50923  1.02469  0.11233    872297.87008  45.90935  21.54712      53847.0     51.3991        44.7439   29.63291  34.37418   47.5    0.15845  -21.87753  0.99712 
   -3.92234  0.02842  2.29182     13.91925  1.53776  1.36017  10.65949  0.07256     0.01254   7877.44112   4033.46016  2.18138         3952.62684     17.80759  0.00036  53783.27766  3.94579  0.30293   1087862.85944   45.6988  21.52579  53851.79115    51.40064       44.74011    29.8148   35.3776   42.5    0.22351  -22.09263  0.99001 
   -6.05266  0.01466  2.04712       14.097  1.62071  0.56657   9.05474  0.11813     0.01059   9002.22602   3043.91251  2.28713         3814.80611     17.80216  0.00035  53781.14734  4.37727  0.13273    403468.04182  46.25046  21.11617  53849.19649    51.58631       44.93512    29.8148  33.00697   40.0    0.22505  -22.38951  0.99674 
   -4.94928  0.04775  2.91741     14.06373   2.0078  1.38694   7.48073  0.11213     0.02018   7284.05486   5080.00467  1.59432         3110.37868     16.68325    3e-05  53782.25072  2.36765  0.35723   1183217.91442  45.56851  21.37443  53841.41252    51.39607       44.78409   27.26228  30.81823   51.0    0.16838  -21.64396  0.98721 
   -8.16191  0.00361  2.32162     13.78233  1.59762  0.65894   2.59459  0.31127     0.04112   9287.17236   3624.56076  3.15079         4804.76216     16.80779    4e-05  53779.03809  1.33494  0.00935   2178760.84084  45.40253  21.38791  53844.00718    51.37433       44.72765   24.89165  35.71347   42.0     0.2276   -22.8888  0.99969 
    -7.4708  0.00371  2.64449     14.06956  1.70461  0.72008   5.50248   0.2585     0.04221   9812.06207   3770.12358   3.9109         4106.73358     16.36218    1e-05   53779.7292  3.16014  0.02041    803549.38332  45.75077  21.71809  53844.00718     51.2844       44.65643   30.81823  30.97221   45.0    0.17766  -22.36427  0.99922 
   -5.11248  0.02864  2.55299     13.84328  1.74095  0.94621    2.8405  0.16057     0.01187   8408.82927    3094.6596  1.80367         3751.37398     17.04899    6e-05  53782.08752   1.1981  0.08135   2168379.39227   45.3594  21.28751  53849.19649    51.59461       45.00556   23.05129  30.28796   36.0    0.34646  -22.19121  0.99716 
   -6.49536  0.00356   2.3461     13.85226  1.58959  1.47053    3.4746  0.11931     0.02779   9504.17653   3740.84245  0.59028         5693.77981     17.25839   0.0001  53780.70464  1.87224  0.01236   1604230.54545  45.52417  21.49617  53841.41252    51.36371       44.73013   26.07696  33.18886   39.5    0.29795  -22.06657  0.99959 
   -6.61876   0.0014  1.68497     14.08741  1.43105  0.52553  11.27381  0.09877     0.01106   8807.28901   5017.63438   1.3961         5531.32006     18.50288  0.00177  53780.58124  5.21654  0.01582    252252.05821  46.56948  21.60519  53854.38581    51.27747       44.60765   32.00354  34.37418   39.5    0.20528  -22.56642  0.99968 
   -7.65973   0.1089  1.70188     14.13504  1.84241  0.68207   7.72992  0.33258     0.02355  10251.42458   3169.86412   1.5459         3778.79293     17.01146    6e-05  53779.54027  4.84585  0.84182    266055.66405   46.6474  21.96251  53844.00718    51.38812       44.68213   30.81823  39.11544   46.0    0.15049  -22.29214  0.98839 
   -6.59049  0.03801  2.50079     14.37803  1.92736  0.35912   7.69615  0.09498     0.01007   8362.27075     4563.921  2.56183         3926.46563     17.43378  0.00015  53780.60951  3.21032  0.29253    196281.22241  46.46477  21.83788   53867.3591    51.44921       44.69237   40.30076  42.67139   38.0    0.26098  -22.48298  0.99175 
   -9.18829   0.0139   3.2458     14.11023  2.14054  0.97325   8.95539  0.05411      0.0204   6404.32824   3380.35174  2.55121         4532.44535     16.23202    1e-05  53778.01171  2.19108  0.12445   1260446.04441   45.4762   21.1136  53846.60184    51.36992       44.73665   29.63291  32.00354   47.5     0.2401  -22.33867  0.99492 
   -7.24061  0.04719  1.51359     13.53947  1.20887  0.96945   6.54361  0.11655     0.01093  10202.88807   4911.08003   0.7576         3470.61556     18.00542  0.00056  53779.95939  4.06341   0.3088   2144281.92861  45.65993  21.44501  53836.22321    51.48132       44.69459   24.89165  54.52456   41.5    0.26693  -22.29216  0.99352 
   -6.68046  0.01327  1.47325     12.98927   1.4848  1.27683  11.88718  0.04044     0.01126  11178.58456   3300.17397   2.7689         2401.91103     16.00478    1e-05  53780.51954  8.86094  0.15772  31440731.87536  44.60647  21.09115  53844.00718    51.49751       44.91252    28.4476  27.26228   73.5    0.11301  -22.30719  0.99716 
   -6.72461  0.00842  2.68587     14.15844  2.05431  0.67111   4.00621  0.26813     0.04816   9188.89475   5627.90723  1.30072         3500.90046      18.6025  0.00222  53780.47539  2.01785  0.03375    663389.26724  45.90157   21.5411  53856.98047      51.428        44.7617    29.8148   35.3776   48.5    0.16873  -22.06919  0.99899 
   -6.27851  0.20829  1.92986     13.90744  1.48571  0.88798    9.0391  0.11769     0.01205   9739.12394   5279.55296   1.6546         3437.98276     17.63191  0.00024  53780.92149  5.11437  1.88271    786883.81838  45.97382  21.56509  53859.57513    51.48691        44.7726   34.37418  39.11544   40.5    0.23257  -22.21056  0.95521 
   -6.01725  0.42063  3.03681     14.05645  2.06075  0.93883   4.47288    0.084     0.02921  10692.55937   3255.21841  2.22828         2978.52722     16.89049    4e-05  53781.18275  3.05055  1.88143   1360771.43639  45.48425  21.34315  53841.41252    51.36864       44.76847    21.3357  32.00354   46.5    0.29524   -22.2215  0.93312 
   -7.78621  0.01492   1.9323     13.98568  1.57625  0.77094   8.40708  0.08401     0.01176   9516.02593   3605.38939  1.15879         4674.99221     17.42435  0.00015  53779.41379  4.54133  0.12542    583761.78495  46.12808  20.97028  53875.14307    51.70407       44.94598   35.55949  43.85671   37.0    0.27676  -22.40768  0.99714 
   -4.89158  0.22743  2.29263     13.71209  1.99653  1.31156   3.53528  0.32351     0.02578  10544.80113   3803.90809  1.32274         2650.79512     20.47795  0.16698  53782.30842  2.34492  0.80403   3669246.25987  45.28388  21.21027  53849.19649    51.47081       44.89418   26.07696  27.26228   46.5    0.20745  -22.26468  0.98175 
   -4.92154  0.00197  2.51225     13.66297   1.7621  1.43495   5.55818  0.02162     0.01484   6419.23153   6945.79647  2.32853          4662.5333     19.69555  0.02756  53782.27846  1.36624  0.01094   4875738.71139  45.02671  21.58143  53854.38581    51.28309       44.62334   30.81823  34.37418   58.5    0.28439   -22.7481  0.99963 
   -6.37123  0.02648  2.07835     13.48516  1.66071  1.07673   2.62783  0.30525     0.04178   10140.8316   4627.45804  1.92619         3595.80271     18.13836  0.00076  53780.82877  1.61202  0.06958   7132298.20808  45.00048  22.01713  53851.79115    51.25285       44.53372   34.37418  40.30076   53.0    0.18999  -22.48655   0.9982 
   -7.60633  0.00292   2.9069     14.09696  1.89148  0.81927   2.68254  0.29766     0.04463   7993.73949   3820.82978   2.5665         3369.45358      17.0592    6e-05  53779.59367  1.02252  0.00783    949649.43044  45.64122  21.19725  53831.03389    51.42043        44.8704   20.15038  27.26228   45.5    0.20311  -21.96127  0.99969 
    -6.5456   0.0054  1.92108      13.5452  1.39105   0.8903   2.38949  0.20303     0.01978   9683.87349    4721.0033  1.22329         4224.30542     17.56279   0.0002   53780.6544  1.33669  0.01291   3871210.76849  45.25725  22.11157  53844.00718    51.23326       44.53576   32.00354  37.93013   41.0    0.30243  -22.36296  0.99964 
   -7.88576  0.12786  2.01926     13.84459   1.8526  0.58583   3.11135  0.24182     0.02519   11836.5763   4352.80384  0.94575         2708.22611     18.76087   0.0032  53779.31424  2.60033  0.39782   1434849.41604  45.76944  21.68385  53841.41252    51.30908       44.65449    28.4476  34.37418   44.5    0.24369  -22.39519  0.99204 
   -8.76434    0.021  1.83645     13.52898  1.60902  0.82676   4.18897  0.11713     0.01119  11432.13065   5767.67858  0.78142         3419.64977     19.48059   0.0168  53778.43566   3.2658  0.08796   4409250.66107  45.30309  21.60423  53851.79115    51.35401       44.66301    29.8148  37.74823   44.5     0.2782  -22.29425  0.99815 
   -4.91693  0.00339  2.51433      14.0715   1.8894    1.007  11.18033  0.05352     0.01556   7839.11698   6356.01108  2.19219         4608.75133     16.81618    4e-05  53782.28307  4.09842  0.03795    797961.93621  45.84234  21.58531  53851.79115     51.3739       44.68388   33.18886  36.74481   40.5    0.26793  -22.51491  0.99888 
   -4.75341  0.07076  1.88367     13.89992  1.77837  0.38519   2.20709  0.32907     0.02612  12577.67541   7024.92702  0.60701         3974.11247     19.33593  0.01204  53782.44659   2.0828  0.15616    928989.53996  46.00085   21.0887  53849.19649    51.51127       44.91621   27.26228  29.63291   41.0    0.28009  -22.46446  0.99705 
   -7.23773  0.00434  2.15762     13.85956  1.69678  0.97249   4.66632  0.30778     0.02574  10971.65085   5847.29892  1.39319         3830.81533     18.16825  0.00082  53779.96227  3.35078  0.02023   1400453.12918  45.68425  21.65089  53836.22321    51.36367        44.7197   23.70633  34.37418   40.0    0.23713  -22.34405  0.99948 
   -8.26542  0.06823  2.13256     13.91241  1.96647  1.15987   7.88808  0.05589     0.01306   8472.88399   4681.63513  0.18445         4615.24234     19.30412  0.01119  53778.93458  3.37801  0.53818   1243014.93153  45.81025  20.97939  53854.38581    51.55454       44.91947   32.00354  32.00354   53.0    0.19739  -21.92117  0.98933 
   -7.41105  0.00115  2.28718     13.96378  1.65606  1.05288  11.12542  0.02426     0.01334   6983.30945   5420.64679  1.59676         4090.82504     16.07694    1e-05  53779.78895  3.23643  0.01284    950449.86838  45.79139  21.63267  53849.19649    51.43341       44.74909   34.37418  35.55949   46.5    0.32119  -22.18166  0.99962 
   -5.64857  0.11355  2.49778     14.30916  1.91993  0.57535   5.31139  0.21571     0.02129   9668.22592   5282.19727  1.42206         4029.97204     17.99028  0.00054  53781.55143  2.96161  0.60312    267851.07281  46.32913  21.48732      53847.0    51.43535       44.77528   29.63291  34.37418   38.5     0.2339  -22.08247   0.9832 
   -5.64416  0.06283   2.2035     14.18671  1.76162  0.50615   3.76662  0.14751     0.02091   8331.38161   5866.07368  1.76317         4325.23441     16.93867    5e-05  53781.55584   1.5596  0.23665    336150.93336    46.302  21.43225  53838.81786    51.54863       44.88326   27.26228  35.55949   37.5    0.27689  -22.51441  0.99407 
   -6.29315  0.09545  2.33387     14.28147  1.68302  0.39791   7.32981  0.08906     0.02893   9020.68656   4872.04149  1.43914         4734.84046     18.33298   0.0012  53780.90685  3.55794  0.69965    232867.32748  46.39167  21.40764  53854.38581    51.40151       44.67027   35.55949  40.30076   45.0    0.23417  -22.40171  0.97924 
   -6.55183  0.00212  2.53596     13.91074  2.01137  0.63604   2.48834  0.13329      0.0298  10387.94339     6525.253  1.67616         2252.39986     19.82664  0.03727  53780.64817  1.60175  0.00527   1811810.17736  45.50594  21.67223  53849.19649    51.37825       44.69162   32.00354  36.74481   52.0    0.22133  -22.08704  0.99985 
   -4.68408  0.09998   1.1634     13.01074  1.43077  1.00649    2.4881  0.27742     0.01591  14335.40399   6551.24457  1.70374         4604.50319     19.78901  0.03418  53782.51592  3.05011  0.24877   17114454.2748  45.05959  21.15623      53847.0    51.45306        44.8161   24.89165  34.52816   40.0     0.3237  -22.91353  0.99723 
   -6.07046  0.01636  2.05774     14.34356  1.68696  0.36351   8.69534  0.10344     0.01281   9569.44425   3667.65262  1.77731         4296.96094     18.01847  0.00058  53781.12954  4.74993  0.14226    136328.02349  46.73458  21.48506  53844.00718    51.40218       44.72993   24.89165  35.71347   37.0     0.2571  -22.48341  0.99669 
   -6.43117   0.0249  2.36489     14.27868  1.95261  0.72033   7.59874  0.20231     0.02826   9400.15621   3459.53808   1.6235         3478.18246     17.25138   0.0001  53780.76883  4.00534  0.18919    280997.52511  46.36314  21.53067  53846.60184    51.36527       44.73096   26.07696  33.18886   44.0    0.16439  -21.88408  0.99535 
   -5.28674   0.1153   2.0595     13.96013  1.44882  0.73527   5.16949  0.28207     0.01577    9230.2453   3076.28851  2.36188         3384.87924     18.43568  0.00151  53781.91326  2.62725  0.59604    685645.54296  45.96624  21.34783  53841.41252    51.40629       44.76653    28.4476  33.18886   40.5    0.21418  -22.03988  0.98272 
   -5.58582  0.20536  1.71916     13.99016  1.60501  0.59408   3.76202   0.3313     0.02069  11863.92124   4707.92082  1.46135         2974.01274     19.36921    0.013  53781.61418  3.15867  0.77258    460892.52801  46.34009  21.39503  53849.19649    51.42109       44.75112   29.63291  35.55949   37.0    0.29058  -22.40743  0.98656 
   -4.98508  0.13679  2.26197     13.72168  1.77627  1.03232   2.76893  0.29546     0.03399  11675.07249   4670.10675  1.88669         2686.15691     17.20667    9e-05  53782.21492  2.25143  0.37876    3040494.2067  45.32644  21.09572  53859.57513     51.7507       45.09191   33.18886  33.18886   43.0    0.26102  -22.32635  0.98995 
   -4.34995  0.01208  2.13195     14.08236   1.9194  0.92604   7.93773  0.28055      0.0254  10035.05542   3280.93742  1.48837         5932.18371     18.80489  0.00354  53782.85005   4.7683  0.09592     554389.3668  46.15064  22.35455  53898.49499    51.29394       44.34944   50.96861  71.11899   44.0     0.1549   -22.5188  0.99802 
   -7.61582  0.05103  1.91506      13.6514   1.6759  1.07198    7.9901  0.06186     0.01296   9847.80395   5920.61146  0.84454         3940.94443     18.20452  0.00089  53779.58418   4.6223  0.40773   2841989.67894   45.4751  21.66232  53851.79115    51.37376       44.70537   30.81823  34.37418   51.0    0.21186  -22.46261  0.99156 
   -5.75117  0.00109  2.74509     13.93043  1.93486  0.93514   2.93516  0.14594     0.05414  10075.91571   5415.36523  1.52152         4296.55339     18.81713  0.00365  53781.44883  1.77758  0.00321   1865178.04963  45.40766   22.1385  53854.38581    51.22923       44.47713   35.55949  43.85671   47.0    0.26393   -22.4593  0.99989 
   -5.86292  0.01131  1.84211     13.98015  1.62666  1.02615  10.29486  0.09622     0.01292   9380.64918    3250.2423  1.07439         5066.47442     17.31384  0.00011  53781.33708  5.40397  0.11645    561631.48995  46.20006  21.50188  53844.00718     51.4102       44.78233   29.63291  30.81823   38.0    0.22725  -22.34511  0.99771 
   -4.99602  0.00151  3.16569     13.73422  1.81626   1.5468    3.0962  0.02729     0.01104   5149.71425   7560.57344  2.91625         3960.04909     19.41932  0.01459  53782.20398   0.4898  0.00467   5747745.40157  44.76759  21.55447  53854.38581    51.43995       44.71988   32.00354  40.30076   55.5    0.27445  -22.18068  0.99976 
   -4.96545  0.00409  2.02998      13.8198  1.66224  1.27685   6.38108  0.06866     0.01617   7152.73621   3296.54626  2.24714         5717.79519     16.04143    1e-05  53782.23455  1.94745  0.02613   1458449.52509  45.71066  21.86134  53849.19649    51.12331       44.43636   33.18886  35.55949   37.5    0.29331  -23.20345  0.99939 
   -7.28265  0.14902  2.12099     13.68171   2.1037  0.83625   2.41011  0.33983     0.02299  11088.78889   3775.88695  0.85125         4890.41939     19.06923  0.00652  53779.91735   1.7678  0.35916   3805877.97303   45.3583  21.33451  53859.57513     51.4647       44.75647   35.55949  37.93013   43.5    0.24549  -22.59966   0.9933 
   -7.93554  0.09776  0.96524     13.03036  1.78416  0.71031   3.67695  0.32544     0.01265  16480.23144   3000.82223  3.20908         3293.17821     20.73879  0.30445  53779.26446  5.95719  0.35946  13421583.12719  45.42321  21.84496  53851.79115    51.27524       44.60095   32.00354  35.55949   47.0    0.25924  -22.99748  0.99788 
   -5.20892  0.00207  2.27847     13.90607  1.83969  0.88004   5.87847  0.11711     0.01782   9630.56761   5253.12159  0.88193         4703.81216     18.15686   0.0008  53781.99108  3.25234  0.01219   1366827.63128  45.68259   21.6078  53841.41252    51.34824       44.71064   29.63291  32.00354   42.5    0.23857  -22.38382  0.99969 
   -5.14598  0.00735  2.04724     13.72963  1.70961  1.01195   6.20361  0.18972       0.014  11371.07848   5602.79916  1.34217         3156.90279     18.14835  0.00078  53782.05402  4.78492  0.04558    2310938.4104  45.51562  21.45371  53841.41252    51.40797       44.78613   26.07696  32.00354   41.0    0.24553  -22.36564  0.99895 
   -5.91815  0.00123  2.24747     13.76627  1.46374   1.4341   5.41387   0.0732     0.01331   6512.74675   4989.65788  0.82362         4727.95492     18.99581   0.0055  53781.28185  1.36982  0.00668   2014275.93418   45.4268  21.97589  53851.79115    51.17288       44.49245   33.18886  34.37418   50.5    0.21764  -21.79609  0.99977 
   -5.01476  0.00681  1.92012     13.70458  1.10653  0.74922   6.85692  0.04362     0.02064   6990.32781   6419.59035  1.99609         4046.68092     19.15284   0.0079  53782.18524  1.99872  0.04672   1476639.29479  45.57688  21.53806   53867.3591    51.42937       44.64941   40.30076  46.22734   54.0    0.26858   -22.2359  0.99819 
   -4.56985  0.05192  1.71911     13.86782  1.53196  0.60881   6.78347  0.33467      0.0107  11864.47931   5127.65068  2.31471         4177.02624      19.1904  0.00861  53782.63015  5.69608  0.35219    772722.60321  46.09546  21.27207  53838.81786    51.37972       44.77064   24.89165  30.81823   39.5     0.2561  -22.65444  0.99334 
    -6.4301  0.05793    2.549      13.8666  1.67508  0.90044   4.23103  0.10071     0.01607   7588.00327    3414.3765  2.04759         3616.14065     17.09776    7e-05   53780.7699  1.45321  0.24509   1868014.35739  45.40876  22.13334  53833.62855    51.19912       44.54489   26.07696  35.55949   45.5    0.25209  -22.16356  0.99105 
   -7.53383  0.02289  2.50301     13.93087  1.94095  0.97686   5.52809  0.15518     0.01294   7878.85676   3276.27047  1.27034         4507.65645     19.07889  0.00666  53779.66617  2.04705  0.12652   1552427.12295  45.56892  21.82361  53838.81786     51.1755       44.50067   24.89165  33.18886   43.5    0.20899   -22.2428  0.99643 
   -5.23526    0.001  2.39497     13.64815  1.65829  1.50039   0.59291  0.27024      0.0889   7294.06754   6625.94163  0.85324         4595.86782      20.1506  0.07858  53781.96474  0.18817  0.00059   4464609.24999  45.08012   21.3836  53838.81786    51.24023       44.64654   24.89165  30.81823   57.5    0.17128  -21.97002  0.99998 
   -7.35156  0.00643  1.23091     13.24576  1.15902  1.10645   6.43876  0.25342     0.01022  14358.60561   3311.45552   0.7286         3073.17642     19.35946  0.01271  53779.84844   7.9187  0.04143   5258363.39418  45.43163  21.41841  53838.81786    51.32014         44.637    28.4476  37.93013   40.0    0.24355  -22.50277  0.99937 
   -4.20951  0.08532  1.93414     13.87589  1.67246  1.03195   5.92282  0.13885     0.01529  10498.76335   4243.17045  2.18832         4163.67204     18.37272  0.00131  53782.99049  3.89432  0.50533   1028905.53799  45.90685  21.15857  53854.38581    51.54639       44.90835   26.07696  33.34284   34.0    0.30706  -22.82389  0.98951 
  -10.54472  0.00815  2.37633     13.78059  1.85503  1.24742   9.44271  0.02872     0.01954   8223.25167   4475.33684  1.15525         4599.49296     16.82401    4e-05  53776.65528    3.809  0.07695   2671708.02301  45.35859  21.49817  53838.81786    51.25225       44.60761   27.26228  33.34284   65.0     0.2137  -22.38276  0.99789 
   -5.73752  0.00341  2.64254     13.80585  1.59277  1.38276   2.68255  0.18737     0.02426   7785.13772   3142.61201  1.98919         4289.61691     19.21345  0.00908  53781.46248  0.96986  0.00916   2525330.59383  45.22464  21.43606  53859.57513    51.48828        44.8165    28.4476  35.55949   39.0    0.27654  -22.22063  0.99961 
   -7.39221  0.02708  1.69154      14.0443  1.82869  0.68288   9.79871   0.2309     0.01059  11108.39905   4242.43759  1.04032         4603.25345     18.32252  0.00117  53779.80779  7.21272  0.26533    396212.04624  46.47649  21.36069  53841.41252    51.39077       44.79616   27.26228   28.4476   40.5    0.21676  -22.51199   0.9963 
   -4.34523  0.02473  1.99645     13.92339  1.51428  0.75641   3.83062  0.29971     0.01149    7012.0835   4102.06798  2.87337         4071.78661     18.33693  0.00121  53782.85477  1.12355  0.09474    797549.15795  45.94678  21.28157  53854.38581    51.39928       44.72124   34.37418  36.74481   40.5    0.21933  -22.33658  0.99754 
   -4.05904  0.00223  2.25401     14.11227  1.63281  0.64522   6.31205  0.05674     0.01233   6626.68581    7473.8909  1.10932         5387.56246     16.67432    3e-05  53783.14096  1.65345  0.01405    459330.22621  46.11374  22.14632  53888.11636    51.38075        44.4756   48.59798  64.00709   43.5    0.26246  -22.13296  0.99958 
   -7.09304  0.02896   2.4777     14.26574  2.00337   0.5919   6.60778  0.16557     0.01073   8327.78456   3234.92122  1.66347         3975.51089     17.71337  0.00029  53780.10696  2.73364  0.19136    335892.78571  46.25631  21.23883  53841.41252    51.48008       44.84543   24.89165  34.37418   39.5    0.22738  -22.11436  0.99501 
   -6.02669  0.14367  2.12822     13.59185  1.62382  1.20135   3.90835  0.32187     0.01583   8296.52466   3089.88773  2.91247         4052.82059     17.65236  0.00025  53781.17331  1.60477   0.5615   4473852.75656  45.17267  21.80095  53854.38581     51.4156        44.6448   36.74481  45.04203   45.0    0.20626  -22.52804  0.98489 
   -3.94702  0.00434  1.28615      14.1109  1.61782  0.86677  15.02837  0.09605     0.13659    9050.0805   5807.54845  0.29486         2585.25069     19.08465  0.00675  53783.25298   7.3425  0.06522    149117.42879  47.08566  21.39198  53846.60184    51.31882       44.65061   30.81823  34.37418   46.0     0.1674  -21.77449  0.99938 
   -6.57863  0.01617  2.75165     14.04895  1.86655  0.48048   2.06003   0.2699     0.05783    9267.4778   4279.76306  3.34156         4264.80396     18.69908  0.00278  53780.62137  1.05541  0.03331   1047485.29947  45.64055  21.52192  53841.41252    51.37548       44.73158    28.4476  33.18886   44.0     0.2423  -22.73907  0.99877 
   -3.98429  0.00445  1.81742     13.65661  1.59605  1.39514   4.94055  0.32002     0.01476   7875.74809   5078.86892  1.97793         5317.22573     17.22713    9e-05  53783.21571  1.82804  0.02199   2379912.37161  45.57642  21.95145  53838.81786    51.31885       44.61523    28.4476  36.74481   44.5    0.17765  -22.79869  0.99956 
   -6.45811  0.12263  2.06929     13.40805  1.83803  1.46443   2.00487  0.31027     0.01984  10814.59695   3238.37431  2.87663         2864.76094       18.802  0.00352  53780.74189  1.39873  0.24585  11161345.64537  44.85384  21.08541  53851.79115    51.52265       44.90883    28.4476  29.63291   45.5    0.26922  -22.27521  0.99449 
   -6.29269  0.07113  2.42165     13.46825   1.5234  1.50712   8.79343  0.01677     0.01354   5820.56664   4362.26755  2.84787         3442.52961     17.05592    6e-05  53780.90731  1.77712  0.62552   9601991.58158  44.70108  21.26957  53862.16978    51.55728       44.71204   37.93013  55.70987   97.5    0.15434  -22.04594   0.9755 
   -9.05246  0.00613  1.69768       13.579  1.45201  0.82757   4.93729  0.15611     0.01202  12106.15706   3509.51939  0.68247         4246.53163     18.27404  0.00104  53778.14754  4.31647  0.03025   2700870.79155   45.5396  21.63267  53854.38581    51.37257       44.64359   32.00354  41.48608   39.0    0.30569  -22.47606  0.99938 
   -7.81534  0.00311  1.85987     13.63149  1.37866  1.48887   5.80578  0.13499      0.0133   8326.55881   3065.67031  0.46363         5460.38251     18.26439  0.00102  53779.38466  2.40115  0.01803   2416905.91299  45.48608  21.42375  53846.60184    51.38188       44.71604   29.63291  34.37418   44.0    0.22192  -22.05639  0.99953 
   -7.05029  0.00804  2.04223     13.80984  1.71879  0.91958    5.7376  0.22398     0.02642  10731.01057   3070.30933   0.7932         4338.34531     20.20211  0.08848  53780.14971  3.94129  0.04611   1597992.40955  45.68028  20.97441  53831.03389    51.40199       44.83221    21.3357   28.4476   44.0    0.20623  -22.42666  0.99896 
   -5.02598  0.00131  1.44411     14.21076   1.2828  0.43576  11.24943  0.07793     0.01141   9560.60412   4227.14768  1.13928         2908.76535      18.5086  0.00179  53782.17402  6.13378  0.01471     94112.50467  47.08416  21.32666  53838.81786    51.43713       44.83685   23.70633  30.81823   37.5    0.24378  -21.89864  0.99975 
   -4.90267  0.01279  1.08303      13.8664   1.4822  0.60683   7.20922  0.31822     0.02171  10144.97456   3811.76262  0.50684         3353.00583     17.75461  0.00032  53782.29733  4.42606  0.09223    298684.52222  46.89525  21.49169  53864.76444    51.47942       44.78474   35.55949  35.55949   46.5    0.14724  -22.51925  0.99928 
   -5.55711  0.30945  1.92342     13.87991  1.45656  0.63633   4.15176  0.14475     0.01847  10714.19142   5152.83419  0.75718          2043.4903     16.94306    5e-05  53781.64289  2.84301  1.28475    869888.27772  45.92456  21.29735  53828.43923    51.53169       44.89991   18.96506  35.55949   41.5    0.26759  -22.02258  0.96802 
   -6.05645  0.00739  2.42443     14.14505  1.83738  0.64129   3.33317     0.32     0.01897   8536.67627    4733.6608  1.33315          2703.4806      17.8317  0.00038  53781.14355  1.44898  0.02464    514208.40775  46.05268  21.44444  53862.16978    51.48187       44.72983   37.93013  42.67139   41.0     0.2206  -21.76933  0.99929 
   -6.21831  0.11499  2.54025     14.10452  2.01932  0.92926   8.04629  0.21375     0.01182   9458.88737   3595.35874  2.21628         3767.67894     17.28075  0.00011  53780.98169  4.29441  0.92526    747724.81182  45.89055  21.77644  53844.00718    51.25683       44.55931    29.8148  38.93355   41.5    0.20199  -22.14075  0.97541 
   -4.40241  0.01873  1.90273     13.86794  1.48159   1.4449   9.38654  0.04748     0.01111   8350.13119   3277.93853  1.93686         4013.91825     16.79192    3e-05  53782.79759  3.90408  0.17577    914998.38301   45.9194  21.33681  53846.60184    51.41088         44.807    28.4476  29.63291   36.5    0.33509  -22.42861  0.99576 
   -3.44711  0.10815  2.12758     14.08733  1.64141  0.78082   5.96248  0.28683     0.01956  10391.92342    3815.0377  2.56566         3770.99555     19.73493  0.03018  53783.75289  3.84102  0.64481     461481.8253  46.16414  20.90655  53851.79115    51.55228       44.93167   29.63291  29.63291   39.0    0.21396  -22.20356  0.98352 
   -6.29727  0.40377  2.43496      14.1699  1.76388  0.62666   6.14015  0.15862     0.01377   9362.82805   3958.80055  2.14903         3861.34635     17.52015  0.00018  53780.90273  3.21085  2.47919    444082.49644  46.09487  21.12002  53844.00718    51.48268       44.89936   27.26228  27.26228   38.5    0.25379  -22.28931  0.92932 
   -6.16921  0.40221  2.37692     13.95959  1.86834  1.26188    3.9032   0.3072     0.01265   8105.07979   3943.86395  1.40382         2788.73061     16.68463    3e-05  53781.03079  1.52955  1.56992   1180663.94455  45.71615  21.71528  53854.38581    51.41152       44.63197   35.55949  47.41266   42.0    0.21443  -21.74439  0.95959 
   -6.77575  0.04982   2.3514     14.06451  1.92628  0.94451   7.80147  0.13508     0.01353   8436.65719   3454.90788  1.30571         3550.58827     18.35561  0.00126  53780.42425  3.31241  0.38866     734808.1174  45.94474  21.51262  53841.41252    51.36064       44.70277   27.26228  35.55949   43.5    0.19489  -22.00784  0.99036 
   -5.81678    0.014  2.61601     14.05911  1.84108  0.77546   8.77223  0.06797     0.01303   8912.14009   4617.69644  1.77821         3960.80864     18.11585  0.00073  53781.38322  4.15625  0.12278    891138.53824  45.74869  21.65014  53846.60184    51.40368       44.72034    28.4476  37.93013   41.5    0.24733  -22.28307  0.99592 
   -8.56787  0.00317  2.13152     13.77877  1.47561    0.905   2.69256  0.32221      0.0149   8368.48052   3799.65553  2.27185         3992.69913      17.3208  0.00012  53778.63213  1.12483  0.00855   1724376.02214  45.54381  21.42401  53841.41252    51.31027       44.74581   24.89165  27.26228   36.5    0.29801   -22.3078  0.99974 
   -3.46988  0.10136  3.00836     13.98575  2.13025  1.43187    6.0332  0.06626     0.02135   5845.55002   6237.08021  1.36702          3690.6143     17.29025  0.00011  53783.73012  1.22978  0.61153   1911672.40071   45.3592  21.44817  53844.00718    51.40863       44.76448   30.81823  32.00354   67.0    0.18216  -21.77554  0.97873 
   -6.98943    0.004  2.13721     13.88651  1.51142    0.892   5.95248  0.28905     0.01792   7617.66631   3038.77168  2.32325         3052.05305     18.39637  0.00138  53780.21057  2.06048  0.02382   1081119.81788  45.75466  21.55551  53849.19649    51.36223       44.71006    28.4476  34.37418   50.0    0.13543  -21.79678  0.99929 
   -6.42073  0.08269  2.29618     13.90558   1.8859  1.05642   5.15249   0.1963     0.01831   8820.70348   4498.81429  1.49386         3704.56219     17.92956  0.00047  53780.77927  2.39139  0.42605    1426216.9097  45.66817  21.49274  53854.38581    51.37947       44.68915   35.55949  36.74481   43.5    0.20415  -22.26817  0.98954 
   -7.05949  0.00144   3.0859      14.0867  2.10303  0.77381   5.64465  0.12202     0.01287   8100.28102   4722.79455  1.49713         4561.30835     18.37716  0.00132  53780.14051  2.20935   0.0081   1247435.64057  45.51691  21.32173  53846.60184    51.34593       44.75972   27.26228   28.4476   41.0    0.23609  -22.19345  0.99969 
   -5.13792  0.00574  1.79892     13.99278  1.53386  0.55613   4.84638  0.20966     0.01368   8496.97414    4979.3353  1.58324         4543.61226     18.74449  0.00308  53782.06208  2.08724  0.02781     476496.9768  46.26655  21.56949      53847.0    51.46461       44.76725   30.81823  37.93013   39.0    0.24506  -22.54089  0.99942 
    -6.7211  0.00827   2.5716     13.93057  1.71946  0.96441   4.83434  0.21438     0.02102   8845.76707   4344.87888  1.32587         4156.12537     17.12196    7e-05   53780.4789   2.2565     0.04   1453723.64028  45.52135  21.69306  53849.19649    51.38103       44.68445   30.81823  37.93013   41.5    0.21275   -22.0602  0.99857 
   -6.19082  0.00357  1.26413     13.34804  1.05568   0.7856   2.74456  0.28768     0.01101  10491.95164   3464.39045  2.28572         2882.08989     18.30938  0.00113  53781.00918  1.80224   0.0098   3153844.43556  45.58996  21.43173  53849.19649    51.47942       44.66804   33.18886  54.52456   40.0    0.29336  -22.38878  0.99982 
   -3.46054  0.10086   2.4913     14.22476  1.82191  0.78197   4.64237  0.31771     0.01979   8952.96447   4606.48915  3.11195         3521.13822     19.97611  0.05258  53783.73946  2.21973  0.46823     372964.5817  46.16486  21.40368  53841.41252    51.43251       44.87168   21.86597  27.91732   39.5     0.2001  -21.92224  0.98595 
   -5.52393  0.00585  2.66768     14.12937  2.05545  1.14331   6.59656  0.17233      0.0265   8788.58263    4333.8782   2.2845         3943.45986     18.01789  0.00058  53781.67607  3.03936  0.03861    748584.42315  45.85524   21.1202  53844.00718    51.48469       44.92742   24.89165  27.26228   43.5    0.19184  -22.15313  0.99888 
   -6.36854  0.16015  2.04501     13.81471  1.42984  0.98364   4.15818  0.13779     0.01498   7128.40564    3957.8126  2.41663         4550.95439     17.81455  0.00036  53780.83146  1.26042  0.66595    1303355.5285  45.68768  21.96138  53859.57513     51.2573       44.50632   35.55949  43.85671   38.0     0.2495  -22.60626  0.98057 
    -4.4957  0.03075  2.06414     13.84067  1.56201  0.91679   5.14656  0.16937     0.01605   9058.86614    4442.7697  2.14311         4287.60936     17.67088  0.00026   53782.7043  2.51937  0.15825   1287177.78672  45.72341  21.84864  53841.41252    51.26354       44.59351   27.26228  36.74481   37.5    0.25468  -22.59304  0.99581 
   -5.74095  0.08824  1.89129     14.06756  1.65614  0.64198   5.23969  0.22785     0.01619   9395.37848   3136.42926    1.083         4739.45564     16.85981    4e-05  53781.45905  2.75906  0.46234    403009.34913  46.32911  21.57386  53846.60184    51.37071       44.69621   30.81823  35.55949   38.0    0.24533  -22.34936   0.9907 
   -5.76609  0.01834  1.68824     13.60391  1.41363  0.62517   2.23613  0.28795     0.06037  13247.29328   3466.32169  1.04547         4979.51048     19.84398  0.03879  53781.43391  2.34088    0.041   2318471.66798  45.59911  21.80304  53851.79115    51.25422       44.53702   29.63291  40.30076   43.5    0.26998   -22.9114  0.99913 
   -6.13955  0.02494  1.92427     13.42037  1.75179  0.95179   1.88852  0.25349     0.02124   11325.8845   3460.04261  2.02286         3959.59536     18.08874  0.00068  53781.06045  1.44509  0.04711   8691453.62661   45.0047  22.24008  53851.79115    51.38851       44.65488   36.74481  40.30076   41.0    0.32245  -22.58673    0.999 
   -6.20837  0.01175  1.40281     13.92626  1.25023  0.80463   7.36621  0.12391     0.01208   7787.30146   4150.51455  1.51051         3075.91731      17.9319  0.00047  53780.99163  2.66468  0.08659    320830.78454  46.56556  22.68662  53844.00718    51.23926       44.48007   34.37418  45.04203   41.5    0.20734  -21.87732  0.99854 
   -3.58258  0.06341  2.01297     14.14497  1.92257  0.74317   6.85006  0.15603     0.03285  11751.22856   3986.73656  1.48719         4256.40517     17.54313  0.00019  53783.61742  5.64272  0.43437     371052.3921  46.37562    21.492  53838.81786    51.37062        44.8217    21.3357  27.26228   38.5      0.251  -22.63585   0.9921 
    -8.1181  0.16102  2.04364     13.74596  2.03138  1.12438   8.05717  0.08083     0.01055   7077.46174   4001.32164  0.74006           4163.379     19.35328  0.01253   53779.0819  2.40749  1.29737   2538053.76629  45.55133  21.13701   53867.3591    51.67528       44.94711   34.37418  40.30076   61.5    0.14752  -22.29459  0.97745 
