 log(Bfield)      Mns    Pspin  cutoff_power  cutoff_wavelength  fnickel    kappa  kappagamma   mejecta  log(nhhost)  temperature  texplosion  thetaPB      vejecta      A_V        MJD_0   log(KE)      M_Ni  Peak_mag     Peak_MJD 
    13.76825  1.54423  1.73779       0.07224         4114.76432  0.26023  0.11527     0.01227   8.70163     16.59808   7282.90114      -8.209  0.58876   10022.8609    2e-05    58884.051  52.58844  16.83424  18.72359   58948.0724 
    13.51889  1.68094  1.83228       0.06831         5136.14719  0.01382  0.08515     0.01102  10.02886      17.4141   9591.94473    -7.97363  1.36729  10485.10739  0.00014  58884.28637  52.64117   0.92229  18.74464   58948.0724 
    13.58211  1.52477  1.69549       0.01795         4955.92306  0.06208  0.10545     0.01402   9.95457     19.78083   5955.64498    -8.68053  0.90739  10973.44737  0.03354  58883.57947  52.68001   4.13673  18.68151   58948.0724 
    14.37663  1.73256  2.00317       0.91509         3118.93922  0.00101   0.1442     0.01424   6.45259     17.89819   6104.09882    -7.85258  0.13989   9776.72634  0.00044  58884.40742  52.53679    0.0611  18.66429     58945.87 
    13.39684  1.38993  1.53451       0.01794         5238.17741  0.01896  0.11683     0.01167    8.1989     18.66121   9074.12704    -8.75174  1.43183  10118.83164  0.00255  58883.50826   52.5909   1.21021  18.73056     58945.88 
    13.95523  1.97911  2.08782       0.00998         4947.90874  0.03909  0.04468     0.26179  26.16907      16.3408   4221.30962    -7.48115   0.7484  10662.48625    1e-05  58884.77885  52.73775   3.15124  18.70723   58948.0724 
    13.62953  1.57844    1.193       0.10853         4559.24524  0.00982  0.10911     0.28183  11.94126     20.72558   8484.54101    -7.02195  1.27611  10323.13772  0.29533  58885.23805  52.64377   0.68035  18.71167   58948.0724 
    14.15285  1.44735  1.56764       0.02065         3613.27035  0.03765  0.11112      0.0139   8.53397     17.15581   7873.50029     -8.6412  0.12709  12524.17538    8e-05   58883.6188  52.78006   2.42466  18.74615  58951.27934 
    13.89725  1.92083  1.94023        0.0023         4714.65402  0.06925  0.03637     0.23071  33.69527     16.08687   8862.36285    -6.41385  1.00261  10535.26262    1e-05  58885.84615  52.74658   5.83575  18.70769   58948.0724 
    14.24723  1.82555  2.03203        1.5861         2400.02945  0.00423  0.17779     0.01584   5.89267      16.1844   7501.99639    -7.87195  0.21886   9643.22241    1e-05  58884.38805   52.5153   0.24954   18.7079   58948.0724 
    13.74261  1.77907  1.95987       0.05072         5620.73843  0.06652  0.07445     0.01113  12.56764     16.79642   6553.37743     -7.8879  0.82541   10431.8251    3e-05   58884.3721  52.65748   4.65642  18.66829  58948.31064 
    13.76095  1.96371  1.99168       2.08581         2000.94193  0.02293   0.1235     0.01157  12.65246     19.85266   3778.57837    -6.06929  1.21644  11568.64729  0.03957  58886.19071  52.74793   1.60751  18.71689  58948.31064 
    14.48442   1.8757  2.02262       0.42955         4258.64001  0.00106    0.092     0.01009   9.96138     16.45713   6502.15421    -7.13684  0.16865   8622.47323    2e-05  58885.12316  52.47065   0.07058  18.76599   58948.0724 
    13.81244  2.00144  2.16385       0.30358          3025.6017  0.18695  0.12707     0.01491   7.11845     16.39973   9315.82552    -7.76192  0.74171   9961.84569    1e-05  58884.49808  52.56319  11.55038  18.73098     58945.88 
    13.68314  1.53978  1.72672       0.16954         5037.67754  0.09328  0.06036     0.08486  15.01543     19.44167    4952.2078    -6.59262  1.10121   9590.77373  0.01536  58885.66738  52.60014   6.76981  18.65681     58945.88 
    13.69447  1.77366  1.86642       0.15187         5715.66426  0.07242  0.10657     0.01033  10.89488     16.71103   9405.96063    -7.69867  1.18887   9800.80121    3e-05  58884.56133  52.59027   4.92034  18.70452     58945.87 
    13.68702  1.65786  1.84862       0.98002         2012.95699  0.09102  0.12196     0.01197  10.63981     17.82035   7298.12887    -8.07476  0.77344  11329.15562  0.00037  58884.18524  52.71395   6.15246  18.67093  58948.31064 
     13.7149  1.71903  1.83185       0.01128         4092.25677   0.1252  0.13198     0.01522   8.18008     16.21943   8988.26543    -7.68149  0.95789  10270.76904    1e-05  58884.57851  52.60362   7.98732  18.76503   58948.0724 
    13.68351  1.79158  1.94242        0.0048         4489.61853   0.0743  0.07128     0.01021  14.50029     19.05142   5249.65707    -8.51691  0.95216  10984.14766  0.00625  58883.74309  52.71494   5.35498  18.67902   58948.0724 
    13.56659  1.77218  1.99305       0.17949         4448.92669  0.12653  0.10121     0.01333    8.3056     17.67062    3984.0214    -8.14691  1.13413  10465.14691  0.00026  58884.11309   52.6214   8.09993  18.78068     58945.88 
    14.01116  1.39005  1.61449       0.11942         3700.09507  0.03381  0.10742     0.01282  10.12134     18.25269   4467.63913    -8.79484  0.22406  11409.77132  0.00099  58883.46516  52.71544   2.26086  18.72202     58945.88 
     13.5732  1.41296  1.58252       0.36697         5417.73373  0.00501  0.06732     0.21143  12.59612     19.45609   9454.88668    -5.98245  1.44916   8590.94302  0.01588  58886.27755  52.48904   0.35058   18.7653   58948.0724 
    13.68104   1.6753   2.3143        2.9917         3107.08744  0.05487  0.04076     0.34344  25.11738     16.89243   5361.14801    -7.59465  1.05277   8944.51036    4e-05  58884.66535  52.58193   4.39047  18.66212     58945.88 
    13.92386  1.70708  1.86258        0.0209         2488.56852  0.05701  0.06816     0.16628  22.75258     18.09448   5488.08184    -7.12447  0.69391  11623.11349  0.00069  58885.13553  52.80163   4.48044  18.68947     58945.88 
    14.56666  2.11854  2.00218       0.04846         4232.51925  0.08981  0.12141     0.15303  10.39138     20.56361   6698.62216    -7.91053  0.15097  12659.21089  0.20339  58884.34947  52.80817   6.04038  18.67121     58945.87 
    13.94144  2.16974  2.27575        0.0187         4531.78168  0.09558  0.09703     0.36733  15.18146     17.10642   8213.82083     -7.0999  1.09323  11686.87211    7e-05   58885.1601  52.77278   6.95263  18.68383     58945.88 
    13.67225  1.57985  1.82303       0.06463         5265.71916   0.0203  0.07754     0.25589  12.75561     18.56378   8116.71514    -6.22807   1.1708  10983.10624  0.00203  58886.03193  52.70354   1.42536  18.66968     58945.88 
    13.42921   1.2611  1.43142       0.00701         5789.58696  0.03184  0.10917     0.01028  10.24445     18.36856   5813.64058    -7.74727  0.91654  10996.31686   0.0013  58884.51273  52.68452   2.13499   18.6298     58945.88 
    14.49906  1.73061  1.79927        0.0107         5160.65252  0.00233   0.1109      0.0595    7.3167     16.03954    5648.9673    -6.75268  0.15231   9682.03724    1e-05  58885.50732  52.54122   0.14514  18.75684   58948.0724 
     13.6332  1.76913  1.89053       0.01836          4746.6645  0.08443  0.10739     0.01077  12.00245     18.85347   9146.35561    -8.13225  1.18499  11304.10551  0.00396  58884.12775  52.72308   5.85428  18.68605  58948.31064 
    13.95869  1.46211  1.71151       0.11557         4993.50185   0.0208  0.07273     0.01022  14.51825     18.20227    6265.0415     -8.6046   0.2985  11213.62483  0.00089   58883.6554    52.733   1.49935  18.68328     58945.88 
    13.72077   1.9148  2.67711       4.39234         3056.64217  0.03407  0.03413     0.28498  21.58675      16.9427   4544.35381    -6.97909  1.27917   7416.77326    5e-05  58885.28091   52.4072   2.65146  18.76428   58948.0724 
    13.86922  1.58921  1.88882       0.50396         3277.78538  0.04222  0.05197     0.09687  25.67639     16.87449   5097.47052    -7.82323  0.63855  10290.55757    4e-05  58884.43677  52.70542   3.39202  18.78092     58945.88 
    14.18539  1.59247  1.74702       0.20512         3369.36098  0.04275  0.11063      0.0107   8.50915     17.77807   6529.95306    -8.30006   0.1735  10548.37415  0.00033  58883.95994  52.63065   2.75193  18.74988     58945.87 
    13.93287  2.11595  2.01834       0.00833         4292.12138  0.01987  0.08703     0.16826  12.55435     18.61007   3537.19784    -6.51917    1.008  10052.85389  0.00226  58885.74083  52.62524   1.39079  18.69839     58945.88 
      13.679  1.62501  1.96323       0.49878         3484.92545  0.33248  0.08982     0.01005  11.32564     17.71905    8125.8091    -8.15891  0.78848  10238.67853  0.00029  58884.10109  52.63181  22.77485  18.69161   58948.0724 
    14.19411  1.65669  1.69735       0.03693         4246.39315  0.02573  0.09633     0.01007   9.69134     18.87236   4050.52074    -9.10469  0.13912  11720.75098  0.00414  58883.15531   52.7347   1.70472   18.7015     58945.88 
    13.69761  1.91486  2.10975       1.37534         2355.20893  0.03467   0.1181     0.01195   9.09263     18.62448   3619.73545    -7.54626  1.20499   9799.65865  0.00234  58884.71374  52.57312    2.2647  18.70333     58945.88 
    13.67654  1.60141  1.61483       0.14803         5333.26796  0.02055  0.07328     0.01111  15.83293     20.39017   8004.67336    -7.44566  0.87768  11044.58571  0.13642  58884.81434   52.7273   1.50756  18.71439   58948.0724 
    13.58161  1.80844  5.00779       1.73054         2896.00684  0.44205  0.02698     0.16144  90.94165     18.44272   3883.38079    -9.28405  0.93815  20220.09543  0.00154  58882.97595  53.38119  43.59833  18.72317   58948.0724 
    13.78126  1.68401   1.9516       0.03147         4982.74825  0.06297  0.02899     0.32165  42.73806     16.17692   4059.18805    -6.96939  0.99038  11760.01075    1e-05  58885.29061  52.85947    5.5225  18.74207   58948.0724 
    14.26436  1.81744  1.96576       0.07849         4057.61725  0.04197  0.08313     0.01128  12.68792     19.92762   7327.69782    -8.21707  0.19752  11987.19343  0.04703  58884.04293  52.77905   2.94378  18.69549  58944.75115 
    14.17503  1.53499  1.71046       0.46592         2628.17351  0.03002  0.14713     0.01233   6.62157     17.42604   4285.82593    -9.22362  0.18277   9519.96246  0.00015  58883.03638  52.51636   1.82341  18.74633   58948.0724 
    13.97283  1.79336  1.83916       0.14529         5957.20557  0.02859  0.03632     0.46676  34.61111     19.71457   7836.06044    -6.77685  0.63917  10316.32068  0.02879  58885.48315  52.73033   2.41997   18.6765     58945.88 
     13.7867  1.63801  1.62239       0.01243         5471.60028  0.03743  0.05388     0.32692  23.85121     17.82356   9590.98278    -6.20732  1.06675  10217.44065  0.00037  58886.05268  52.69343   2.96733  18.77967  58948.31064 
     13.6686  1.79573  1.46693       0.07133          5911.6481  0.01483  0.05235     0.15196  16.21716     20.67017   7977.73295    -6.52594  1.17253   10166.2933  0.25996  58885.73406  52.65737   1.09272  18.70177  58948.31064 
    13.68262  2.01648  2.23592       1.16722         2595.28867  0.11519  0.11912     0.01335  10.18442     19.45292    4028.5048    -7.90282  1.06476  11784.15418  0.01576  58884.35718  52.74407   7.71338  18.74253     58945.87 
    13.67659  1.40945  1.53663       0.61249         2424.30256  0.28058  0.15469     0.01111    5.9489     17.03535   5417.49303    -8.55741  0.51213   9098.64607    6e-05  58883.70259  52.46582  16.60743  18.70834   58948.0724 
    14.19416  1.68461  8.69255       2.86029         2864.90988  0.49752  0.02668     0.19224  80.80451     19.04605   5666.84137   -10.14011  0.76587  17452.14736  0.00618  58882.11989  53.24573  48.21873  18.73503     58945.88 
    13.57919  1.80923  5.41627       2.83001         3144.29343  0.49607  0.02283     0.15427  71.65097     18.67211   5328.99119    -9.09154  0.68261  15808.77696  0.00261  58883.16846  53.15196  47.21548  18.69442     58945.88 
    13.76253  1.79637  1.97164       0.66103         2067.16375  0.20035  0.11042     0.01143  10.28404     17.35449   6438.59784     -8.9016  0.60596  11419.54284  0.00013   58883.3584  52.71768  13.44458  18.71223   58948.0724 
    13.67924  1.53998  1.68699       0.04767         3368.96826  0.09627  0.08311     0.16703  16.77485     18.86554   9825.11363    -6.27445  1.43439  11440.63257  0.00408  58885.98555  52.76282   7.14116  18.75012   58948.0724 
    13.70646  1.95281  2.46893       2.71211         2906.14963   0.0387  0.07304     0.43905  15.57452     18.01551   5130.10036    -7.76802  1.20562  10470.72973  0.00058  58884.49198  52.67954   2.82931   18.7045   58948.0724 
     13.7875  2.08857  2.15557       0.23096         5845.56666  0.01702  0.12095     0.46316   6.55565     19.06211   3893.63438    -7.11875  1.53778   8784.35101  0.00641  58885.14125  52.44547   1.03101  18.66795     58945.88 
    13.98512  1.52598  1.85584       1.10482         3395.88148  0.00586  0.13107     0.01404   5.49451     16.42438   4432.83332    -8.58997  0.28878   7849.39215    1e-05  58883.67003  52.32902   0.33993  18.67346     58945.88 
    14.06942  1.71972   2.0127       1.70444         2868.86712   0.0023  0.14309     0.01158   7.76323     17.57192   5836.12429    -8.85792  0.28617   9376.94513  0.00021  58883.40208  52.51936   0.14494   18.7543  58948.31064 
    14.58084  2.08917  1.97157       0.35025         5893.88108  0.00131  0.07207     0.08966  12.37139      16.2532   7147.52238    -6.36636  0.18622   7840.08855    1e-05  58885.89364  52.40798   0.09113   18.6957   58948.0724 
    14.04318  1.40844  1.50016       0.09894         3314.92295  0.17944  0.09564     0.01025   7.66122     19.90042   5792.83141    -7.85251   0.1874  10411.94289  0.04417  58884.40749  52.60898  11.27732  18.71369     58945.88 
    13.84858  1.72988  2.03678       0.73264          3203.2671  0.32751   0.1228     0.01179   9.06914     17.96337    6898.7204    -8.47229  0.53609  10226.62716  0.00051  58883.78771  52.60992  21.38205  18.67362   58948.0724 
    14.10167  1.79774   2.0314       0.91509         2843.71446  0.03831  0.11762        0.01  10.58006     16.27236   5128.95497    -8.08215  0.33254    9874.4519    1e-05  58884.17785  52.59406    2.5868  18.65541   58948.0724 
    14.10126  1.51749  1.66421         0.083          4506.9303  0.02009  0.08465     0.01161  13.90306     16.25839   5527.98888    -7.85222  0.29669  10069.46223    1e-05  58884.40778  52.63574    1.4361  18.76207  58951.27934 
    13.62922  1.57372  1.78657       0.06869         5276.75457  0.14383  0.09727      0.0113  11.40241     18.79084   6635.42591    -8.28161  0.92511  10743.61724  0.00343  58883.97839  52.67424   9.86644  18.69057   58948.0724 
     13.6429  1.63432  1.96659       1.14784         2619.71331  0.06041  0.10958     0.01232  10.86674     16.67439   8382.83831     -8.8309  0.85767  10792.15676    3e-05   58883.4291  52.67373   4.10166  18.71743   58948.0724 
    13.75037  1.71635  1.99811       0.26438         2998.80341  0.01909  0.06432     0.27552  17.78391     18.41861   3780.03717    -7.29876  1.06066  10581.86422  0.00146  58884.96124  52.69996   1.43215  18.72289   58948.0724 
    13.84463  2.06261  2.60216       3.22417         2746.14962  0.03821  0.07963     0.34712  15.99503     17.85135   6030.23133    -7.42092  1.00252  10833.51202  0.00039  58884.83908  52.71141   2.80834   18.7172  58944.75115 
    13.62431  1.84375  2.01355       1.36985         3014.86013  0.01961  0.09958     0.01002   8.22987     19.15169    3154.6873    -9.58262  0.67177   9243.51024  0.00788  58882.67738  52.51268   1.25258  18.67575   58948.0724 
    14.19528  1.88215  2.00705       1.43504         2700.61777  0.00155  0.16642     0.01089   6.22909     16.62333   3990.15176    -9.07898  0.21933    8893.1504    2e-05  58883.18102  52.45083   0.09304  18.73066     58945.88 
    13.77137  1.84981  2.04612       1.56123         2393.65418  0.18127  0.13669     0.01135   8.61826     17.00008   8315.15188    -6.97589   0.8053  10288.50635    6e-05  58885.28411  52.61022  11.70109  18.72604   58948.0724 
     13.2301  1.76685  6.66412       4.11711         2919.18821  0.49275  0.02472     0.30266  80.65426     19.45314   4581.79967     -6.2006  1.01639  18853.60983  0.01577   58886.0594   53.3127  47.74289  18.75298   58948.0724 
    13.72975   1.6158  1.85686       0.36416         3070.51822  0.16013  0.09516      0.0102  11.36726      19.0492   3617.15311     -8.7691  0.63378  10392.17536  0.00622   58883.4909  52.64507  10.97712  18.69723  58948.31064 
    13.79511  1.70236   2.1538        3.8528         2480.28293  0.03628  0.08494     0.14835  17.70526     18.03919   6746.49577    -7.15074    0.795  11519.22523  0.00061  58885.10926  52.77331   2.71926  18.76982   58948.0724 
    13.97374  1.79202    2.183        2.0486         2046.74924  0.15107  0.07588     0.25993  16.13434     16.98291   8016.84756    -7.59505  0.52163  11391.86864    5e-05  58884.66495   52.7558   11.1212  18.66391     58945.87 
    13.69856  1.71606  1.78264       0.05873          5177.6091  0.10725  0.09697     0.01033  10.46764     18.64578    7251.9412    -7.60777  0.97534   9640.80806  0.00246  58884.65223  52.57226   7.22418  18.72084     58945.87 
    13.68498  1.72451  1.76643       0.07434         5617.39055  0.24931  0.11762     0.01074   7.48417     16.67225   6633.69347    -7.70956  0.92018   9283.91934    3e-05  58884.55044  52.50703   15.5844  18.75921   58948.0724 
    13.73665  1.93262  2.10722       0.88894         2082.48853   0.1226   0.1177     0.01402  10.04969     18.46799   5714.75289    -8.61926  0.77122  11836.29962  0.00163  58883.64074  52.74665   8.18644  18.66213     58945.88 
    14.48052     1.77  1.52594       0.26153         5244.03735  0.01257  0.09489     0.14348  10.26981      17.0098   9726.78577    -5.66407  0.20946   7753.30556    6e-05  58886.59593  52.38123   0.84331  18.70926     58945.88 
    13.56135  1.67979   1.7868       0.03138         5016.42896  0.46119  0.13043     0.01007   8.73245     18.27557   7234.11021    -8.56649  0.97213  11030.41481  0.00105  58883.69351  52.67198  29.85717  18.66782   58948.0724 
    13.78289  1.68895  1.70477       0.00854         4823.35058  0.08992  0.09148     0.36188  10.04221     19.55688   6605.71138    -6.71539  0.98394   9659.30616  0.02003  58885.54461  52.57004   6.00339  18.73098     58945.88 
    14.01029  1.25593  1.45086       0.00326         4223.46211  0.00582  0.10375     0.01481   7.15816     16.84729   7155.79581    -8.83146  0.16902  10718.45435    4e-05  58883.42854  52.62734   0.36015  18.72812     58945.87 
    13.73451  1.81133  1.92556       0.18624         3609.40348   0.0363  0.09094     0.34378  10.39853     16.94744   4838.72025    -7.40186  1.27881   9235.45858    5e-05  58884.85814  52.53433   2.44142  18.75128  58948.31064 
    13.33181  1.26752  1.39069       0.56578         2777.81694  0.06024  0.12413     0.01542  10.30506      20.4688   3121.01077     -7.8293  1.36908  12234.39728   0.1635   58884.4307  52.77774   4.04415  18.72287   58948.0724 
    14.30267  1.59174  1.73075       0.27936          5783.3116  0.00194  0.08312     0.01043  10.94559     16.33482   6423.30512    -6.78851  0.20029   9158.91722    1e-05  58885.47149  52.53187   0.13217  18.75654   58948.0724 
    13.42362  1.53857  1.72685       1.11655         2474.24121   0.0699  0.15523     0.01452   7.60162     18.63781   9916.20826     -9.4606  0.96618  11644.97292  0.00241   58882.7994  52.70541   4.38512   18.7415     58945.88 
    13.44083  1.49994  1.74683       0.14874          2680.6272  0.06808   0.1332     0.02054   7.24412     17.93519   9727.52058    -8.32527  1.30441  11536.14027  0.00048  58883.93473   52.6924   4.22374  18.67392   58948.0724 
     14.2638  1.42249  1.63478       1.24234         2219.09392   0.4243  0.15952     0.01209   7.72286     16.18053   3720.44958    -7.45001  0.14446  10431.84001    1e-05  58884.80999  52.61143  26.71495  18.75953     58945.88 
    13.88883  1.91531  1.92268       0.51293          2265.1742  0.05174  0.15674      0.0104  10.65527     19.08768   4784.75518    -7.90605  0.55434   12095.7545   0.0068  58884.35395  52.77095   3.49859  18.67875   58948.0724 
    13.77863  1.77247  1.90605       0.15187         5860.70406  0.02372  0.05026     0.34091  21.69252     17.34096   9891.65473    -6.59905  1.13818   9899.31071  0.00012  58885.66095  52.65837    1.8477  18.67507   58948.0724 
    13.97089  1.67213   1.8366       0.62123         2175.29218  0.07654  0.06362     0.44317   23.7922     20.20828   6979.20226    -8.04222  0.45352   12738.1639  0.08975  58884.21778  52.88476   6.06499  18.75301     58944.18 
    13.71793  1.93629   2.2337       0.87321         2939.48407  0.18305  0.10002     0.01191  10.39795     18.35488   9284.89576    -7.53744  0.95492  10538.69395  0.00126  58884.72256  52.64899  12.31261  18.75505  58948.31064 
    14.50378     1.88   1.7459       0.02089         5893.97056  0.00623  0.08486     0.12956  12.95252     16.35502   8172.80401    -5.99075   0.2089   9686.81508    1e-05  58886.26925  52.59582    0.4389  18.69131     58945.88 
    13.82665   1.8368  1.79589       0.24556         3677.81331  0.02035  0.04667       0.323  20.69227     19.73468   7412.82556    -5.89197  1.15204   8978.08417  0.03016  58886.36803   52.5697   1.57121  18.74801   58948.0724 
    13.91638  1.61259  2.12093        2.9014         2079.25717  0.04902  0.02633     0.04672  45.47932     16.99604   3658.99668    -7.65254  0.50547  12063.10483    6e-05  58884.60746    52.886     4.343  18.70233     58945.88 
    13.69647  1.90593  2.03864       0.05203         4424.76193   0.1628  0.09535     0.01017  11.72453     18.51247   8889.46147     -8.2668  1.00872     11108.89  0.00181   58883.9932  52.70582  11.23318  18.69071     58945.88 
     13.7911  1.74923  1.80755       0.02874         3559.66332  0.02554  0.04467     0.23056  23.13104     16.66659   4069.69781    -6.75888  1.07655  10020.07831    3e-05  58885.50112  52.67405   2.01327  18.69386   58948.0724 
    14.05294  1.60163   1.7174       0.03517          4777.3537  0.01757  0.07515     0.01114  14.71101     19.84532   7277.31066    -8.07942  0.30537  11135.41644  0.03891  58884.18058  52.72807   1.27031   18.6744   58948.0724 
    14.45489  1.76715  1.54791       0.19117         3146.34354  0.36841  0.11569     0.08579  12.46889     20.68791   8779.69637    -7.01953  0.16806  11594.34126  0.27079  58885.24047  52.74854   25.7483  18.69283     58945.88 
    13.77844  1.52811  1.69474         0.068         2948.68949  0.12121  0.10936     0.34874  11.52616     19.42895   7032.99261    -7.26529  0.81191  10984.38834  0.01492  58884.99471  52.69448   8.33388  18.71293   58948.0724 
    13.37979  1.46346  1.50295       0.06338         5226.09417  0.11139  0.12651     0.01035   7.05467     19.29599   5944.91218    -8.37125  1.01056   9966.34515  0.01098  58883.88875  52.56266   6.86755  18.69021     58945.87 
    13.57265  1.45927  1.68869       0.23768          4548.9585  0.21421  0.10958     0.01023   9.06747     17.11513   4314.10374    -7.13467  0.88117   10266.2755    7e-05  58885.12533  52.61326  13.98459  18.71108   58948.0724 
    13.74877  1.44515  1.79943       1.30965         3114.42654  0.12901  0.12416     0.01038   8.06066     17.88539   6792.15508    -8.02109  0.57017   8405.93272  0.00043  58884.23891  52.42813   8.20288  18.75278  58948.31064 
    13.69768  1.71833  1.87452       0.19593         5353.37246   0.1451  0.10092     0.01048  10.04375     16.74935   4219.88818    -7.88725  0.94288    9516.2448    3e-05  58884.37275   52.5571   9.68742  18.74633  58948.31064 
    13.79747  1.50752  1.88459       0.83342         2783.66737  0.17582  0.07066     0.01053  14.14295     16.03818   4613.92882    -8.62866  0.44757  10811.25092    1e-05  58883.63134  52.69898  12.60871  18.64507     58945.87 
    14.22234  1.82319  2.08645       0.75306         2963.35976  0.09304  0.09301     0.01024  11.24852      17.4699   3103.53414    -8.75179  0.22653  10019.36596  0.00016  58883.50821  52.61237    6.3644  18.75577  58948.31064 
    14.34324  2.08904  2.24845       0.77843         3247.90096  0.36979  0.10721     0.01021    7.5686     18.42007   3937.14838    -9.25894  0.16292   9330.58213  0.00146  58883.00106  52.51251  23.17498  18.70695     58945.88 
    13.97136  1.58095  2.14666       3.28115         2719.26488  0.07764  0.02998     0.23291  53.72222     17.05519   5944.81098    -7.31229    0.478  11753.80703    6e-05  58884.94771  52.87509   7.06674  18.71987   58948.0724 
    13.55674  1.59951  1.61841       0.02483         5617.77837  0.01937  0.07046     0.01011  15.88913     20.28787   8124.14455    -7.79996  1.00946  11405.59988  0.10779  58884.46004  52.75554   1.42136  18.65822   58948.0724 
    13.77353  1.71011  1.89942       0.03786         5821.37942  0.10882  0.05879     0.43551  22.18717     19.86215   8976.47741    -7.35569  0.91786   11829.8199  0.04045  58884.90431  52.81493   8.51255  18.70009     58945.88 
    14.41082  1.87043  1.82552       0.11436         5883.02652  0.01322  0.05096     0.11339  24.04696     16.03548   6846.39248    -6.88744  0.25307   9619.76117    1e-05  58885.37256  52.64172   1.04985  18.72355   58948.0724 
    13.98896  1.59132  1.83211       0.51003         3326.62562  0.04359   0.1061     0.01042   8.50232     17.35473   7793.74789     -8.5465  0.33237   9110.91803  0.00013   58883.7135  52.50332   2.80515  18.76195     58945.88 
    14.17853  1.65408   1.7312       0.02323         3781.87869  0.05888  0.09565     0.01078  10.72879     18.11075   3602.58789    -9.50438  0.14692  12243.52538  0.00072  58882.75562  52.78214   3.98711  18.70795   58948.0724 
    14.23475  1.58245  1.88744        1.0355          2866.6466  0.02281   0.1273     0.01405   7.81878     17.84842   6985.31603    -8.45953  0.16679   10251.8336  0.00039  58883.80047  52.59755   1.43995  18.72259   58948.0724 
    13.58313  1.74183  1.95186       0.15466         5290.92877  0.48367  0.11532     0.01231   8.36387     18.60517   6556.40612    -8.09572  1.21991  10262.39211  0.00224  58884.16428  52.60509  31.01124  18.68376     58945.88 
    14.01621  1.53763   1.7326       0.23967         3563.25178  0.11084  0.10522     0.01084   8.84482     18.28028   3262.09792    -8.84757  0.23835  10384.81843  0.00106  58883.41243  52.62084   7.19624  18.66635     58945.87 
     13.4684   1.2436  1.46445       0.67254         2894.39182  0.17848  0.13872     0.01006   7.76339     16.97787    4820.1007    -9.21239   0.6594   9826.66695    5e-05  58883.04761  52.56005  11.25108  18.69206   58948.0724 
    13.81173  1.93943  2.09077        0.6713         2440.29832  0.15339  0.15366     0.01643   6.55333     17.10915   3700.16421    -7.41764   0.8309    9897.2929    7e-05  58884.84236  52.54905   9.29344  18.68617     58945.88 
    14.40207  1.72161  1.93749        1.0537         2180.58483  0.10276  0.13318     0.01409   9.52014     16.16571   4231.23035    -8.59776  0.12356   11852.2277    1e-05  58883.66224   52.7427   6.78111  18.72108   58948.0724 
    14.21754  1.61925  1.62844       0.14447          2801.8585  0.10329  0.11812     0.01256  11.45967     20.35817   5062.47356    -9.12372  0.17981  12175.64279  0.12674  58883.13628  52.78338   7.09296  18.71238  58948.31064 
    14.32016  1.77597  1.71003       0.07167         5252.47081   0.0183  0.06674     0.13012   20.0553     18.32697   9255.29054    -6.87638  0.28743   9681.59843  0.00118  58885.38362  52.63268   1.40515  18.70624   58948.0724 
    14.23603  1.68188  1.77241       0.00696         4946.24924  0.01314  0.07644     0.01003  13.95386     16.65908   6451.86314    -7.23986  0.24598  10592.01515    3e-05  58885.02014     52.68   0.93952  18.71802     58945.88 
    13.78438  1.53634  1.84685       0.49258         2499.91288  0.09466  0.11415     0.01882   9.64922     16.23226   5427.16631    -7.92503  0.59799  11066.02646    1e-05  58884.33497  52.68436   6.26521  18.78583   58948.0724 
    13.71194  1.72668  1.98321       1.25024         2078.21748  0.25162  0.14132     0.01836   7.28288     17.27011   7076.72021    -8.76422  0.74535  10252.48636   0.0001  58883.49578  52.59048  15.62931  18.72417     58945.87 
    13.72553  1.84878  2.45782        3.1893         2946.55633  0.03818  0.09731     0.28274  11.50831     16.06188   7256.10159    -8.00435  1.01731  10351.53643    1e-05  58884.25565  52.64279   2.62436  18.70368     58945.88 
    13.60483  1.46415  1.70455       0.16242         2472.70266  0.16068  0.09657     0.01087  13.67653     18.28524   8874.61571    -8.07018  0.85695  11704.86174  0.00107  58884.18982  52.76501  11.44525   18.7024     58945.88 
    13.69362  1.71536  1.86301       0.35308         5828.88744  0.04786  0.04813     0.39396  18.64017      16.1917   4179.27829    -6.81063  1.41717   8591.56286    1e-05  58885.44937   52.5229   3.62301  18.66868     58945.87 
     13.8361  1.78572  1.74817       0.17379         5552.82576  0.02108  0.03779     0.09931  31.75426     16.25812   9608.94584    -5.48519   1.1371   9829.87781    1e-05  58886.77481  52.68194   1.75827  18.74368     58945.87 
    13.61462  1.60945  1.75737        0.0685         5118.27919  0.33008  0.10585     0.01052   8.56445     18.53547   7114.44285    -8.27739  1.03466   9277.98152  0.00191  58883.98261  52.51982  21.27685  18.70922   58948.0724 
    13.65873  1.69006  1.82637       0.12474         5706.36233  0.04207  0.09844     0.01242  10.85662     17.41717   8050.98069    -7.01039  1.14971  10081.02367  0.00015  58885.24961  52.61443   2.85639   18.7091   58948.0724 
    13.84256  1.93952  2.01621       0.04294         2046.29314  0.11701  0.13426     0.36548  10.40696     16.94377   9633.04747    -6.84935   1.3944  11210.73444    5e-05  58885.41065  52.70276   7.87218  18.73441   58948.0724 
    14.49469  2.06508  2.04957       0.81534         2526.68428  0.17628  0.12991     0.01275    8.8065     20.23414   5866.79076    -8.09512  0.13825  11029.19195  0.09525  58884.16488   52.6727   11.4337  18.71292  58948.31064 
    13.71242  1.70436  1.77657        0.0144          5351.3142  0.13248  0.13541     0.01203   7.61339     16.09577   8026.10745    -8.12785  0.72713  10269.28563    1e-05  58884.13215  52.59637   8.31399  18.70739     58944.18 
    13.64015  1.71056  1.87261       0.99618         2827.42561  0.08196  0.14199     0.01026   6.62176     19.52513   6053.49745    -8.11375  0.83438   8890.99137  0.01861  58884.14625  52.45699   4.97824  18.71204     58945.88 
    14.48478  1.69919  1.60921       0.08614          5171.8212  0.02847  0.06964     0.29915  20.22001     16.14744   8605.84847      -6.413  0.19488   9887.73523    1e-05    58885.847  52.65165   2.18888  18.74231   58948.0724 
    13.63051  1.71237  2.01513       0.74318         2901.44194  0.33189  0.10199     0.01096  11.63263     19.21162   6155.43093    -8.31568  0.88659  11391.03977  0.00904  58883.94432  52.72689  22.86308  18.71375     58945.88 
    13.70061  1.21739  1.41895       0.09701         2830.03321  0.08182  0.12278     0.01133   8.44637     16.00145   4391.95912    -9.13107  0.38728  10448.41593    1e-05  58883.12893  52.62166   5.25762  18.73882  58951.27934 
    13.45418  1.46842  1.68624       0.00554         5937.82638  0.21243  0.09498     0.01113  10.45541     18.02069   8262.92746    -8.81847  1.23099   10596.9951  0.00058  58883.44153  52.65429  14.30607  18.73233     58945.88 
    13.62315  1.36325  1.53846        0.0681         4501.47383  0.01088   0.0933     0.20536  12.58413     16.52386   5345.63964    -7.38819  1.03454  10342.25414    2e-05  58884.87181  52.65011   0.76167   18.6827     58945.88 
     14.2768   1.5949  1.70105       0.49002         2497.72515  0.12226  0.13348     0.01024   6.92812     18.06244   6362.49021    -7.87568  0.14358   9947.58154  0.00064  58884.38432  52.55918   7.50584  18.74423     58945.88 
    13.81014  1.65992  1.93368       0.05065         4063.05264   0.0678   0.0908     0.07423  12.67305     16.14274    3880.5203    -7.94484  0.76419  11242.69423    1e-05  58884.31516  52.72325   4.75442  18.73513  58948.31064 
    14.25118  1.82616  2.08756       0.59564         3116.46245  0.16654  0.10215     0.01028  11.16115     17.08674   5856.72348    -7.80033  0.21988  10881.76321    7e-05  58884.45967  52.68337   11.3725  18.75385  58948.31064 
    13.61742  1.40814  1.80508       1.41986         2247.73109  0.09793  0.06427     0.23851  17.98031      17.6415   5463.51491     -8.4944  0.90574  10300.58256  0.00024   58883.7656  52.67748   7.36317  18.75539     58945.88 
    13.71593  1.40607  1.59609       0.03206         5241.20225  0.06804  0.09109     0.01094  12.67608     16.68334   8684.27338     -7.4212  0.64118  10681.88469    3e-05   58884.8388  52.67882   4.77126  18.65515     58945.87 
    14.57404  2.13354  2.31616       0.23455         4781.20607   0.0111  0.09724     0.40507   9.49474     16.75769   7616.31737     -7.4309  0.17538   9819.20808    3e-05   58884.8291    52.579   0.73221  18.70891     58945.88 
    14.06005  1.77789  1.99734       0.40916         2687.12128  0.07405  0.10482     0.01186  11.16579     17.39437   5654.01556    -8.63472  0.33894  10783.35169  0.00014  58883.62528  52.67552   5.05722  18.75465  58948.31064 
    14.26458  1.57108  1.67822       0.11394          2033.5568  0.04768  0.13144     0.01364   7.21105     17.42198   6489.13757     -8.2316  0.18792   9693.86726  0.00015   58884.0284  52.54081   2.95503  18.79646     58944.18 
    14.34959  2.00976  2.11642       0.49913         2897.92988  0.03005  0.09757      0.0135   9.25573     19.86228   4892.97872    -8.86241  0.15714   10996.0174  0.04046  58883.39759  52.67488   1.97051   18.6819     58945.88 
    13.84928  1.52512  1.73013       0.00249          4574.6266  0.03511  0.06821     0.10086  19.41391     16.99908   6558.43186    -7.40552  0.62792  11688.03537    6e-05  58884.85448   52.7936   2.67853  18.72882   58948.0724 
    14.60461  1.92801  1.99663       0.13323         4195.22232  0.00155   0.1118     0.07895   7.99053     18.17849   9849.49614    -7.52858  0.13744   9246.35609  0.00084  58884.73142  52.51004   0.09818  18.68523     58945.88 
    13.92067  1.96893  2.03357        0.2444         4883.62838  0.09942   0.0968     0.33911  11.94901     18.63377    5604.2465    -6.55263  0.90107   9925.16947  0.00239  58885.70737  52.60968   6.88703  18.75835     58945.88 
    13.57591  1.77821  1.97581       0.35409         3080.56251  0.05342  0.09832     0.01223   9.48168       18.194   8358.99683    -8.25967  0.97127  11072.82605  0.00087  58884.00033  52.68323   3.52226  18.70166     58945.88 
    14.08947  1.47693  1.66101        0.5697         2880.26294  0.21683  0.12974     0.01213   7.54741     16.08465   6154.18233    -9.21115  0.16781  10761.59001    1e-05  58883.04885  52.63617  13.58035  18.67913     58945.87 
