 texplosion  fnickel    Pspin  log(Bfield)      Mns  thetaPB   mejecta    kappa  kappagamma     vejecta  temperature    alpha  cutoff_wavelength  log(nhhost)      A_V         MJD0   kenergy  mnickel            TSD   log(L0)  Peak_mag     Peak_MJD  log(E_rad)  log(Peak_lum)  Rise_Time    E_fold  tau_1  delta_m15     r_peak     frac 
   -9.94384  0.01415  3.55973     14.15253  1.46433  0.66191   4.22506  0.11656     0.38019  5658.97603   6133.71237  1.42726           3029.496     17.47024  0.00016   58536.3296   0.80712  0.05979   853567.68548  45.40041  19.26996  58587.81171    51.02219        44.2557    28.4556  39.83784   61.5    0.17884    -20.922  0.99481 
   -9.92239  0.11258  2.53536     14.42713  1.70508   0.5904  11.93322  0.05514     0.06745  6300.57602    6704.8626  0.16409          2650.9502     18.37672  0.00132  58536.35104   2.82583  1.34346   142355.11766  46.53914  19.28459  58590.20198    50.87506       44.08749   25.11167  52.66696   55.5    0.18846  -20.91808  0.95557 
   -6.41177  0.03576  2.79245     13.99593   1.2721  1.45299   6.92291  0.08342     0.09173  4432.46363   3744.47698  1.96669         3737.75336     19.62401  0.02337  58539.86167   0.81135  0.24756   938529.98682  45.50895  19.29793  58588.40134    50.95538       44.19404   20.86744  48.89008   52.0    0.17569  -20.93545  0.98403 
   -7.66854  0.07455  4.30914     14.45456  1.71405   0.5161  18.37825  0.03526     0.09185  5726.77983   6204.96343   2.0193         3297.11995     18.10426  0.00071   58538.6049   3.59544  1.37014   364341.60784  45.67258  19.33644  58590.20198    51.00126       44.24248   20.86744  49.32304   62.0    0.16558  -20.94359  0.87902 
   -9.94097  0.25328  1.32958     14.37431  1.70714  1.29254  13.25804  0.07551      0.2522  7126.53021   7031.89112  0.04943         3142.22898     18.76318  0.00322  58536.33247   4.01664  3.35796    49991.55365  47.55479  19.31211  58586.21094    50.90096       44.15088   26.55856  45.61104   63.0    0.15604  -20.87199  0.97556 
   -9.32618    0.261  3.20281     14.39249   1.9514  0.80244   7.95728  0.06912     0.32554  6567.47372   8754.47852  0.00187         5156.37505     17.17884    8e-05  58536.94725   2.04733  2.07687   304963.07516  46.06388  19.31565  58592.59225    50.94056       44.18899   27.98979  46.76029   51.5    0.19541  -20.93273  0.91405 
   -6.71302  0.10156  2.36777     14.29137  1.66596  1.43829  20.04557  0.04334     0.01688  6226.47053   7622.87729  0.89836         3447.29563     18.21338  0.00091  58539.56042   4.63585  2.03591   226684.58587  46.38641  19.27667  58590.20198    50.99173        44.2093   24.66152  49.32304   52.0    0.16755  -20.93265  0.94107 
  -11.04636  0.01444  3.48884     14.31161  1.82151  0.71684  13.69154  0.04811     0.01543  6484.34969   6463.22337  0.30944         4240.71063     19.30994  0.01134  58535.22707    3.4341  0.19768     490209.316  45.75353  19.36324  58590.20198    51.12664       44.35438   24.66152  41.73488   51.0    0.19234  -21.00316  0.98829 
   -5.86793    0.086   2.3594     14.16831  1.60694  1.46585  15.37223  0.05634     0.03555  5908.89355   4093.40634  1.76183         3222.19945     20.66589  0.25741  58540.40551   3.20167  1.32196   382647.56807  46.14644   19.3043  58590.20198    50.99599       44.28597   22.76448  41.73488   54.0    0.14972  -21.14094  0.95861 
  -11.46632  0.12523   2.3609      14.2085  1.74736  1.31677  14.66601    0.044     0.05042  6490.14077   4362.45788  0.07348         4548.55422     20.02616    0.059  58534.80711   3.68508  1.83665   346220.48368  46.22572  19.25848  58590.20198    50.88717       44.12512    28.4556  45.52896   59.0    0.19494  -20.96701   0.9497 
   -10.9726  0.02062  2.83623     13.94632    1.256  0.98437   7.36717  0.09136     0.01178  5255.80521   3173.06961  1.35168         3078.73203     17.75338  0.00031  58535.30083   1.21397  0.15194  1201283.76619  45.38271  19.23291  58588.40134     51.1166       44.43265   24.66152  34.61794   53.0    0.14811  -20.89625  0.98957 
  -12.22638  0.00112  3.36924     14.50371  1.87393  0.50967    12.076  0.06809     0.38096  5638.41186   7387.66096  0.84252         3392.95974     16.36625    1e-05  58534.04706   2.29015  0.01348   194182.54107  46.19833  19.22961  58588.40134    50.97582       44.28794   27.98979  36.50957   50.5    0.15706  -20.86139  0.99928 
   -9.82046  0.00118  2.45576      14.3388  1.89369  0.65147  20.55326  0.02119     0.01917  5546.63592    5434.5971  0.10964         4406.15643     20.34567  0.12314  58536.45298   3.77196  0.02415   222793.27743  46.41788  19.32334  58593.45705    51.09096       44.34545   22.76448    47.426   61.0    0.19717  -20.99395  0.99933 
  -10.10037  0.05669  5.30255      14.1708  1.77722  0.98843  23.37033  0.01847     0.45391  4178.35527   4292.79352  2.20593         4045.77382     16.11674    1e-05  58536.17307    2.4339   1.3248   2113108.2456  44.74469   19.2908  58592.59225      51.119       44.43457   22.76448  38.12404   73.0    0.15812   -20.8985  0.83798 
   -2.73973  0.22536  2.00828     14.65164   1.8599  0.71169  19.32965  0.05017      0.1424  7216.95807   6008.18298    4.509         2292.55018     20.37249  0.13098  58543.53371   6.00564   4.3562    34647.70834  47.39301  19.31627  58590.20198    51.07261       44.31571   22.76448  41.73488   75.0    0.14751   -21.0317  0.93117 
   -8.97367  0.01464  2.73783     14.43041   1.4971  0.39035   14.1461  0.04293     0.04624  3939.32617   5105.96026  2.08228         3677.35149     20.69317  0.27409  58537.29977   1.30951  0.20712   143567.38851  46.41223  19.32441  58590.20198    51.04451       44.28129   23.83677  40.66259   59.0    0.14661  -21.08676  0.98987 
   -8.31401  0.16125  2.20441     14.26858  1.43464  0.77314  10.94419  0.06106     0.05647  6615.04927   8428.43914  0.10957         5120.27841     17.47375  0.00017  58537.95943   2.85678  1.76478   187923.95252  46.46502  19.27566  58590.20198    51.05017       44.27146   19.74354  46.87437   46.5    0.20272  -20.95885  0.94377 
  -11.27372   0.0791  3.06291     14.22932  1.66817  1.10552  10.60618  0.07859     0.01431  4572.37064   5315.62238  1.68354         3547.10226     16.75901    3e-05  58534.99972   1.32272  0.83894   505458.59177  45.81513  19.31091  58592.59225    50.87796        44.0598   31.64211   52.4154   60.0    0.12972  -20.79298   0.9579 
   -3.95809  0.02901  1.60466       14.479  1.99269  1.35664  43.68996  0.02205     0.04527  5526.71214   7641.72583  1.37118         3592.51426     16.10268    1e-05  58542.31535   7.96054  1.26725    52482.40745  47.43751  19.22601  58588.40134    51.13065       44.44364   24.46981  34.33843   48.0     0.1569  -20.96053  0.98885 
    -6.9099  0.20555  5.69946     14.50245  2.01888  0.86024  14.85109  0.03736      0.2078  4728.09364   7911.37156  3.84243         3353.99546       16.048    1e-05  58539.36353   1.98042   3.0526    602125.8244   45.2826   19.3041  58590.20198    51.10677       44.34415    18.9704  45.52896   72.5    0.15152  -20.89298  0.70505 
   -4.06114  0.00982  2.60916     14.69838  1.81771  0.47029  17.70756  0.06141     0.02669  5222.70702   5982.20408  2.67343         3564.05618     17.56465   0.0002   58542.2123   2.88122  0.17384    46088.30894  47.03178  19.32995  58588.40134     50.9611       44.21751   29.88683  42.20069   50.5    0.14011   -20.8867  0.99433 
   -10.7478  0.08204  2.78116     14.25309  1.71122   0.9766  16.09472  0.03869     0.13841  6130.40132   7807.61838  0.17016         4144.89977     17.01346    6e-05  58535.52563   3.60818  1.32043   383165.40947  46.03031  19.29376  58590.20198    50.90375       44.13043   26.94078  47.28126   52.0    0.18756   -20.8981  0.94802 
   -5.45295  0.12528  2.00488     14.37917   1.6586  0.87255  16.75791  0.04486     0.17847  7139.93837   5851.70782  0.55883         2121.32363     19.17047  0.00823  58540.82048   5.09608  2.09942   107991.77854  46.85102  19.29503  58593.45705    51.07982       44.35863   22.76448  41.73488   52.0    0.19855   -20.9907  0.95593 
   -7.31785  0.05707  3.58955     14.23047  1.76728  1.00361    6.3033  0.10139     0.18902  5995.19948   7790.68099  0.91071         3456.43192     19.35118  0.01247  58538.95559   1.35146  0.35972   731574.49707  45.54181  19.28572  58587.81171    50.91561       44.15659   27.98979  45.99477   49.5    0.18522  -20.95408   0.9767 
   -10.9736  0.09853  1.86307     14.44299  1.88423  1.04145  21.88066  0.05794     0.03313  7219.21728   7037.52861  0.16186          3794.7592      19.5805  0.02115  58535.29984   6.80249  2.15592    78964.78452  47.10609  19.24384  58588.40134    51.18721       44.50495   22.76448  34.03827   54.5    0.15457  -20.85156  0.96871 
   -3.42215  0.02538  2.30897     14.56003  1.84922  0.82208  39.97763  0.02454     0.02841  4544.32899   7331.36285  2.39538         3912.02089     16.63648    2e-05  58542.85129   4.92475  1.01478    69436.02808  46.96741  19.30429  58588.40134    50.99238       44.20642   23.83677  44.45667   54.5    0.12336  -20.84008  0.97605 
  -10.78346  0.14936  2.94407      14.2685  1.82698   1.0624  17.01049  0.03052     0.06601  5778.53515   7069.13759  0.28781         3841.71715     19.45838  0.01596  58535.48998   3.38828  2.54065   427013.19295  45.96224  19.27751  58588.40134      51.158       44.44074   22.76448  36.51498   69.5    0.18052   -20.9219  0.90318 
    -5.9981   0.0097  2.93102     14.17145  1.61083  1.15649  18.78651  0.04285      0.1386   5736.1973   5977.15626   1.9772         2660.01062     18.70019  0.00279  58540.27534   3.68741  0.18221    583441.3214  45.77586  19.25975  58590.20198    50.97284       44.23268   22.17721  44.45667   52.0    0.16009  -20.89694  0.99086 
   -9.72814  0.03552  1.08139      14.3106  1.70467  1.10313  16.65174  0.05972     0.42397  5286.38985   8104.72948  0.86111         3918.02262     20.54643   0.1955   58536.5453   2.77591  0.59154     44280.7953  47.78631   19.2494  58588.40134    51.13679       44.45706   22.76448  33.09027   47.5    0.13649  -20.95472  0.99706 
  -11.50081  0.00522  3.05237     14.03078  1.66807  1.17222   4.58875  0.07419     0.02202  5806.29476   8931.73905  0.00865         2972.14154     18.80153  0.00352  58534.77263   0.92283  0.02394  1252377.28208  45.42405  19.28928  58588.40134    50.95375       44.16436   32.24968  44.39744   49.5    0.18312  -20.86577  0.99874 
  -10.29545  0.04734   1.6475     14.46056  2.08915  1.21617  51.24348   0.0149     0.02837  5654.54882    6094.4669  0.32089         4388.95247     16.40296    1e-05  58535.97799   9.77376  2.42597    63141.76948  47.35485  19.27981  58592.59225    50.96923       44.23267   23.82521  46.03855   61.0    0.16315  -20.82806  0.97757 
   -9.79705  0.00986  2.31956     14.21718  1.92429  1.51076  32.19737  0.01536     0.04791  5213.86141   3763.86806  0.14535         5146.54231      17.0306    6e-05  58536.47639   5.22115  0.31746   353624.65213  46.27376  19.21431  58590.20198    51.16146       44.46506   22.76448   37.9408   54.5    0.20057  -20.87146  0.99241 
   -9.26486  0.00556  3.82451     14.20459  1.85071  1.23541  14.93857  0.05042     0.08506  6032.30697   6219.50544  1.10617         3501.10279     18.20993   0.0009  58537.00858   3.24267  0.08299   979775.46653   45.3799  19.31111  58587.81171    50.88684       44.06926   27.00871  52.66696   51.5    0.17957  -20.95465  0.99419 
   -9.35448  0.04287  4.62602     14.42458  1.96809  0.61511  15.58053  0.03347     0.44639  4729.23937   5484.27944   1.5602          3867.7256     17.94667  0.00049  58536.91895    2.0787  0.66793     553492.217  45.48936  19.28431  58592.59225     51.1245       44.41636   24.15193  36.55335   62.5    0.16782  -20.93272  0.94073 
  -10.58859  0.00137  3.38923     14.14698  1.92545  1.30635  10.93876  0.04116      0.0743  5319.98347   6066.58483  0.27778         5955.39646     17.07554    7e-05  58535.68485   1.84678  0.01496  1043749.77032  45.47458  19.26947  58587.81171    50.94195       44.16244   31.94254  42.80754   59.5    0.18026  -20.96758  0.99922 
   -3.62925  0.01224  2.50012     14.31568  1.72427  1.34191  22.69192  0.03733     0.36207  5250.96805   7813.01494  1.96019         3522.03601     19.73132  0.02993  58542.64418   3.73231  0.27767   233873.48637  46.34055  19.30755  58590.20198    51.02764        44.3119   24.66152  41.73488   46.5    0.16467  -20.91261  0.99101 
  -18.77366   0.0062  2.08559     14.31615  1.71456  0.72886   5.93974  0.15066     0.02354  5368.19803   5195.86711  0.02635         5544.11937     17.72208  0.00029  58527.49977   1.02106  0.03684   161484.13879  46.65641  19.25252  58590.20198    51.04204       44.30395   20.86744  43.63192   51.0    0.14826  -20.67954  0.99915 
   -6.16851  0.03002  1.49723     14.39134    1.697  1.04677   30.5254   0.0382     0.07937  6274.89352   7842.79632  1.11324         3360.25616     16.69819    3e-05  58540.10492   7.16971  0.91649    58263.84725  47.38255  19.24496  58590.20198    51.15721          44.46   23.56863  35.23961   45.5    0.15455  -20.97246  0.99037 
    -2.5162   0.0584  1.25071     14.68192  1.62065  0.51131  10.55507  0.15029     0.32128  6692.21092   8556.88618  2.05243         3333.80683      16.1058    1e-05  58543.75723   2.81986   0.6164    10185.18354  48.27625  19.26921  58590.20198    51.11017       44.37951    18.9704  39.83784   46.5    0.14141  -20.94859  0.99608 
   -4.81471  0.09996  0.74197     14.53252  1.83104  1.48634  25.73929  0.04739     0.08189  6039.75397   4827.68702  1.30694         3310.99852     16.21827    1e-05  58541.45873   5.60096  2.57303     8058.23529  48.88454  19.28214  58590.20198     50.9152       44.11052   31.94254  47.55394   59.5    0.10699  -20.78216  0.99857 
   -6.58332  0.10442  5.73686     14.31834   1.9251  1.00882  22.60149  0.02203     0.25629  5215.74577   8636.56313  3.01392          3329.0271     17.74065  0.00031  58539.69012   3.66773  2.36013  1358118.26167  44.90301  19.27685  58590.20198    50.97303       44.20811   27.98979  43.66477   65.5    0.16632  -20.91444  0.73825 
  -11.72579  0.00216  3.86145     14.25622  1.38191  0.31703   7.01706  0.06013     0.01867  6157.32469   7263.55218  1.33062         3146.06312      18.9984  0.00554  58534.54765   1.58696  0.01514   587977.29101  45.46646  19.27277  58588.40134    50.94078       44.19599   28.90575  41.28473   63.5    0.15338  -20.92272  0.99826 
   -4.57619  0.03602  1.78082     14.55979  1.95875  0.80973  19.59702  0.04189      0.0366  4663.88719   7263.41542  1.20173         4128.48923     18.53483   0.0019  58541.69725   2.54281  0.70587    43797.27617  47.41814  19.23318  58588.40134    51.06877       44.30149    28.4556  39.83784   49.0    0.14759  -20.91363  0.99127 
    -3.3105  0.15975  0.97436     14.58295   1.4021  0.76343  36.05371  0.02118     0.04355  6969.90662    4495.9286  0.83209         3821.36917     17.91369  0.00046  58542.96294  10.44795  5.75971     8435.90667  48.51205  19.29625  58587.81171    50.93576       44.11205   33.83958  45.83609   86.5    0.16373  -20.98991  0.98559 
  -10.20905  0.00334  3.90522     14.15581  1.83154  1.54634  13.16059  0.05913      0.0183  4893.04489   7018.92101  1.96288         3274.92381     18.59628  0.00219  58536.06439   1.87958  0.04399  1265616.22542  45.24607  19.22011  58590.20198    51.01396        44.2599   24.15193  44.36302   57.5     0.1415   -20.8462  0.99673 
  -10.61263  0.00122  3.75435     14.11182  1.69161  0.93389    9.4989  0.07351     0.08182  6671.00942   5867.97081  1.22258         2710.27252     19.91453  0.04563  58535.66081   2.52164  0.01157  1322936.19393  45.22654  19.23302  58590.20198    51.12714       44.42774   26.04897  34.83955   58.0    0.16898  -21.02094   0.9991 
   -7.86863  0.01134  1.55897     14.27797  1.64992  1.55572  27.15081  0.05165     0.01819   5591.5133   4694.62312  1.23851         3652.37481     18.23283  0.00095   58538.4048   5.06371   0.3078   103515.46329  47.08563  19.32083  58592.59225     50.8794       44.05445   34.14672  49.32304   51.0    0.12844  -20.90051  0.99612 
   -8.74189  0.00607  3.25721     14.19969  1.47457  0.61025   9.22698  0.06545     0.19362  6647.17753   6119.08482  0.86182         2683.98321     18.69425  0.00275  58537.53155   2.43199  0.05603   579148.73377  45.64903  19.24526  58590.20198    51.06308       44.35384    18.9704  43.63192   56.5     0.1886  -20.99694  0.99598 
   -7.13643  0.46906  1.67611     14.45707  1.87365  1.03008   3.30583  0.27278     0.16455  6088.11648   8897.96065  0.52527         4518.50347     16.65779    3e-05  58539.13701   0.73093  1.55064    59561.80259  47.31796  19.39045  58590.20198    50.97308        44.1995   26.04897  47.50263   42.0    0.17825  -20.99442  0.98219 
   -5.03899  0.01698  0.81239     14.65764  1.75414  0.58339  18.86508  0.09793     0.48195  7185.06684   6253.05717  1.63332         2872.19678     19.98804  0.05405  58541.23445   5.80961  0.32025     5201.55778  48.97725    19.275  58588.40134    50.99937       44.23667   26.09275  40.52516   47.0      0.094  -21.09435  0.99957 
   -7.55131   0.4118   1.4116     14.52616   2.1016  1.28669  10.31179  0.05368     0.01364  5607.68483   8227.78648   0.3157         4090.77642     16.29793    1e-05  58538.72212   1.93432  4.24643    34472.91128  47.75449  19.24489  58590.20198    51.05875       44.35837    28.4556   37.9408   62.5    0.20174    -20.905  0.97714 
  -10.59703  0.01565  4.91017     14.14694   1.9406  1.26523  24.26519  0.01722     0.01233   4230.7034   6891.20722  2.01283         3550.70016     18.94501  0.00489   58535.6764   2.59081  0.37983  2208348.17332  44.83052  19.23258  58590.20198    50.98093       44.22902   30.80279  41.28473   68.0     0.1649  -20.84054  0.96017 
   -4.77643  0.00243  2.86392     14.42958   1.6692  0.69236   8.02017  0.10441     0.14783  4653.35701   6807.37954  2.33262         3659.44879     17.26187   0.0001  58541.49701   1.03596   0.0195   175828.11751  46.33235  19.29546  58590.20198    51.09828       44.36032   25.43466  40.96173   50.5    0.14816  -20.90485  0.99911 
   -9.47838  0.11651  3.54966     14.53149  1.85278   0.5881  15.27197  0.04061     0.03146  5473.83759   6336.62735  1.10999         3695.30886      16.1744    1e-05  58536.79505   2.72964  1.77941   187510.31723  46.16327  19.31972  58592.59225    51.09382       44.38632    18.9704  43.63192   60.0    0.17629  -20.91813  0.90337 
   -9.78492  0.15177  4.37513     14.26428   1.7247  0.88103   9.23605  0.06081     0.02067  5406.03349   8700.75235  1.34256         4014.77197     17.59937  0.00022  58536.48852   1.61017  1.40172   907729.35526  45.26562  19.28458  58592.59225    51.20372       44.50383   20.86744   37.9408   54.5    0.17916  -20.95276  0.87423 
   -7.05783  0.11209  1.87849     14.30176  1.47087   0.7826   12.6119  0.05624     0.43603   5637.4088   5999.57533  0.50165         4414.75088     19.92407  0.04664   58539.2156   2.39093  1.41363   120083.15471  46.80932   19.3556  58592.59225    50.97659         44.224   22.35146  49.08179   52.0    0.18413  -20.98209  0.96808 
   -8.87965  0.00336  3.33107     14.31593  1.93627  0.73309  23.30672  0.01574      0.0219  4585.22643   6088.89473  0.44431         5818.41397     19.04006  0.00609  58537.39379   2.92301  0.07842   465687.28856  45.84255  19.30322  58588.40134    50.96625       44.16402   27.98979  45.99477   62.0    0.18894  -20.96178  0.99611 
    -8.8062  0.00399  2.81688     14.12446   1.9293  1.26746  13.00093  0.04021     0.08153  6272.61167   3495.00265   0.3592         3353.69609     20.59928   0.2208  58537.46724   3.05139  0.05183   801370.55103  45.75088  19.27436  58586.21094    50.90412       44.09766   31.94254  43.93905   59.0    0.19532   -21.1842  0.99815 
   -6.01089  0.11397  3.92585     14.53812  1.80029  0.53824  11.94346  0.04953     0.32069  5508.94551   5136.54746  1.81495          3280.0674     18.57698   0.0021  58540.26255   2.16219  1.36119   216165.85571  46.00153  19.25063  58586.21094    50.86992       44.07373   31.94254  43.93905   57.5    0.18249  -20.91007  0.90515 
  -12.92587  0.05556  1.31634     14.19809  1.72774  1.24713  18.07925  0.05887     0.04957  6262.16199   5079.06404  0.21548         2959.25291     20.63629  0.24045  58533.34756   4.22918  1.00452    111647.0963  47.21974  19.31639  58590.20198     50.9257       44.13442   24.66152  50.56318   53.5    0.14936  -20.98972   0.9914 
   -7.37989  0.00396  4.19263     14.35915  1.78719  0.58901   4.47602  0.09611     0.06653  5021.04382   5657.80828  1.40303         3581.26405     17.56623   0.0002  58538.89355   0.67314  0.01773   558026.69031  45.52939  19.27688  58590.20198    51.14627       44.49985   21.67159  33.34257   60.0    0.19591  -20.91351  0.99841 
  -16.17367  0.00988  2.37744     14.28973  2.09477  1.44909   9.84934  0.09217     0.04022  5709.33833   6962.38184  0.24905         3356.14641     19.93136  0.04743  58530.09976   1.91516  0.09734   289542.35507  46.37605  19.26948  58593.45705    51.10374       44.37756   20.86744  43.63192   50.5    0.15895  -20.78304  0.99784 
   -8.24034  0.09675  1.44056     14.39631  1.95866  0.97476  20.45883  0.04046     0.03162  6363.90132   5976.34636   0.4485         2980.12162     20.52387  0.18561  58538.03309   4.94259  1.97949    60842.85524  47.45953  19.22544  58587.81171    50.95859       44.18388   30.80279  43.18177   52.5    0.17381  -21.15237  0.98393 
   -7.34866  0.00703  1.49237     14.06954  1.56241  1.25515  12.61241  0.04308     0.06599   4641.0107   6280.18561  0.88985         3888.19616     20.80155  0.35178  58538.92478   1.62051  0.08868   234572.37592  46.74461  19.25561  58588.40134    51.02229       44.27392   24.66152  41.73488   50.0    0.18369  -21.27038   0.9988 
  -11.23074  0.05767  2.06581     14.52321  1.93974  0.61562  34.03873  0.01897     0.06538  6010.51177   5544.04922  0.07816          4608.5628     19.75849  0.03186  58535.04269   7.33539  1.96306    69076.26882  47.08708    19.284  58590.20198    50.89853       44.09187    28.4556  53.11712   60.0    0.18224  -20.90752  0.96475 
   -6.43711  0.04203  2.93172     14.52762  2.07103  0.78672   7.15084  0.11761     0.05089   4746.8023   8646.50007  1.68485         3455.29648     16.73935    3e-05  58539.83632   0.96114  0.30054   145549.84489  46.48777  19.31315  58590.20198    51.08951       44.35712   25.73381  38.76555   48.0     0.1407  -20.83981  0.98978 
   -1.81965  0.28773  0.77351     14.56673  1.66192   1.0063   9.60092  0.12519     0.08376  6778.83512   6387.83453  1.65768          3358.8687     17.97672  0.00053  58544.45379   2.63178  2.76248     6790.43098  48.88062   19.2436  58590.20198    51.00172       44.22352   22.43776  49.32304   59.5    0.15787  -20.88266  0.99787 
  -10.15285  0.00208  4.35622     14.49961  1.75514  0.31879  12.49918  0.03944      0.0144  4897.46554   7239.24316  1.93444         3536.55387     20.15608  0.07958  58536.12059   1.78835  0.02597   309830.22368  45.74381  19.27583  58590.20198    51.03373       44.25036   29.88683  42.20069   66.0    0.16294   -20.9831   0.9974 
   -7.84741  0.00294  1.05263     14.75751  1.80691  0.42263  40.09688  0.03039      0.0517  5886.70112   3100.71112  0.58884         4041.42288     16.97437    5e-05  58538.42602   8.28861   0.1179     5679.08334  48.72695  19.29968  58588.40134    51.10701       44.43366   24.66152  34.14672   44.5    0.16973   -20.9251  0.99959 
   -4.72055  0.02384  2.49318     14.49907  1.86321  0.79387  15.36708  0.05793     0.02461  4958.70356    7436.9819  2.04253         3499.36598     18.38992  0.00136  58541.55289     2.254  0.36629   108004.82674  46.71216  19.28291  58590.20198    51.02635       44.29709   21.10492  45.52896   49.5    0.13949  -20.89231  0.98956 
   -8.11065  0.19057  4.20693     14.28656  2.05069  1.29795   4.39925  0.13072     0.04441  5220.40197   8888.19331  1.11606         3784.62949     19.01508  0.00575  58538.16279   0.71518  0.83838   900589.14014  45.37829  19.32197  58590.20198    50.99883       44.21134   19.20788  51.22008   50.0    0.17082  -20.91607  0.94242 
  -10.13708  0.00937  2.23183     14.29214  1.56046  0.82682   12.0297  0.09607     0.01405  6221.16077   8755.54976  1.03767         3082.35301     18.38467  0.00135  58536.13636   2.77731  0.11272   187977.60145  46.49067  19.33778  58590.20198    51.07852       44.39105   26.04897  36.55335   42.0    0.15159  -20.88556  0.99658 
  -16.13762  0.00353   3.9836     14.37929  1.85327  0.32875    5.7563  0.05394     0.01189  5936.78857   9744.33193  0.15628         2236.14939     18.37214  0.00131  58530.13582   1.21025  0.02033   476140.06625   45.6585  19.25132  58592.59225    51.22633       44.51728   24.66152   37.9408   47.0    0.14537  -20.90857  0.99841 
   -4.09023  0.01094   1.1447     14.45186  1.93068  1.47966  19.06432   0.0915     0.08454  7524.17248   6368.42443  1.02434         3453.42471     19.39242  0.01371  58542.18321   6.43822  0.20858    29321.94876  47.96998  19.31189  58590.20198    50.96139        44.1966   30.35264  39.83784   45.0    0.15666  -21.06813  0.99926 
  -14.05782  0.15942  3.72565     14.42213  1.99902  0.73841  15.54653  0.03589     0.16088  5967.01793   3368.77776  0.50983         2873.94938      18.9512  0.00497  58532.21562   3.30199  2.47836   368795.77947  45.86047  19.29661  58586.21094    51.13685       44.37568   26.82747  38.12404   74.5    0.15967  -20.87122   0.8719 
   -6.68643  0.00224  4.46047      14.2573  2.02636  1.16441   5.47702  0.08853     0.29382  4481.87561   7233.07687  1.50034         3764.30385     19.24977  0.00987  58539.58701   0.65628  0.01225  1144706.18756  45.21811   19.2517  58592.59225    50.96657       44.21251   20.86744  49.40512   55.5    0.17779  -20.86447  0.99897 
   -9.32079  0.31681  1.81275     14.25432  1.68761  1.17512   6.00335  0.11297      0.3965  5891.46315   7445.33694  0.32597         2320.40521     18.93279  0.00476  58536.95265   1.24299  1.90192    159633.1748  46.77632  19.30981  58587.81171    50.84788       44.07224   27.00871  48.87288   55.0    0.17733  -20.88572  0.96776 
   -6.64538  0.05982  1.04124     14.56536  1.89425  0.96732  47.71809  0.02008     0.03173  6182.85832    4565.1058  0.66542         3425.15391     19.42651  0.01483  58539.62805   10.8815  2.85437     14113.3484  48.36155   19.2869  58590.20198     51.1255       44.41039   22.76448   37.9408   57.0    0.15252  -20.94698  0.99329 
   -8.95613  0.00114  2.97231     14.11036   1.5707  1.49909  13.94471  0.05185     0.01422  4974.77776   7136.50103  1.74109         3310.85732     19.95676  0.05029  58537.31731   2.05866  0.01587   775137.48566  45.62937  19.24281  58590.20198    51.13333       44.43503   19.74354  35.74183   52.0    0.15953   -20.9032  0.99914 
   -3.78318  0.00156  2.88902     14.37685  1.86966  1.03151  25.79317  0.03379     0.02121  4527.16345   5340.01988  2.18848         3684.18827     19.43623  0.01517  58542.49026   3.15344  0.04036   255491.46618  46.21173  19.26811  58590.20198    51.01175       44.27296   27.98979  38.40661   52.0     0.1425   -20.8953  0.99843 
   -8.50044  0.00233  2.07988       14.261  1.82105   1.3552   5.67375  0.13383     0.07743  4688.99609   6433.69528  0.53911         5787.82366     16.58556    2e-05  58537.77299   0.74414   0.0132   219890.26888  46.55088    19.321  58592.59225    51.06204       44.27965   22.76448    47.426   47.5    0.15606  -20.97113  0.99973 
   -7.08195  0.00431  2.86954     14.27915  1.80239  1.42541  18.42835  0.04652     0.01445  4772.53399   7837.21151  2.04131         3541.37187     18.59538  0.00219  58539.19149   2.50387  0.07951   381060.56335  46.02808   19.3298  58588.40134    50.86907       44.05242   25.34915  50.76992   49.5    0.13785  -20.89482  0.99678 
   -9.24788  0.27528  2.58759     14.44669   1.6288  0.50219   7.09051  0.06327     0.08677  5418.87234   7695.59171   0.2746         5316.66804     17.87868  0.00042  58537.02556     1.242  1.95191   129449.88425  46.54282  19.26288  58588.40134     51.1832        44.4633   22.76448  36.04376   62.5    0.18501  -20.94394  0.92978 
   -5.40038  0.18467  2.11512      14.2541  1.44177  1.22682  10.78242  0.07736     0.28693  5632.46694    5656.5237  1.52108          3420.2876     17.81293  0.00036  58540.87306   2.04052  1.99116    185854.5985   46.5079  19.31208  58592.59225    50.99857       44.24347   28.68444  42.74881   57.0    0.15665  -20.89094  0.94318 
  -10.62057  0.41999  2.82403     14.20795  1.71653  1.16686    5.3852  0.10927     0.12446  6230.74233   7790.57227  0.54505         2278.61655     19.51141  0.01804  58535.65286   1.24712  2.26173   487861.27353  45.91346  19.28639  58590.20198    51.17031       44.43757   20.86744  45.52896   61.0    0.16985  -20.92617  0.91206 
   -2.46419  0.02014  1.57173     14.37224  1.54017  0.89975  28.52762  0.04079     0.03555  6455.96355   3148.88458  1.64521         3301.62747     19.92182   0.0464  58543.80925   7.09275   0.5745    63630.43182  47.25999  19.31677  58587.81171    51.17595        44.5518   22.76448  32.24968   47.0    0.16698  -21.01711  0.99192 
   -8.36935   0.0167   3.1751     14.23545  1.65378  0.71715  13.40589  0.03304      0.2815  6305.30482   6810.31725  0.28444         3044.51312     16.46606    2e-05  58537.90409   3.17932  0.22394   523481.45479  45.76491  19.24799  58590.20198    51.17488        44.4479    18.9704  40.30906   58.0    0.21326  -20.94522  0.98731 
  -10.77936  0.00376  4.79413     14.08337  1.89598  1.21435   4.03476  0.11447     0.04989  5234.98961   6710.40567  1.49673         3561.23152     17.96316  0.00051  58535.49408   0.65959  0.01519  2756326.45744  44.74493  19.28004  58590.20198    51.22771        44.5776   20.86744  33.55746   66.5    0.16434  -20.91043  0.99836 
   -5.89361  0.00762  1.85756     14.39499  1.89228  1.25412  29.15976  0.04062      0.0111  6106.88943   8332.13587  0.97658          3685.2681     16.67095    3e-05  58540.37983   6.48711  0.22208    98333.94038  47.01524  19.26446  58590.20198    50.97334       44.20917   29.88683  42.20069   43.0    0.14286   -20.9392  0.99671 
  -11.01271  0.00352  2.30135     14.35876   1.8147  0.74361  20.98324  0.02732     0.12729  4654.43201   3107.71946  0.48475          5598.4237     17.77056  0.00033  58535.26073   2.71165  0.07384   171029.86614  46.57061  19.24459  58588.40134     50.9822       44.17368   32.24968  43.63192   51.0    0.17904  -20.95765  0.99809 
   -4.41077  0.04818  2.47081     14.71029   1.8181  0.47782   17.4383  0.07428     0.27015  5954.86027   6889.22865  3.05734         3309.56008     18.00793  0.00057  58541.86267   3.68871   0.8401    39132.42465  47.15025  19.25806  58590.20198    51.14601       44.44683   24.66152  36.04376   53.0     0.1321  -20.90867   0.9761 
   -8.51915  0.01731  2.62061     14.27915  1.74111  0.85901  23.61051  0.02822     0.06204  5807.13337   5436.62233  0.47389         3323.82441      19.9072  0.04487  58537.75428   4.74959  0.40858   307003.13727  46.18572  19.28766  58586.21094    50.93804       44.05657   31.94254  52.34685   52.0    0.18111  -20.96175  0.98554 
   -9.09077  0.05297  3.52965     14.21445  2.00571  1.44136  11.90365  0.04071      0.1262  6110.59189   5973.55164  0.21505         5168.69374      17.4476  0.00016  58537.18267   2.65139  0.63054   864253.46441  45.53901  19.30166  58587.81171    50.91896       44.17871   23.00196  43.63192   58.0    0.20901  -20.98052  0.96767 
   -4.38868  0.09105  2.93669     14.36129  1.79469  1.06654   9.95365  0.15174     0.03015  6742.76592   3926.51855  2.73551         3234.78758     18.37729  0.00132  58541.88475   2.69951  0.90628   272226.57536  46.15219  19.25195  58590.20198     51.0088       44.25548   20.86744  45.75047   54.0    0.12479  -20.95813  0.96262 
   -4.24164  0.11273  0.86403     14.36032  1.34584  0.97924  23.09426  0.05082     0.06659  7045.14564   3863.58685  1.35993         2797.21373     16.27207    1e-05   58542.0318   6.83772  2.60342    17751.22604  48.27556  19.26684  58590.20198    51.11463        44.4194   20.86744  36.51498   53.5    0.12653  -20.95488  0.99274 
  -11.48708   0.2048  2.59277     14.32461  1.82081  1.20738    13.949   0.0444     0.22652  5020.01058   3848.53063  0.39849         4560.38566     18.41207  0.00143  58534.78636   2.09691   2.8568   254908.49784   46.2952  19.27882  58590.20198    51.14535       44.44368   22.76448  36.51498   74.5    0.14871  -20.76909  0.91491 
   -1.67539  0.02072  1.68966     14.37698  1.73222  1.48266  27.10982  0.06566     0.01455  7324.13099   6136.95383  3.18901         3138.23146     19.33396  0.01199  58544.59805   8.67493  0.56174    80922.43604  47.14378  19.24541  58587.81171       50.94       44.18669   28.90575  41.28473   49.5     0.1235   -20.9931   0.9926 
   -4.24058  0.12296  1.45462     14.47078  1.88896  1.49396  11.07898  0.07349     0.01652  4302.06494   9280.36813   1.4815         4246.36224     18.94904  0.00494  58542.03285   1.22315  1.36231    42460.45208  47.59158  19.27039  58588.40134    50.96508       44.14861   30.49738  45.38422   50.0    0.12558  -20.86323  0.99039 
   -6.57652  0.00915  1.12193     14.61662  2.12929  0.94353   68.2696  0.01921     0.37647  5985.85415   8430.02481  1.19389         3209.15226     16.44452    2e-05  58539.69692  14.59173  0.62448    14545.63141  48.33442  19.27404  58592.59225    51.15398       44.38827    18.9704  43.63192   45.0    0.13147   -20.9354  0.99843 
   -7.38077  0.01003   2.5745     14.21795  1.59843  1.44478  13.85848   0.0607     0.01269  4731.38022   4549.63259  2.26033         3403.65518     18.16305  0.00081  58538.89267   1.85063  0.13895   360568.31404  46.09416  19.27979  58590.20198    51.16748       44.46191   22.76448  34.98731   51.0    0.14205  -20.86116  0.99459 
   -6.53666  0.00224  2.26244     14.47921  1.63708   0.5718  16.17138  0.07801     0.01074  6291.89378   9440.50576  1.55736         3223.53567     19.94187   0.0486  58539.73678   3.81889  0.03617    85627.49562  46.84115  19.28836  58590.20198     51.0147       44.26219   24.15193  44.14151   41.0    0.14536  -20.97832  0.99895 
   -7.75661  0.01335  2.01092     14.38056  1.75023  0.94854   37.0145  0.02905     0.30995  5226.77003   4533.25919  1.43848          3697.9468     19.67419  0.02624  58538.51683   6.03206  0.49427   113914.37336  46.84857   19.2215  58590.20198    51.04636       44.33917   26.55856   37.9408   52.0    0.14427  -20.95164  0.99005 
   -4.69684   0.0197  2.17339     14.32357  1.73934  1.17843  24.50441  0.03339     0.01049  5468.67233   7655.48518  1.06034         3524.65396     19.31815  0.01156   58541.5766   4.37155  0.48284   171924.74035  46.59962  19.34616  58588.40134    51.07799       44.32201   26.23184  43.63192   46.0    0.16575  -20.89753  0.98847 
   -4.89162  0.37323  2.74221     14.35269   1.7722   1.2104    6.3229  0.10892     0.26463  5716.99453   7483.06522  0.98945         3352.02481     17.99031  0.00054  58541.38182   1.23276   2.3599    243869.1529    46.254  19.26049  58588.40134    51.19202       44.50154   22.76448  35.93531   57.5    0.17013  -20.87219  0.91796 
   -3.89219  0.00124  2.97668     14.34734  1.88013   1.2489  23.48693  0.03872     0.02219   4966.4224   6976.59293  2.13836         3721.01398     18.46436  0.00162  58542.38124   3.45574  0.02904   312457.30024  46.10078  19.29435  58590.20198    50.98117       44.23771   30.80279  43.18177   49.5    0.15417  -20.92479  0.99881 
   -9.94439  0.01461  3.05642     14.01891  1.58893  1.52376   6.28387  0.07977     0.07866  6328.58668   5994.48215   0.3001         3056.78195     16.53411    2e-05  58536.32905    1.5013  0.09183  1263378.04295  45.39799  19.31284  58590.20198    51.01587       44.24328   29.52789  42.78115   58.0    0.19438  -20.96467  0.99484 
   -8.03367  0.00365  4.13717     14.25859  1.72677  0.59976   5.79147  0.07748     0.01679  6550.07884   7097.20682  0.81344         3247.61501     17.52797  0.00019  58538.23976   1.48221  0.02115   834222.79187  45.35139  19.30058  58590.20198    51.29408       44.66189   20.86744  32.24968   50.0    0.20233  -20.98901  0.99805 
  -11.23127  0.00701  1.63204     14.39262  2.03251  1.23856   31.9788  0.03759     0.04312  6039.48539   4136.01561  0.30386         4088.05666     19.94147  0.04855  58535.04217   6.95808  0.22422    82426.01035  47.23535   19.2766  58588.40134    50.93792       44.05759   34.14672  52.03971   47.5    0.14635  -20.79227  0.99774 
   -10.6235  0.25012  2.19207     14.25303  1.72983  1.17803   7.60758  0.09709     0.01166  6017.72755   6064.90096  0.08932         5394.23743     19.04177  0.00612  58535.64994   1.64338  1.90278   240701.16672  46.44366  19.34796  58588.40134    51.09317       44.26691   22.17721  48.25075   48.0    0.17335  -20.89419  0.95443 
   -5.24414  0.16338   2.6255     14.28644  1.67837    1.405   17.6707  0.04182     0.03939  6473.49551   5863.87467   2.1515         2124.66329     17.99507  0.00055   58541.0293   4.41732  2.88706   287243.97853  46.19706  19.36633  58588.40134    51.06579       44.27656   30.80279  45.84433   67.0    0.15388  -20.89984  0.90185 
   -7.01162  0.00486  3.76684     14.21503  1.50771   0.6503  11.42036  0.04897     0.03363  5028.27013   7625.44256  2.51441          3529.5031     20.30503  0.11214  58539.26181   1.72244  0.05548    737940.3255  45.42719  19.34634  58590.20198    50.94649       44.14937   31.78387  49.13194   54.5      0.183  -21.04132  0.99485 
   -6.74664  0.02048  2.14184     14.55918   1.5462   0.4179  21.35298  0.04042     0.01458   5886.2231   4725.49614  1.44564         2567.32551     17.72776   0.0003   58539.5268   4.41326  0.43733      50152.048  47.09625  19.26662  58590.20198    50.94632       44.16164   21.93973  50.14779   49.5    0.16262  -20.89533  0.98775 
   -7.25511    0.024  1.51967     14.39254  1.87845  1.52175  35.72685  0.03082     0.12945  6304.54897   6362.39061   0.6416         3954.51716     19.18973   0.0086  58539.01833   8.47091  0.85751     66073.6604  47.35912   19.3536  58592.59225    51.13258        44.4051   26.55856  43.63192   45.5    0.18703  -20.97993  0.99223 
   -9.91527  0.07495  3.36294      14.1768  1.91957  1.48931  14.59211  0.03319      0.0677  6017.63982   5564.16498  0.15087         4939.22519     17.15126    8e-05  58536.35817   3.15208  1.09362   893004.62216  45.54776  19.34102  58590.20198    50.89537       44.10658   22.17721  52.04483   63.0     0.1926  -20.95087  0.94681 
   -7.35746  0.02436  4.41998     14.13259  1.69783  1.39424  16.85658   0.0241     0.18525  3520.57787   3347.95676  2.75264         3735.10748     17.87058  0.00041  58538.91598   1.24631  0.41066  1672503.33116  44.98453  19.27736  58586.21094    50.97421       44.20544   27.76848  40.52516   58.5    0.16775  -20.86025  0.95776 
   -6.55411  0.03179  4.16053     14.33252   1.7016  0.78774  11.05289  0.04478     0.18161   3688.6264   6938.02672  2.84509         3847.17262     17.37352  0.00013  58539.71933   0.89708  0.35136   591466.20424  45.48947  19.32372  58593.45705    51.27827       44.54705   20.86744  43.63192   54.0    0.16943  -20.88999  0.96789 
   -5.58938  0.01197   2.0587     14.36149  1.74563  1.16855  36.04773  0.02955     0.15884   4865.4785   6353.50531   1.8213         3740.23391     17.57999  0.00021  58540.68405   5.09045  0.43141    130007.6907  46.76964  19.25658  58587.81171    50.97418        44.2413    28.4556   37.9408   52.5    0.13057  -20.87737  0.99093 
   -8.56981  0.04319  3.38388     14.27005   2.0486  1.04115   8.94901  0.04735     0.01899  5627.81155   7449.60222   0.2699         3530.26903     18.15995   0.0008  58537.70363   1.69076  0.38647   628048.40906  45.72348  19.31143  58590.20198    51.14047       44.41272   26.55856  41.73488   55.5    0.20052  -20.89838   0.9821 
   -9.78908  0.09682  1.55323     14.28475  1.74787  1.50396   6.95466  0.16636     0.38053  6972.07318   8990.10946  0.02543         3106.06278     16.60572    2e-05  58536.48436   2.01663  0.67333   105511.15588  47.10559  19.24923  58590.20198    51.26961         44.578    18.9704  38.41202   37.5    0.17434  -20.89715  0.99225 
   -8.68533  0.07581  4.00094     14.31665  1.69542  0.69099  10.15108  0.05729     0.03316  5182.18048   8356.03941  1.64669         3667.55365     17.04649    6e-05   58537.5881   1.62616  0.76958   586298.83287  45.52568  19.25426  58588.40134    51.33025       44.66594   20.86744  36.40683   54.0    0.16853  -20.96174  0.93658 
   -7.69301  0.13098  2.80217      14.1884  1.57185   1.4258  12.23242  0.05097     0.03608  5132.86363   8118.82682  1.03451         3937.38037     16.05407    1e-05  58538.58043   1.92247  1.60225   481299.00554  45.88785  19.25396  58590.20198    51.23452       44.54414   20.86744  36.80259   53.5    0.16828  -20.92219  0.92888 
   -4.95111  0.04302  2.42578     14.68646  1.86204  0.46923  10.18255  0.15264     0.04114  6439.57388   3170.07536  2.39747         3337.43957     18.81642  0.00364  58541.32233   2.51882  0.43806    43110.98248  47.13454   19.3395  58590.20198    50.94676       44.18819   26.55856  45.61104   51.5    0.12643   -20.9735  0.98819 
   -6.30401  0.09398  2.89401     14.42756   1.8666   0.7237  11.56747  0.05644     0.38183  5510.11405   7500.85043  1.32142          2568.9288     19.28543  0.01072  58539.96943   2.09501  1.08716   202648.33353  46.31015  19.27971  58588.40134    50.98955       44.18881   19.20788  51.22008   53.5    0.16671  -20.88211  0.95893 
   -5.94485  0.09302  1.18477     14.40752  1.33836  0.71757  22.64126  0.05304     0.01412   6467.2318   4047.07394  1.05353         3730.91504     17.18315    8e-05  58540.32859   5.64891    2.106    26706.30074  47.82153  19.29828  58590.20198    50.97371       44.17044   33.85508  47.53844   53.0    0.15282  -21.01868  0.98227 
  -10.75932   0.0345  4.02314     14.51291  1.87663  0.42178   7.41778  0.07986     0.34284  5465.78364   4569.16138  0.80149         3797.90214     16.16127    1e-05  58535.51412   1.32192  0.25595   265769.22272  45.90859  19.27374  58592.59225    51.04515        44.3146    18.9704    47.426   60.5    0.17217  -20.92279  0.98079 
   -9.91463  0.00129  3.19606     14.04197  1.52984  0.97799  13.18453  0.02819     0.01777  5645.41494   6289.91437  0.26539         4165.58135     17.53885  0.00019   58536.3588   2.50659  0.01702  1196027.09925  45.36652  19.28507  58588.40134      50.922       44.17037   24.66152  45.61104   64.5    0.19181  -20.88218  0.99889 
   -2.52056  0.00723  1.45666     14.50184  1.96874  0.92422   4.61018  0.25186     0.39073  5880.07638   8821.22518  1.80742         3342.35922     20.45524  0.15848  58543.75288   0.95085  0.03335    38462.81365  47.65128  19.27822  58588.40134    50.97697       44.23703   27.98979  40.30365   43.5    0.15999  -21.10769  0.99974 
   -3.65361  0.22712  1.30993      14.7757  2.03792  0.70492   15.1771  0.07322     0.01414  6706.87833   7630.22091  1.51971         3007.82574     16.11726    1e-05  58542.61983   4.07246  3.44708     9121.98273  48.38345  19.30461  58590.20198    50.97394       44.22952   26.55856  45.52896   57.0    0.13129  -20.93253  0.98789 
   -9.66863  0.02028  3.24095      14.1797  1.78741  1.05974   6.69411  0.07884     0.02353  5512.49911   5700.30768  0.71532         2516.56999     17.63554  0.00024  58536.60481   1.21344  0.13576   762063.59077  45.61774  19.32232  58590.20198     51.0987       44.38685   29.25975  40.93073   56.5    0.17557  -20.84564  0.99284 
   -8.19417  0.05661  3.00863     14.27448  1.66786   1.1348  21.84097  0.03488      0.1354  4784.79302   5273.95261  1.61209         3748.42612     18.47994  0.00168  58538.07926   2.98281  1.23637   396061.77143   45.9365  19.24983  58590.20198    51.26499       44.58866   24.66152  34.14672   58.0    0.14062  -20.88229  0.94133 
   -7.21553  0.04018  2.69929     14.24853  2.16101  1.37025   4.87699  0.13741     0.29602  5612.88319   5049.28847  0.66752         4174.10372     20.71234  0.28646  58539.05791   0.91654  0.19598   465483.12784   46.0731  19.25383  58590.20198      51.017       44.26185   22.35146  45.94218   51.5    0.18159  -21.25112  0.99463 
   -6.22784  0.00108  1.29235      14.5746  1.78553  0.66504  37.60583  0.03457     0.03215  5723.95368   4755.00075  1.24627         3235.08879     18.29018  0.00108  58540.04559   7.34978  0.04074    19640.16239  48.00471  19.27296  58590.20198    51.15848       44.47465   24.66152  34.61794   48.0     0.1427  -20.86822  0.99973 
   -8.52481  0.00895  1.18832     14.37684   1.7557  1.06524  23.88192  0.04391      0.0714  5944.70047   3616.91945  0.73078         2652.98071     19.25874  0.01008  58537.74863    5.0345   0.2137    40592.87175  47.75498  19.24194  58586.21094    50.93672       44.16453   29.88683  43.66477   45.0    0.17359  -20.85656  0.99878 
   -4.73778  0.13383  1.90555      14.4901  2.01697  1.33316  23.20666  0.03061     0.03531  6164.12365   6162.39429  0.72836           3294.274     16.27041    1e-05  58541.53565   5.25996  3.10575    71180.60266  47.16115  19.37987  58592.59225    51.01259       44.19392    18.9704  53.11712   64.0    0.17934  -20.92745  0.95996 
   -7.35018  0.04035  3.59666      14.1978  1.72176  1.43834  14.78545  0.05905     0.03694  5318.30018   7073.74287   2.4362         3391.19437     19.03392  0.00601  58538.92325   2.49464  0.59661   831743.50972  45.47303  19.28045  58587.81171    50.95089       44.09216   31.94254  49.63017   54.0    0.14477  -20.93324  0.96041 
    -7.1573  0.02744  2.79749     14.25747  1.67442  1.12143  23.14599  0.03776     0.02591  5532.64602   3386.77222  1.32159         3543.23075     17.71262  0.00029  58539.11613   4.22638  0.63506    371771.5875   46.0289  19.32479  58588.40134    50.95342       44.16389   32.69983  48.87288   51.5    0.16165  -20.92892  0.97324 
   -6.84453  0.00151  4.15271     14.37083  1.92833  0.76097   7.86351  0.07847       0.049  5390.99167   6783.74391  1.98368         3171.89106     16.40998    1e-05  58539.42891   1.36327  0.01191    559753.6263  45.56937  19.26022  58590.20198    51.00177        44.2633   22.25489  44.14151   53.0    0.17919  -20.91605  0.99907 
  -10.95152  0.00111  4.14226     14.07625   1.8694  1.34423   6.02007  0.08104     0.38346  6040.19381   4876.14628  0.66713         3551.96555     17.82018  0.00037  58535.32192   1.31018  0.00666  2096523.33601  44.98457  19.21317  58588.40134     51.1191       44.29066   18.11499  46.84337   64.0    0.18017  -20.97322  0.99945 
  -10.35404  0.01001  4.23372     14.48465  1.76564  0.44686  29.09706  0.01956     0.03118  4162.42502   6119.52327  2.57436          3531.3296     19.50187  0.01764   58535.9194   3.00725  0.29125   315392.60923  45.76345  19.35044  58592.59225    50.93092       44.13231   33.83958  47.55394   61.5    0.15128  -20.88125  0.97365 
   -7.42554  0.22684  2.54647     14.47256  1.81429  0.81271  10.06774  0.12178     0.03525  8463.97809   8894.91068  0.83917         2342.50939     17.93399  0.00048   58538.8479   4.30237  2.28376   123957.81446   46.6224    19.269  58590.20198    51.03607       44.25745   30.80279  42.74881   40.5    0.17284  -21.07195  0.93314 
   -9.48737  0.00217  3.24275     14.14679  1.88453  1.50729  10.94467  0.04567     0.08357  5395.70772   5051.47465  0.33577         4811.29064     16.56469    2e-05  58536.78607   1.90076  0.02376   935955.03781  45.55097  19.32532  58592.59225    50.96415       44.17103   24.66152  52.50362   56.5    0.19005  -20.94978  0.99883 
   -6.36148  0.00512  3.73359     14.21173  1.75897  1.31242  11.92611  0.08235     0.47241  5248.73113   7366.29748  2.69521         3476.43855     18.82472  0.00371  58539.91195    1.9599  0.06109   858756.78073  45.43598  19.23206  58590.20198     51.0599       44.31517    28.4556  39.83784   52.5     0.1415  -20.90346  0.99561 
   -8.12153  0.07843  1.58606     14.34215  1.78368  1.33003   9.01547   0.0971     0.04918   5564.6708   4021.60169  0.61105         4256.53477     17.47984  0.00017  58538.15191   1.66531  0.70712    86194.37197  47.18404  19.22036  58590.20198    51.06683       44.34263   20.86744  41.73488   46.0    0.16988  -20.94925  0.99195 
  -10.85751  0.00855  2.33404     14.30107  1.84012  1.53931  32.06021  0.03052     0.01547  4864.37147   3487.42716  1.02579         3773.20391     17.00713    6e-05  58535.41593    4.5253  0.27412   232671.27661  46.43073  19.33232  58592.59225    50.98906       44.21467   19.77455   53.0599   52.5    0.14008  -20.71247  0.99298 
   -4.53952  0.18518  2.95551      14.2469  1.63483  1.28971   8.26156  0.08773     0.25415  5797.53128   4564.12824  1.54609         3284.34994     19.50894  0.01793  58541.73392   1.65644  1.52988   425351.93778  45.91231  19.28724  58588.40134    51.19558       44.52345   16.21424  36.31362   55.0    0.17589  -20.93991  0.92883 
  -11.63168  0.00251  3.55333      14.2958   1.7069  0.56221    5.8202  0.09937     0.03034  6879.70157   3989.88124  0.05645         4049.47943     17.61071  0.00023  58534.64175   1.64325   0.0146   512504.07693  45.69009  19.32362  58587.81171    50.95201       44.14686   32.24968  44.39744   53.0    0.19159  -20.99091  0.99899 
   -8.95736  0.00783  4.35602     14.14814  1.91396  1.23409   8.38655  0.07451     0.03774  6459.80543   5352.61511  1.16183         3176.97644     16.13062    1e-05  58537.31607   2.08761  0.06568  1704680.27116  45.04095  19.26767  58588.40134    50.89012       44.12001    28.4556  45.52896   57.0    0.18413  -20.99714  0.99429 
  -13.03279   0.0276  2.60788     14.64132  1.85773  0.39097  24.59954  0.03046     0.01729  5256.39678   6131.08389  0.40124         4188.46716     17.49376  0.00017  58533.24065   4.05444  0.67902     61196.7486  46.91852  19.25714  58586.21094    51.01388       44.25691   26.04897  40.34743   55.0    0.15984  -20.81715  0.97862 
   -1.52468  0.11701  1.14974     14.49818   1.7831    1.147  12.54569  0.10758     0.04128  6396.69474   6416.19466  1.75477         3538.56102     18.73514  0.00302  58544.74876    3.0622  1.46802    22071.41476  48.05499  19.26243  58590.20198    51.11558       44.39615   21.67159  39.03369   51.0    0.15045  -21.03269  0.99464 
   -7.99042  0.01365  2.18569     14.26302  1.63261    0.976  14.96353   0.0617     0.02372  6421.60739   7546.73512  1.23721         2161.42295     17.87167  0.00041  58538.28301   3.68086  0.20418   215687.20166  46.46873  19.28795  58592.59225    51.05214       44.34521   22.76448  41.73488   44.0    0.16248  -20.93803  0.99446 
