 log(Bfield)      Mns    Pspin  cutoff_power  cutoff_wavelength  fnickel    kappa  kappagamma   mejecta  log(nhhost)  temperature  texplosion  thetaPB      vejecta      A_V        MJD_0   log(KE)      M_Ni  Peak_mag     Peak_MJD 
    15.02858  1.69458  1.04206       0.40172         2409.42996  0.12491  0.03976     0.15446  24.89145     20.55489   4114.42454    -6.14678  0.12383  11625.69001  0.19935  58305.04322  52.80895   9.97908  18.87479     58346.69 
    14.23919  1.48636  1.41802       0.00643         5974.88935  0.08268  0.02513     0.01396  24.30584     16.80782   4189.55727    -6.73709  0.58324   9787.72503    4e-05  58304.45291   52.6576     6.577  18.88189     58346.69 
    14.24791  1.65536  1.74269       0.01173         2951.64449  0.01457  0.03042     0.14305  19.46778     19.42428   9568.46962    -5.07608  0.64487  10634.35943  0.01476  58306.11392  52.71177   1.11202  18.91508  58343.95667 
    14.21566  1.70498  1.09475       0.05186         4108.49009  0.00149  0.03503     0.10111  13.61082     20.05307   7298.49375    -7.76922  0.71377   8083.11302  0.06278  58303.42078  52.44301   0.10568   18.8439     58343.16 
    14.20134  1.46053   1.3074       0.00618         3448.29216  0.13535  0.01505     0.15232  36.52063      19.0299   7882.60149    -5.96522  0.75052  10015.15312  0.00595  58305.22478  52.70857  11.56368  18.89056  58343.95667 
    14.53009  1.80972  1.66294          0.01         3494.30913  0.01118  0.03252     0.02901  18.28548     18.42732   5348.57613    -7.67641  0.36289   9153.28072  0.00149  58303.51359  52.57631   0.84294  18.91424     58346.69 
    14.91117  1.74717  0.84489       0.28617         2913.17695  0.04187    0.028     0.17795  27.66498        20.53   4444.54178    -8.00666  0.16307   9199.57179  0.18825  58303.18334  52.61387   3.40854  18.91363     58346.16 
    14.50756  1.87166  1.45789       0.02855          5739.9774  0.00117   0.0399     0.40417  10.84242     18.09123   8492.98454    -7.76884  0.38496   8217.03972  0.00069  58303.42116  52.43673    0.0793  18.90012     58346.69 
    14.70815  1.74926  1.79257       0.02423         5474.98277  0.03103  0.04078     0.24423  19.49042     18.63633   7848.62066    -8.65109  0.24212   10080.6277   0.0024  58302.53891  52.66542   2.36948  18.87406  58343.95667 
    14.81661  1.64042  1.09454       0.01147         3689.24061  0.10637   0.0159     0.03492  44.76904     16.90953   9354.63269    -6.03916  0.22781  10473.57776    5e-05  58305.15084  52.76216   9.40052  18.96047     58343.16 
    14.24362  1.58006   1.8866       0.07774         2071.80488  0.00978  0.04977     0.01128     8.597     16.58244   5280.00538    -9.63495  0.44496   8749.29584    2e-05  58301.55505  52.46923   0.63077  18.87021  58343.95667 
    14.11367  1.62793  2.19809       0.18264          4628.2327  0.02855  0.01631     0.08206  36.86598      19.1676   5377.42406     -6.1825  0.85111  10475.03377  0.00817   58305.0075  52.74825   2.44266  18.93939  58343.95667 
    14.93395  1.50372  1.08684       0.23196         4948.03321  0.09012  0.03332     0.48119  26.66547      16.2871   4353.65598    -8.22106  0.14575    9380.6193    1e-05  58302.96894  52.62795   7.28963  18.89553  58343.95667 
    14.26779  1.59968  1.28227       0.72359         2032.46046  0.11685  0.04312     0.03217  17.85422     20.32259   8237.11717      -4.674  0.68185  10452.21337  0.11677    58306.516  52.68959   8.77347  18.89325     58346.69 
    14.78685  1.60644  1.07593       0.95236         2650.94331  0.22715  0.02905       0.399  29.13882     19.90052   9660.63787    -4.10652  0.27748  10517.38527  0.04418  58307.08348  52.73414  18.66425  18.88819  58343.95667 
    13.90832  1.71035  1.07237       0.03198         2341.19495  0.04858  0.04036     0.03883   14.5837     21.13382   4100.55754    -6.70148  0.79161  14115.09717  0.75605  58304.48852  52.93327   3.50538  18.94469     58346.16 
     14.5274  1.83148  0.81457       0.05719         4838.82607  0.00625  0.02299       0.019  44.74054     16.70153   6337.30013    -5.35873  0.57255  10609.70319    3e-05  58305.83127  52.77333   0.55233   18.9279     58346.69 
    14.33817  1.49311  1.09576       0.71226         2014.18562  0.09549  0.02792     0.40939  31.96041     19.89942   8257.27541    -4.95564  0.57447  10457.11587  0.04407  58306.23436  52.73616   7.97396  18.88003     58346.69 
    14.49021  1.46787   1.4507       0.52902         2821.66803  0.37765  0.03087     0.02766  20.07763     19.93382   3084.00666    -5.06194  0.42499  10385.26626   0.0477  58306.12806  52.69371  28.99588  18.91053     58346.16 
    14.21906  2.03604  1.46928       0.16005         2830.68674  0.03693  0.02572     0.11917  26.96805     20.79064   8324.38305    -5.07052  0.85414  11741.63413  0.34306  58306.11948  52.82382   2.99299  18.91304     58346.69 
    14.73838    1.933  1.40044       0.14147         2022.08369  0.00944  0.04051     0.01074  16.47604     19.94045   4287.29857    -6.36258  0.27026   9720.22416  0.04844  58304.82742  52.61975   0.69773  18.91575     58346.16 
    14.31546  1.57154  0.85224       0.08143         2423.49337  0.02721  0.02027     0.03824  34.23486     18.96916   9910.91375    -4.28037  0.71036   9707.43996  0.00517  58306.90963  52.67668   2.29922  18.90077     58346.69 
    14.47318  1.75427  1.24858       0.00142         4384.24586  0.04447  0.02209     0.37454   38.4519     20.16873   8109.79172    -6.67648  0.47571  11199.77429  0.08193  58304.51352  52.80944   3.83214  18.90748     58346.16 
    14.05747  1.49672  2.10878       0.08417         2744.40378  0.11084  0.02996     0.12134  20.67958     17.39702   9363.52274    -5.93867  0.88548  11656.42845  0.00014  58305.25133  52.79642   8.55773   18.8751     58346.16 
    14.66118  1.70948  0.93955       0.11936         2905.30374  0.00197  0.04006     0.05793  19.51423     16.48659   7522.22906    -8.34909  0.30925   8870.39797    2e-05  58302.84091  52.55443   0.15052   18.8586     58346.16 
    14.66804  1.54232  2.29984       0.99983         3021.01605  0.04538  0.01764     0.22168  57.03803     19.46067   6675.55041    -6.80375  0.21598  11978.78071  0.01605  58304.38625  52.89567   4.16956  18.89554     58346.16 
    14.53185  1.94414  1.86106       0.02952         5661.14263  0.04133  0.03132     0.01729  19.97672     16.43935   4527.66067    -8.05754  0.41584    9608.2734    2e-05  58303.13246  52.62576   3.17008  18.93099  58343.95667 
    14.28398  1.56452  2.14326       0.10541         3151.63356  0.14424  0.02748      0.0403  23.07415     19.27135     7238.602    -6.21231  0.56354  11576.35994  0.01038  58304.97769  52.79925  11.36467  18.89684     58346.16 
    14.15771  1.48342  2.46473       0.85219         2768.00995  0.07232   0.0166     0.10693  43.41456     19.02433     9198.098    -6.28795  0.66227  11986.07286  0.00588  58304.90205  52.87713   6.35935  18.87503     58346.69 
    14.42843   1.7651  1.82733       0.08887         2696.47346  0.01551  0.02126     0.31543   22.1747     19.30484   6923.32611     -8.2815  0.39029   8574.28519  0.01121   58302.9085  52.53532   1.21289  18.91597     58346.18 
     14.6954  2.04024  2.16777       0.15982         5616.01118  0.24434  0.04296     0.01196  10.73009     17.53828   5011.58046    -5.21382  0.31478   9430.96916  0.00019  58305.97618  52.55545  16.54654  18.94574  58343.95667 
    14.25217  1.70787  1.30793        0.0988         5078.51141  0.01561  0.05569     0.02597   7.06946     19.90525   6059.73112    -5.93313  0.60762   7936.58341  0.04467  58305.25687  52.36507   0.96319  18.90768     58346.69 
    14.05884  1.30272  1.62166       0.56981         2212.90541  0.02003  0.03182     0.34384  21.07514     19.69661   5282.83482     -5.8904  0.69479  10501.55765  0.02763   58305.2996  52.70733   1.55215  18.89865     58346.16 
     14.4075  1.84086  1.63471       0.11456         5715.54401  0.07302  0.04373     0.01948  14.34596     16.71811   5144.39997    -5.54162  0.55239   9152.53586    3e-05  58305.64838  52.55555   5.25168  18.89092  58343.95667 
    14.73517  1.69315  0.86446       0.68444         2099.88569  0.20999  0.02915     0.02124  39.75773     17.02155   7087.80803    -3.17331   0.4428  14572.42254    6e-05  58308.01669  53.04051  18.19775  18.90827     58346.69 
    14.46054  1.96049  1.76944       0.75358         2255.88525  0.05913   0.0185     0.24347  38.20034     19.62599   6462.51267    -5.96882   0.6051   9920.92068  0.02348  58305.22118  52.70365   5.09008  18.91243     58346.69 
    14.14782  1.74648  2.60389       0.65039         2642.75944  0.08719  0.04296     0.01068   9.18638      16.9973    3783.1515    -6.55627  0.68152   9143.03425    6e-05  58304.63373  52.51387   5.70864  18.93525     58346.16 
    14.40403  1.97894  1.11016       0.03334          2886.4841  0.00754  0.04605     0.25136  20.30197     20.71491   8876.67023    -8.70993  0.54459   11804.7061  0.28816  58302.48007   52.8059   0.57981  18.89582     58346.18 
    14.57828  2.15594  0.90755        0.0752         3783.44502  0.02792  0.04311     0.13117  19.83444      19.7734   4153.91449    -7.02676  0.61162   9233.57623  0.03297  58304.16324  52.59062   2.13903  18.92001  58343.95667 
    14.73201  1.85873  2.56097       1.20345         2135.91701  0.14869  0.03138      0.1286     17.76     18.00221   5868.20016    -5.95962  0.23544   9901.57372  0.00056  58305.23038  52.64213  11.15296   18.9445  58343.95667 
    14.60662  1.44625  1.92985       2.00261          2128.4544  0.03943   0.0232      0.0335  35.49392     19.42238   6267.55158    -4.94759  0.22776  10592.01511  0.01469  58306.24241  52.75511   3.35218  18.90794     58343.16 
    14.46309  1.68797  1.38413       0.07756         2355.29099  0.14556  0.02963     0.01344  33.12007     17.90398   5875.60314    -5.48316  0.56221  12684.59925  0.00045  58305.70684  52.90656  12.23005  18.86965     58346.16 
    14.15884  1.46304  1.36073          0.07         2129.74218  0.32166  0.06038     0.40297   7.98166     19.66392   3533.95682    -4.28691  0.70756   9727.04213  0.02562  58306.90309  52.55395  20.40604  18.88028  58343.95667 
    14.62766  1.87956  0.70562        0.3434         2169.62046  0.00288  0.05601     0.01854  17.06537     18.22599   7529.97917    -3.59166  0.50495  10179.40158  0.00093  58307.59834  52.66282    0.2141  18.89015     58346.69 
    14.37144  1.61233  1.91401       0.46809          2388.2602  0.00522  0.03831     0.05898  13.11537     17.96936   3795.28256    -6.00879  0.41369   9083.08619  0.00052  58305.18121  52.54103   0.36885  18.87562  58343.95667 
    14.59291  1.36197  1.00697       0.04339         3958.00246  0.03995  0.03269     0.26155   23.1236     17.38762   9537.26496    -6.09462  0.26469  10537.04345  0.00014  58305.09538  52.71772    3.1487  18.87551     58346.16 
    14.84463  1.66543  1.63699       0.06855         5248.08984  0.07215  0.04376     0.14424  19.07843     16.87497   6623.96637    -7.87878  0.18023  11450.95201    4e-05  58303.31122  52.77436   5.48651  18.88928  58343.95667 
    14.49648   1.7528  1.26356       0.05655         2327.94692  0.00212  0.02982     0.05716  24.34682     17.11114   4767.96671    -6.55165  0.46631   9595.03802    7e-05  58304.63835  52.64046    0.1687  18.90912     58346.18 
    14.15222  1.54018  1.70797       0.37856         2212.74862  0.02476  0.02591     0.42328  28.35442     16.00997   9891.42723    -6.90011  0.80439  10462.58718    1e-05  58304.28989  52.72751   2.02483  18.87003  58343.95667 
    14.33823  1.62724  0.82385       0.02902          2657.3476  0.02941  0.02036     0.06615  36.86372     16.14234   6927.37478    -7.31062  0.66085   9088.63049    1e-05  58303.87938  52.62493   2.51636  18.89017     58346.69 
    14.80833  1.50392  1.32043       0.07001           5914.678  0.00148  0.03632     0.01605  15.70536     19.30844    6561.6731    -8.38758  0.15087   8796.66433   0.0113  58302.80242  52.52894   0.10845  18.94749     58346.69 
     14.2918    1.638  1.29224       0.11845         3848.41655   0.0296  0.02452     0.01256  20.24684     18.36199   4236.17784    -5.78122  0.61594   8567.26765  0.00128  58305.40878  52.52725   2.27591  18.90699     58346.69 
    14.19352  1.87416  2.30069       0.28756         3141.68116  0.05548  0.04453      0.2029  12.66975     18.82157   7830.71797    -7.81313  0.82323   9432.61562  0.00368  58303.37687  52.57075   3.89067  18.90392     58346.16 
    14.13395  1.32272  1.48724       0.18033         2492.91522  0.02005  0.03534     0.20979  13.63444     16.31303   8799.80095    -5.61493  0.55378   9501.22727    1e-05  58305.57507  52.58357   1.42709  18.92333     58346.18 
     14.5968  1.81261   1.2911       0.01721         3167.64014  0.05335  0.01853     0.01039  43.88062     16.99958   8650.96914    -5.85784  0.42174  10668.87816    6e-05  58305.33216  52.77678   4.69946   18.8926     58346.16 
     14.2714  1.80722  1.44581       1.19519         2049.27045  0.02598  0.01943     0.03247  58.02513     19.04566   8561.89295    -6.98956  1.00924  10999.43897  0.00617  58304.20044  52.82276   2.39365  18.86803     58346.69 
     14.7435  1.79772  1.52214       0.08057         2255.66462  0.03873  0.01261     0.09898  47.21392     17.04216   8113.00378    -4.99904  0.25415   9716.95449    6e-05  58306.19096  52.70079   3.45258  18.86799     58346.16 
    14.18397  1.39465  1.79999       0.05997         3456.12232  0.02024    0.024     0.01329  22.57911     17.67914   4258.35811     -7.5101  0.49056   9899.85957  0.00027   58303.6799  52.66164   1.58841  18.91996  58343.95667 
    14.03473  1.28509  1.65123       0.00904         3755.34193  0.06013  0.03441     0.02756  17.02484     18.30372    9253.4229    -6.22447  0.67313   10561.3723  0.00112  58304.96553  52.69461   4.47341  18.94016     58346.16 
    14.26165  2.04511  1.60546       0.00128         3469.71356  0.05693  0.01496     0.08342  37.91234     20.47962   5796.43752    -5.55779  0.84409  10809.18935  0.16763  58305.63221  52.77758   4.89407  18.86716     58343.16 
    14.54468  1.59713  1.37883       0.83471         2061.28664  0.00721  0.03796     0.15739  16.85219      20.3635     3727.299    -6.49112  0.28171   9071.53277   0.1283  58304.69888  52.56167   0.53502  18.88696     58346.16 
    14.60907  1.70199  1.09358       0.38613         3428.90481  0.15053  0.02731     0.10083  30.37208     19.98691   9231.28305    -4.15992  0.42619  10827.02778  0.05391  58307.03008   52.7625   12.4585  18.90801     58346.16 
    14.35463  1.66708  2.15627       0.67746         2390.34604  0.02968  0.02355     0.01994  23.48824     19.41526   9873.62584    -6.61118  0.46331   9574.73676  0.01445  58304.57882  52.63578   2.34588  18.91088  58343.95667 
     14.3274  2.03095  2.18947       0.16197         3566.20602  0.18098   0.0316     0.11042  19.67562     19.52019   9976.53801    -5.03765  0.80603  10062.01236   0.0184  58306.15235  52.66459  13.84259  18.90482     58346.16 
    14.59463   1.6077  1.02455       0.36206         2930.29169  0.03934  0.03266      0.0325  31.29578     18.27178   6471.66457    -4.41243  0.39024  10812.58443  0.00104  58306.77757  52.76361    3.2734  18.91787  58343.95667 
     14.0692  1.42073  1.90894       0.01132          3695.1609  0.04445  0.01958     0.31639  44.45949     18.46601   4047.37551    -6.06301  0.88003  13041.60703  0.00162  58305.12699  52.95214   3.92351  18.90096  58343.95667 
    14.36805  1.55988  1.21367       0.03134         3217.03569  0.07833  0.03397     0.01327  19.03907     16.07623   8976.13966    -5.69191  0.53041   9977.00229    1e-05  58305.49809  52.65451   5.95407  18.90368     58343.16 
    14.34753  1.52388   1.3092       1.01747         2002.08775  0.05901  0.01994     0.31761  39.59642     16.65404   8794.66998    -3.20686  0.63753  11297.06945    3e-05  58307.98314  52.81909   5.11044  18.91178  58343.95667 
    14.88459  2.10258  1.10275       0.17393         2691.63201  0.19251  0.02384     0.01303  34.97362     17.20107   8321.53538    -4.33747  0.35958   11812.3752    9e-05  58306.85253  52.84873  16.32644  18.90459     58346.16 
    14.05438  1.63229  2.15117       0.00255         4592.05017  0.01566  0.03263      0.0182   9.13314     18.80091   5359.17601    -7.34696   0.6738    9470.2196  0.00351  58303.84304  52.54385   1.02371  18.86958     58346.18 
    14.41899  1.57752  1.25156       0.03377         2313.28951  0.01619  0.03585     0.08336  17.43369     17.46656   5368.96798    -6.74959   0.4496   9374.90864  0.00016  58304.44041   52.5931   1.21006  18.91504  58343.95667 
    14.42621  1.80266  1.64173       0.06014         4046.21939  0.10786  0.03405     0.08268  20.32329     18.47228   9974.14872    -6.56222  0.54102  10078.61846  0.00165  58304.62778  52.66867   8.30036  18.87922     58346.69 
    14.48881  1.91376  1.88253       0.40843         2296.42501  0.05412  0.02941     0.02358  26.88195     17.75392   6099.42852    -7.42983  0.51407   9949.80155  0.00032  58303.76017  52.67975   4.38412  18.87744     58346.16 
    14.31457  1.71812  1.95633       0.30448         2111.89856  0.11085   0.0376     0.01116  17.29626     18.99407   9812.47318    -5.06604  0.63155  11215.86993  0.00548  58306.12396  52.74817   8.27219  18.86743     58346.69 
    14.59783  1.26388  1.48744        1.6968         2266.04721  0.07106  0.01465     0.02578  39.67906      16.6138   7044.78862    -4.49777   0.2177   8949.21071    2e-05  58306.69223  52.61688   6.15626  18.88771     58343.16 
    14.24111  1.67775  1.84566       0.05838         3211.10952  0.06537   0.0301     0.01257   32.7944     17.79853   4023.71544    -6.44138  0.82869  12403.67112  0.00035  58304.74862  52.88637   5.48268  18.86576     58346.16 
    14.26633  2.03255  1.12044       0.23847         3192.16318  0.00529  0.03227     0.02611  20.87267     20.77936    7599.9562    -7.71385  0.75498   9755.38882  0.33426  58303.47615  52.64253   0.40906  18.89201     58346.69 
     14.1968  1.65097  1.89171       0.22821         4323.40523  0.07688  0.03211     0.05921  14.78089     19.01617   4826.79383    -7.41462  0.66239   8228.41759  0.00577  58303.77538   52.4657   5.56242  18.90868     58346.16 
     14.3486  1.86116  1.11622        0.0475         3940.96727  0.01613  0.02612     0.04788  23.44276     19.53619   3782.69914    -8.15476  0.71199   8662.39145  0.01909  58303.03524  52.54865    1.2747  18.86208     58346.69 
    14.38594  1.65511  0.77375         0.093         3626.64214  0.01387  0.01791     0.01025  40.53078     16.41254   4840.70052    -4.27416   0.6758    9496.3473    1e-05  58306.91584  52.66996   1.20597  18.87251     58346.16 
    14.58914  1.53349  1.48184       0.08715         3323.61467  0.06901  0.02082     0.01157  29.61457      18.0432   8872.16693    -6.50742  0.28164   9853.78142  0.00061  58304.68258  52.67877   5.68615  18.90556     58346.16 
    14.30171   1.8936  2.55077       0.05619         2957.88759  0.03862  0.03113     0.01483  16.10292     17.51021   7074.36235    -7.01139    0.554  10938.17664  0.00018  58304.17861  52.72034   2.84232  18.85286     58346.69 
     15.0234  1.80264  1.02981       0.04001         2768.86342  0.07687   0.0294     0.06829  35.00678     18.85798   3950.22022    -5.97079  0.17448  11954.92024  0.00401  58305.21921  52.85922   6.51991  18.90127     58346.16 
    14.15375  1.24411  1.51542        0.1411         2597.90311  0.00363  0.05465     0.14489  10.08629     16.60038   4601.78461    -6.46176  0.48014   9911.57265    2e-05  58304.72824  52.59285   0.24242  18.89763     58346.16 
    14.56757  1.77415  1.35826       0.71466         2415.70373   0.2333  0.02412     0.05158  29.10053     19.78867   6160.75771    -4.14352  0.49737   9895.07592  0.03415  58307.04648  52.68106  19.16513  18.85855  58343.95667 
    14.30678    1.735  1.66657       0.00899         2194.75322  0.10173  0.03018     0.22036  20.93791     18.44665   7868.11684    -5.46718  0.68128  10352.54103  0.00155  58305.72282  52.69439   7.87247  18.94331     58346.16 
    14.80806  2.19761  1.00581       0.00181         5690.79931  0.00711  0.02316     0.01391  34.43965     20.60914   4479.20435    -7.79682  0.26181  10354.13479  0.22588  58303.39318  52.73314   0.60124  18.88973  58343.95667 
    14.47472  1.92763  1.45694        0.0212         2518.27404  0.00692  0.02185     0.22179  24.65971     17.36589   9878.06891    -8.73968  0.45202   8293.77953  0.00013  58302.45032  52.51488   0.55201  18.90757  58343.95667 
     14.2987  1.95106  1.71006       0.04362         4627.30226  0.00165  0.01902     0.03832   21.5724     19.72544   3644.40365    -7.42903  0.64812   8248.61849  0.02952  58303.76097  52.49947   0.12834  18.88796     58346.16 
    14.23413  1.37449  1.33397       0.01067         4918.24348  0.11561  0.01773     0.15448  35.27306      16.7364   7109.45782    -7.15367  0.55909   9658.22285    3e-05  58304.03633  52.67448   9.81859  18.88672     58349.16 
    14.26752  1.76562   1.8652       0.00811         2747.42301  0.01258  0.02864     0.01587  17.62369     17.53505   9074.32339    -5.31443  0.65476   9971.77011  0.00019  58305.87557  52.64762   0.94197  18.84359  58343.95667 
    14.43389  1.52064  2.07745       0.85493         2344.55141   0.0498  0.05054     0.30319   9.97576      16.0138   7857.02548    -7.11168  0.30645   9311.32949    1e-05  58304.07832  52.53755   3.31967  18.88585     58346.16 
    14.12143  1.66048  1.81075        0.0037          3519.5952  0.03008  0.03878     0.01658  13.56875     16.61326   3457.42997    -6.08969  0.90779  10007.41603    2e-05  58305.10031  52.62822   2.13889  18.89872  58343.95667 
    14.55547  1.56213  2.33006        0.3336         2124.25308  0.05729  0.02646     0.19134  21.70357     16.20779   9880.60828    -6.44552  0.22527  11159.39208    1e-05  58304.74448  52.76248   4.46351   18.9075  58343.95667 
    14.59989  1.89312  1.17215        0.2953         5829.04286  0.00189  0.02977     0.01053  18.18399     19.50581   9121.54611    -7.06222  0.37101    6801.0671   0.0178  58304.12778  52.31785   0.14265  18.86698     58346.69 
     14.6039  1.90582   0.8336       0.01729         3089.26666  0.00234  0.03777     0.30957  21.60394     16.45464   5632.46485    -7.71539  0.44779   9169.31103    2e-05  58303.47461   52.5915   0.18176  18.87933     58346.69 
    14.00783   1.7529  2.40991       0.19428         3886.93904  0.04345  0.02245     0.30305  26.68331      20.0171    8483.8154    -6.78755  1.21818    10843.693  0.05779  58304.40245   52.7539   3.51479  18.87305     58346.18 
    14.45197  1.81777  1.50283       0.81018          2085.4975  0.05041  0.04351     0.04135  17.17769       17.126   8159.17174    -5.00479  0.56223   9624.41805    7e-05  58306.18521  52.61467   3.75665  18.91975  58343.95667 
    14.92083  1.69031  1.18462       0.48272         2009.30071  0.03061   0.0179     0.21393  40.10492     18.00427   5851.70022    -5.73536  0.17184  10398.41249  0.00056  58305.45464  52.74801   2.65676  18.91361  58343.95667 
    14.37167  1.79316  1.38368       0.04176         2833.27889  0.01691  0.03929     0.40337  16.91231     16.93449   3830.18068    -6.33365  0.64004   9955.74602    5e-05  58304.85635  52.64276   1.25653  18.91946     58346.69 
    14.35148   1.7757  1.02692       0.18493         2195.39372  0.00941  0.02422     0.29193  28.95112     19.93875   8299.69207    -5.10102   0.6914   9346.12411  0.04825  58306.08898  52.63109   0.77238  18.92953     58346.16 
    14.28184  1.47049  2.23561       1.07577         2105.27898  0.11705   0.0333     0.02698  15.74613     18.18125   8789.06175     -6.1302  0.41733   9984.89444  0.00084   58305.0598  52.63922   8.57554  18.91079  58343.95667 
    14.18655   1.6529   2.1621       0.00278         3602.19027  0.18883  0.03235      0.1613  14.56653     17.11692   9107.54733    -5.84861  0.72223  11274.20071    7e-05  58305.34139  52.73797  13.62251    18.933     58346.69 
     14.8799  1.73464  2.37282       0.04323         3691.90775  0.16744   0.0357     0.42437   14.0798     20.22365   5433.19118     -7.7612  0.11858  10936.47855  0.09298   58303.4288  52.70859  11.99676  18.88882  58343.95667 
    14.84773  1.83041  1.25857       1.23579         2035.97479  0.22932  0.02758     0.02853  25.25048     17.17257   9362.16325    -4.54073  0.28871   9641.08657    8e-05  58306.64927  52.64749  18.36775  18.92692     58346.16 
    14.39531  2.09995   1.9411       0.01287         5683.47784  0.05326   0.0391      0.0353  17.65384     16.10663   9736.01668    -7.62185  0.73096  10644.56588    1e-05  58303.56815  52.70448   3.99036  18.87521     58346.16 
    14.64458  1.57207  2.28564       0.95247         2024.56313  0.19917  0.02197     0.07192  25.98017     19.72381   3887.35826    -6.33291  0.23913  10729.85578  0.02941  58304.85709  52.74265  16.03457  18.89273     58346.16 
     15.0057  1.75599  0.77545       0.64857          2057.5158  0.17146  0.03548      0.0944  28.74636     18.40485   6969.52634    -3.74387   0.2129  11880.77576  0.00141  58307.44613  52.83898  14.05474  18.91032     58346.16 
    14.80459  1.92668  0.88433       0.15437         3699.77604  0.01419  0.04208     0.08443  21.39581     18.25152   9705.63292    -6.10863  0.30596   9633.32254  0.00099  58305.08137   52.6336   1.10263   18.8878  58343.95667 
    14.46511  1.86285  2.51697       0.00279         4641.61564  0.06271  0.06959     0.21308   8.26619     17.14751   8359.19573     -7.5105  0.38587  11400.20523    8e-05   58303.6795  52.69527    4.0099  18.89096  58343.95667 
    14.47093  2.16045  2.62035       0.17917         2532.89064  0.03386  0.04127      0.3158  13.32388     18.17564   6151.38943      -7.703   0.4736   9889.56145  0.00083    58303.487  52.61632   2.39875  18.88603     58346.69 
    14.46019  1.96655  1.74767       0.05713         3339.92964  0.09767  0.04236      0.2853  14.28003     17.12865   4900.90198    -6.36108  0.54223   9476.55532    7e-05  58304.82892  52.58537   7.01816  18.87467     58346.69 
    14.07762  1.75533  2.76625       1.59722         3092.53624  0.03688  0.01783     0.01138  32.32066     20.01176   7598.42202    -9.58697  0.86224   7851.95795  0.05708  58301.60303  52.48813   3.08529  18.93005  58343.95667 
    14.57708  1.44921  0.70545       0.00191         2566.98696  0.06256    0.036     0.08396  18.65743     16.28482   9646.81656    -6.15628   0.3174   9411.93781    1e-05  58305.03372  52.60219   4.73728  18.93609     58346.69 
    14.22065  1.61822  1.16547       0.58308         2006.96611  0.11593  0.03408     0.12166  15.43875     20.63347   7372.30023    -6.98954  0.53735   8668.76208  0.23889  58304.20046  52.51475   8.46097  18.88114     58346.69 
    14.57662  1.41401   1.9961       1.75028         2386.35248  0.08346  0.02428     0.06062  27.72949      19.7478   9163.76345     -5.6476  0.22943    9210.3699  0.03108   58305.5424  52.61507    6.7979  18.87588     58346.16 
    15.00781   1.8687  2.35533       1.07004         2373.77493   0.4103  0.05944     0.06777   9.25233     18.15887    3604.8072      -4.699  0.14669  10436.38626   0.0008    58306.491  52.62947  26.90608  18.92571     58346.16 
    14.21382  1.65902  1.78538       0.03712         4120.50718  0.04761  0.03164     0.18368  15.54976     18.92901   7080.20279    -5.98648  0.66863    9798.2188  0.00472  58305.20352  52.62175   3.47958  18.85656  58343.95667 
     14.5394  1.97459  2.43763       1.17392         2026.27874  0.08834  0.02197     0.01003  44.61297     19.31255   7563.83992    -3.88472  0.55321  13359.56225  0.01141  58307.30528  52.97331   7.80277  18.92897  58343.95667 
    14.15182  1.51813  2.18291       0.99926         2312.62865  0.24437  0.05788     0.33374   9.05912     17.03758   4853.23866    -6.04458  0.65385   9438.15813    6e-05  58305.14542  52.54012  15.95014   18.8915     58346.69 
    15.03444  1.69067  0.91221       0.63642         2297.34036  0.01412  0.03824     0.02897   23.5206     20.15448   4066.49822    -3.66822   0.1422  10531.74667  0.07929  58307.52178  52.71864   1.11681  18.88956     58346.69 
    14.24773  1.96893  1.28046       0.00392         5972.13213  0.00137  0.02666     0.01742   17.1673     20.47485   5263.11187     -8.7204  0.68991   8716.81041   0.1658   58302.4696  52.52859   0.10174  18.84791     58346.18 
    14.18888  1.45237  1.57948       1.05755         2117.51625  0.06205   0.0166     0.02512  33.70204     16.82683   7581.37955    -4.48308  0.71438   9422.63996    4e-05  58306.70692  52.64965   5.22861  18.89024  58343.95667 
    13.98661  1.27514  1.97908       1.32671         2763.40621  0.09359   0.0289      0.0186  14.57938     16.34455   9441.26309     -5.9366  0.74242    7857.8924    1e-05   58305.2534  52.42449   6.75256  18.86982  58343.95667 
    14.66159  1.49416  1.42315       1.01756         2072.46118  0.01141  0.02864     0.02177  25.91965     17.22935   5324.03272    -6.20365  0.23364    9517.7044    9e-05  58304.98635  52.63835   0.91795  18.87315  58343.95667 
    14.27525  1.78731  2.21909       0.01141         3952.44753  0.06602  0.02345     0.02082  17.25043     18.16696   5498.57321    -7.50323  0.51005   9577.52475  0.00082  58303.68677  52.61079   4.92409  18.94141  58343.95667 
    14.76543  1.79762   2.2398       0.31541         2336.18845  0.04607  0.02048     0.03393  46.03627     17.24285   4005.29544    -6.59933  0.23399  12725.12035   0.0001  58304.59067  52.93327   4.09004  18.93291     58346.18 
     14.2355  1.91511  1.15097       0.29593          5180.0846  0.02022  0.02436     0.20637  25.84587        20.91   6967.32852    -6.50222  0.69275   9728.19552  0.45157  58304.68778  52.65712   1.62614   18.8828     58346.69 
    14.80422  1.52621  1.16479       0.02012         2326.43138  0.15141  0.02529     0.10249  39.53796     17.54758   3807.84563    -6.50407  0.22179  11788.53427   0.0002  58304.68593  52.85597    13.109  18.93827     58346.69 
    14.91434  1.99663   1.1547       0.09937         3499.97302  0.04134  0.04217     0.18725  28.60762     16.90498   9559.82841    -4.71876  0.26867  12590.04366    4e-05  58306.47124  52.88897    3.3857  18.90207     58346.69 
    14.52946  1.86861  0.95414        0.0564         2978.92436  0.16163  0.02204     0.28099  31.29868     17.05839   6078.71291    -3.37285  0.65158  10904.05417    6e-05  58307.81715  52.77093   13.4475  18.82805     58346.16 
    14.61925  1.94207  1.14801       0.00488          4096.1228  0.00821  0.02828     0.03156  31.42536     19.74037    7843.6789    -5.90963  0.42132   10594.2653  0.03056  58305.28037   52.7462    0.6837  18.91482     58346.16 
    14.42734  1.76754  1.12156       0.00454         2662.86386  0.10296  0.04211     0.13523  14.10855     17.61387   8196.78447    -6.25471  0.56164   9101.72809  0.00023  58304.93529  52.54926    7.3802  18.89201     58346.69 
    14.30483  1.78945  1.68729       0.32584         2309.04137  0.03763  0.03367     0.12554  15.17121     16.87577   7558.41109    -5.53644  0.66366   8945.19097    4e-05  58305.65356  52.54051   2.73653  18.92855  58343.95667 
    14.37837  1.54266  2.11074       0.95803         2061.58283  0.19894   0.0362     0.28495  18.29045      16.3416   5000.48366    -6.14284  0.47673  10741.09796    1e-05  58305.04716  52.71528  15.00617  18.89745     58346.18 
    14.17805  1.36138  1.20697        1.4153         2278.38062  0.06821    0.029      0.0105  20.41591     17.95369   6819.91348    -4.20748  0.71418   8125.57342   0.0005  58306.98252  52.48195   5.25393  18.81963     58346.18 
    14.48176  1.81748  1.98112       0.10404         3537.24092  0.09392  0.02697     0.01309  28.09796     16.22795   7556.35832    -5.05837  0.50264  11666.18076    1e-05  58306.13163  52.82139   7.66777  18.89854     58346.16 
    14.47582  1.79775  1.97074       0.40002         2816.95505  0.07853  0.02953     0.03313  20.37021      18.6477   9619.58487    -5.15115  0.45296    9977.1823  0.00247  58306.03885  52.66007   6.04603  18.92688     58346.69 
    14.85141  1.74841  1.15193       0.11695         2871.08027  0.00919  0.04027     0.27033  26.02108      19.5517   8579.37224    -7.64618  0.20392  10327.00955  0.01979  58303.54382  52.70954   0.74012  18.91755     58346.16 
    14.67223  1.62191  1.85459        0.5228         2133.12299  0.10158  0.01692     0.03578  30.52685     16.59619   5532.43942    -5.35214  0.23586  10032.90937    2e-05  58305.83786  52.69672   8.41506  18.86465  58343.95667 
    14.16093   1.5942  1.88555       0.13472         3875.60208  0.02799  0.04948     0.17661  11.41574     16.04164   8446.95047    -7.43349  0.69696   9708.10064    1e-05  58303.75651  52.58631   1.92041  18.83685  58343.95667 
    14.33534  1.76875  1.99778       0.78144         2088.78901  0.09258  0.03389     0.07437  18.20588     16.67362   6544.78494    -5.97584  0.61701  10063.02744    3e-05  58305.21416  52.65825   6.97755  18.93275     58346.69 
     14.8224  1.72324   0.7345       0.01001         3417.23154  0.02438  0.02332     0.04622  38.44509     17.18897   6150.50702    -7.81484  0.24665   9716.52292    9e-05  58303.37516  52.68603    2.1009  18.89463     58346.16 
    14.03573  1.44518  1.89099       0.03052         4527.34515  0.03168  0.02545     0.14857  18.24368      16.7662    6474.9032    -6.78597  0.74814  10410.37838    3e-05  58304.40403   52.6879   2.38843  18.89802     58346.69 
    14.52571   1.5889  1.04042       0.09752         2913.13498   0.0206  0.03562     0.05339  21.72713     16.31729   6833.16151    -5.15234   0.4013  10075.17561    1e-05  58306.03766  52.67379   1.60485  18.92903  58343.95667 
    14.63665  1.99223  0.70709       0.21952         2165.68555  0.08174  0.04001     0.49384  18.90672     20.62617   6312.33703    -6.40282  0.39288    9651.2634  0.23491  58304.78718   52.6251   6.20536  18.89898  58343.95667 
    14.74402  1.72548  1.13569       0.19215          2354.7412  0.00119  0.03208     0.01077  26.03606     16.91214   5684.52546    -6.00966  0.26734   9960.00904    5e-05  58305.18034  52.67815   0.09592  18.89899     58346.16 
    14.26103   1.7173  1.47676       0.37681         2253.52335  0.02214  0.02306     0.14794  32.88459     20.52618   9593.91983    -6.68398  0.64604    10903.083   0.1866  58304.50602  52.77457   1.85792  18.87997     58346.16 
     14.8957   1.8512  1.34794       0.06269         2088.28352  0.05119    0.024     0.09318  37.32226     17.12696   5585.20782    -6.28044  0.21197  11092.74998    7e-05  58304.90956  52.79892   4.38921  18.88965     58346.16 
    14.35832  1.72625  2.14421        0.0159         5094.65954  0.03514  0.01682     0.02097  29.81772     17.35865   5614.68296    -7.46354  0.44625   10034.1095  0.00013  58303.72646  52.69504   2.89919  18.90602     58346.16 
