# Wavelength Flux
# STATUS = PUBLIC
# OBJECT = 2018gbw
# TELESCOPE = P200
# INSTRUMENT =
# DATE-OBS = 2018.0813
# MJD =
# EXPTIME =
# SLIT =
# DISPERSER =
# SOURCE = 2023ApJ...943...41C
# FILTER =
# FLUX_STANDARD =
# EXTINCTION_CORRECTED = False
# PHOTOMETRY_CALIBRATED =
# FLUX_UNITS = erg/s/cm^2/Angstroms
# QUALITY =
# MIN_WAVE =
# MAX_WAVE =
# COMMENT =
3400.0 6.7299e-17
3401.525 8.4549e-17
3403.05 1.0681e-16
3404.575 1.1484e-16
3406.1 1.0104e-16
3407.625 8.9864e-17
3409.15 8.4339e-17
3410.675 7.3895e-17
3412.2 8.3581e-17
3413.725 8.4923e-17
3415.25 8.5878e-17
3416.775 7.9207e-17
3418.3 5.5176e-17
3419.825 1.0114e-16
3421.35 9.8694e-17
3422.875 6.6406e-17
3424.4 8.4145e-17
3425.925 8.3591e-17
3427.45 9.7796e-17
3428.975 1.1777e-16
3430.5 8.0873e-17
3432.025 1.1018e-16
3433.55 6.3824e-17
3435.075 7.1187e-17
3436.6 1.0311e-16
3438.125 6.5902e-17
3439.65 9.0036e-17
3441.175 1.1752e-16
3442.7 9.9153e-17
3444.225 1.0238e-16
3445.75 1.3691e-16
3447.275 1.4424e-16
3448.8 1.394e-16
3450.325 9.2595e-17
3451.85 1.3128e-16
3453.375 9.8619e-17
3454.9 1.018e-16
3456.425 1.0028e-16
3457.95 9.6951e-17
3459.475 7.0972e-17
3461.0 7.4013e-17
3462.525 1.3784e-16
3464.05 1.1232e-16
3465.575 8.9863e-17
3467.1 8.1034e-17
3468.625 7.0749e-17
3470.15 7.2235e-17
3471.675 6.4824e-17
3473.2 5.5388e-17
3474.725 6.0872e-17
3476.25 9.6478e-17
3477.775 9.4476e-17
3479.3 9.3239e-17
3480.825 4.6224e-17
3482.35 3.3995e-17
3483.875 6.5487e-17
3485.4 1.1222e-16
3486.925 7.1004e-17
3488.45 4.9236e-17
3489.975 6.1452e-17
3491.5 8.1196e-17
3493.025 7.8276e-17
3494.55 7.1329e-17
3496.075 5.2011e-17
3497.6 5.8025e-17
3499.125 5.3219e-17
3500.65 6.4685e-17
3502.175 7.9707e-17
3503.7 4.0267e-17
3505.225 4.4133e-17
3506.75 6.6592e-17
3508.275 8.6007e-17
3509.8 1.1166e-16
3511.325 8.4365e-17
3512.85 7.5382e-17
3514.375 5.5441e-17
3515.9 9.5226e-17
3517.425 5.9885e-17
3518.95 4.1205e-17
3520.475 2.9551e-17
3522.0 6.0889e-17
3523.525 4.7453e-17
3525.05 3.5733e-17
3526.575 4.9451e-17
3528.1 7.3346e-17
3529.625 8.4257e-17
3531.15 8.1801e-17
3532.675 5.1294e-17
3534.2 4.7956e-17
3535.725 7.559e-17
3537.25 6.214e-17
3538.775 6.9412e-17
3540.3 9.1862e-17
3541.825 5.9466e-17
3543.35 8.0405e-17
3544.875 1.0139e-16
3546.4 7.1879e-17
3547.925 6.6074e-17
3549.45 5.6815e-17
3550.975 4.3748e-17
3552.5 4.9722e-17
3554.025 7.0269e-17
3555.55 7.7882e-17
3557.075 5.8076e-17
3558.6 8.2288e-17
3560.125 1.1898e-16
3561.65 1.106e-16
3563.175 7.0129e-17
3564.7 4.061e-17
3566.225 4.5069e-17
3567.75 4.8851e-17
3569.275 3.8344e-17
3570.8 4.4438e-17
3572.325 7.7419e-17
3573.85 9.0527e-17
3575.375 7.7879e-17
3576.9 8.425e-17
3578.425 4.7436e-17
3579.95 4.6689e-17
3581.475 7.4844e-17
3583.0 8.9082e-17
3584.525 5.0813e-17
3586.05 4.9165e-17
3587.575 6.4532e-17
3589.1 7.7701e-17
3590.625 8.7308e-17
3592.15 6.9562e-17
3593.675 6.9005e-17
3595.2 5.6477e-17
3596.725 4.6378e-17
3598.25 6.111e-17
3599.775 6.0014e-17
3601.3 6.8351e-17
3602.825 7.0453e-17
3604.35 6.3174e-17
3605.875 5.4084e-17
3607.4 5.9068e-17
3608.925 6.6056e-17
3610.45 6.1847e-17
3611.975 7.7926e-17
3613.5 6.6863e-17
3615.025 7.6566e-17
3616.55 6.2526e-17
3618.075 6.1074e-17
3619.6 6.7066e-17
3621.125 8.1357e-17
3622.65 1.0518e-16
3624.175 8.3983e-17
3625.7 7.1391e-17
3627.225 6.9874e-17
3628.75 4.4271e-17
3630.275 5.6151e-17
3631.8 7.4525e-17
3633.325 6.0121e-17
3634.85 7.8709e-17
3636.375 9.1848e-17
3637.9 8.0987e-17
3639.425 6.9985e-17
3640.95 6.823e-17
3642.475 8.8952e-17
3644.0 8.1336e-17
3645.525 7.8537e-17
3647.05 9.5316e-17
3648.575 1.3283e-16
3650.1 1.3913e-16
3651.625 1.1109e-16
3653.15 7.2856e-17
3654.675 8.3268e-17
3656.2 3.911e-17
3657.725 8.5691e-17
3659.25 9.3636e-17
3660.775 1.0398e-16
3662.3 7.1547e-17
3663.825 8.2997e-17
3665.35 9.9038e-17
3666.875 9.0667e-17
3668.4 9.3481e-17
3669.925 1.105e-16
3671.45 9.255e-17
3672.975 1.1304e-16
3674.5 9.7924e-17
3676.025 1.0044e-16
3677.55 9.2812e-17
3679.075 1.1745e-16
3680.6 1.197e-16
3682.125 1.1696e-16
3683.65 1.0758e-16
3685.175 1.096e-16
3686.7 1.0038e-16
3688.225 1.1538e-16
3689.75 9.6645e-17
3691.275 8.7112e-17
3692.8 1.1193e-16
3694.325 1.059e-16
3695.85 1.0645e-16
3697.375 1.1526e-16
3698.9 1.1021e-16
3700.425 1.0188e-16
3701.95 1.1224e-16
3703.475 1.3033e-16
3705.0 1.0994e-16
3706.525 1.1135e-16
3708.05 1.1197e-16
3709.575 1.1181e-16
3711.1 1.1774e-16
3712.625 1.1063e-16
3714.15 1.017e-16
3715.675 1.0214e-16
3717.2 1.0562e-16
3718.725 1.0808e-16
3720.25 9.4747e-17
3721.775 9.7197e-17
3723.3 1.168e-16
3724.825 1.2491e-16
3726.35 1.1895e-16
3727.875 1.1834e-16
3729.4 1.0677e-16
3730.925 1.0888e-16
3732.45 1.106e-16
3733.975 1.1116e-16
3735.5 1.1733e-16
3737.025 1.0349e-16
3738.55 8.3497e-17
3740.075 9.8586e-17
3741.6 1.1522e-16
3743.125 1.0303e-16
3744.65 1.2322e-16
3746.175 1.2284e-16
3747.7 1.0936e-16
3749.225 1.1956e-16
3750.75 1.2799e-16
3752.275 9.8795e-17
3753.8 1.1023e-16
3755.325 1.2427e-16
3756.85 1.1634e-16
3758.375 1.1318e-16
3759.9 1.0389e-16
3761.425 1.0055e-16
3762.95 8.7304e-17
3764.475 8.3247e-17
3766.0 1.1076e-16
3767.525 9.6988e-17
3769.05 1.1891e-16
3770.575 9.4424e-17
3772.1 5.7779e-17
3773.625 7.0712e-17
3775.15 7.981e-17
3776.675 1.0171e-16
3778.2 1.0097e-16
3779.725 1.1051e-16
3781.25 1.1351e-16
3782.775 1.116e-16
3784.3 1.1647e-16
3785.825 1.2865e-16
3787.35 1.2987e-16
3788.875 1.0673e-16
3790.4 9.2878e-17
3791.925 9.7623e-17
3793.45 1.0266e-16
3794.975 1.0381e-16
3796.5 1.1981e-16
3798.025 1.0394e-16
3799.55 1.1276e-16
3801.075 1.2082e-16
3802.6 1.0733e-16
3804.125 1.0217e-16
3805.65 1.0261e-16
3807.175 1.1862e-16
3808.7 1.115e-16
3810.225 1.3393e-16
3811.75 1.2059e-16
3813.275 9.0725e-17
3814.8 1.078e-16
3816.325 1.4098e-16
3817.85 1.2786e-16
3819.375 1.247e-16
3820.9 1.0515e-16
3822.425 1.0578e-16
3823.95 1.278e-16
3825.475 1.225e-16
3827.0 1.1522e-16
3828.525 1.2371e-16
3830.05 9.6619e-17
3831.575 8.5327e-17
3833.1 1.0286e-16
3834.625 1.0798e-16
3836.15 9.3445e-17
3837.675 1.011e-16
3839.2 9.0286e-17
3840.725 8.1598e-17
3842.25 9.0836e-17
3843.775 1.2159e-16
3845.3 1.0473e-16
3846.825 1.0885e-16
3848.35 1.1647e-16
3849.875 1.0228e-16
3851.4 9.8746e-17
3852.925 1.0813e-16
3854.45 1.1212e-16
3855.975 9.7457e-17
3857.5 1.0535e-16
3859.025 9.8738e-17
3860.55 1.045e-16
3862.075 9.9875e-17
3863.6 1.0166e-16
3865.125 1.0824e-16
3866.65 1.1907e-16
3868.175 1.1695e-16
3869.7 1.216e-16
3871.225 1.2411e-16
3872.75 1.2583e-16
3874.275 1.2911e-16
3875.8 1.0991e-16
3877.325 9.9481e-17
3878.85 9.1805e-17
3880.375 9.721e-17
3881.9 1.2455e-16
3883.425 1.327e-16
3884.95 1.2384e-16
3886.475 1.1685e-16
3888.0 1.0212e-16
3889.525 8.7402e-17
3891.05 9.8161e-17
3892.575 1.1824e-16
3894.1 1.3148e-16
3895.625 1.0201e-16
3897.15 1.1315e-16
3898.675 1.1552e-16
3900.2 1.1628e-16
3901.725 1.1276e-16
3903.25 1.1438e-16
3904.775 1.0791e-16
3906.3 1.0382e-16
3907.825 1.1852e-16
3909.35 1.203e-16
3910.875 1.0405e-16
3912.4 1.0868e-16
3913.925 1.157e-16
3915.45 1.0126e-16
3916.975 1.2617e-16
3918.5 9.3659e-17
3920.025 1.0178e-16
3921.55 1.056e-16
3923.075 1.0689e-16
3924.6 1.1861e-16
3926.125 1.3075e-16
3927.65 1.2237e-16
3929.175 1.1609e-16
3930.7 1.156e-16
3932.225 1.135e-16
3933.75 1.1799e-16
3935.275 1.086e-16
3936.8 1.1108e-16
3938.325 1.1449e-16
3939.85 1.2237e-16
3941.375 1.2405e-16
3942.9 1.0324e-16
3944.425 1.1266e-16
3945.95 1.1431e-16
3947.475 1.3024e-16
3949.0 1.3059e-16
3950.525 1.1203e-16
3952.05 1.2745e-16
3953.575 1.2265e-16
3955.1 1.0854e-16
3956.625 1.0654e-16
3958.15 1.163e-16
3959.675 1.217e-16
3961.2 1.2291e-16
3962.725 1.2528e-16
3964.25 1.0538e-16
3965.775 1.0761e-16
3967.3 1.0892e-16
3968.825 1.1137e-16
3970.35 1.1412e-16
3971.875 1.1466e-16
3973.4 1.2438e-16
3974.925 1.1215e-16
3976.45 1.2249e-16
3977.975 1.2196e-16
3979.5 1.241e-16
3981.025 1.3204e-16
3982.55 1.0643e-16
3984.075 1.1693e-16
3985.6 1.0514e-16
3987.125 1.2408e-16
3988.65 1.2363e-16
3990.175 1.1984e-16
3991.7 1.2517e-16
3993.225 1.2228e-16
3994.75 1.3009e-16
3996.275 1.2738e-16
3997.8 1.2422e-16
3999.325 1.3066e-16
4000.85 1.2782e-16
4002.375 1.1773e-16
4003.9 1.1797e-16
4005.425 1.3041e-16
4006.95 1.2416e-16
4008.475 1.1252e-16
4010.0 1.0468e-16
4011.525 1.2947e-16
4013.05 1.1388e-16
4014.575 1.0649e-16
4016.1 1.0968e-16
4017.625 1.1724e-16
4019.15 1.2017e-16
4020.675 1.0846e-16
4022.2 1.0195e-16
4023.725 1.2315e-16
4025.25 9.9357e-17
4026.775 1.1925e-16
4028.3 1.2593e-16
4029.825 1.4845e-16
4031.35 1.5192e-16
4032.875 1.14e-16
4034.4 1.4047e-16
4035.925 1.4368e-16
4037.45 1.1983e-16
4038.975 1.3247e-16
4040.5 1.4163e-16
4042.025 1.3799e-16
4043.55 1.2991e-16
4045.075 1.0832e-16
4046.6 1.1248e-16
4048.125 1.3117e-16
4049.65 1.3198e-16
4051.175 1.2016e-16
4052.7 1.194e-16
4054.225 1.2961e-16
4055.75 1.2602e-16
4057.275 1.204e-16
4058.8 1.1398e-16
4060.325 1.1907e-16
4061.85 1.2612e-16
4063.375 1.2054e-16
4064.9 1.2983e-16
4066.425 1.2218e-16
4067.95 1.1958e-16
4069.475 1.1934e-16
4071.0 1.3218e-16
4072.525 1.3838e-16
4074.05 1.2795e-16
4075.575 1.3786e-16
4077.1 1.3007e-16
4078.625 1.1051e-16
4080.15 1.1403e-16
4081.675 1.2172e-16
4083.2 1.2517e-16
4084.725 1.2675e-16
4086.25 1.1023e-16
4087.775 1.1555e-16
4089.3 1.3862e-16
4090.825 1.3124e-16
4092.35 1.125e-16
4093.875 1.2476e-16
4095.4 1.2108e-16
4096.925 1.2686e-16
4098.45 1.2189e-16
4099.975 1.3135e-16
4101.5 1.3216e-16
4103.025 1.3496e-16
4104.55 1.3074e-16
4106.075 1.2215e-16
4107.6 1.1301e-16
4109.125 1.2771e-16
4110.65 1.1498e-16
4112.175 1.1084e-16
4113.7 1.1936e-16
4115.225 1.2044e-16
4116.75 1.171e-16
4118.275 1.1888e-16
4119.8 1.3193e-16
4121.325 1.3985e-16
4122.85 1.3804e-16
4124.375 1.395e-16
4125.9 1.4649e-16
4127.425 1.1952e-16
4128.95 9.7767e-17
4130.475 1.2615e-16
4132.0 1.4223e-16
4133.525 1.2293e-16
4135.05 1.2282e-16
4136.575 1.0722e-16
4138.1 1.1704e-16
4139.625 1.1646e-16
4141.15 1.058e-16
4142.675 1.2124e-16
4144.2 1.3489e-16
4145.725 1.2904e-16
4147.25 1.0419e-16
4148.775 1.1652e-16
4150.3 1.3232e-16
4151.825 1.1753e-16
4153.35 1.1592e-16
4154.875 1.0875e-16
4156.4 1.102e-16
4157.925 1.1799e-16
4159.45 1.38e-16
4160.975 1.3907e-16
4162.5 1.3548e-16
4164.025 1.3709e-16
4165.55 1.2419e-16
4167.075 1.3108e-16
4168.6 1.3114e-16
4170.125 1.3201e-16
4171.65 1.1187e-16
4173.175 1.0548e-16
4174.7 1.3274e-16
4176.225 1.4299e-16
4177.75 1.4239e-16
4179.275 1.3115e-16
4180.8 1.2364e-16
4182.325 1.2059e-16
4183.85 1.2763e-16
4185.375 1.2577e-16
4186.9 1.0673e-16
4188.425 1.1843e-16
4189.95 1.2893e-16
4191.475 1.4176e-16
4193.0 1.2695e-16
4194.525 1.1734e-16
4196.05 1.2058e-16
4197.575 1.1735e-16
4199.1 1.0722e-16
4200.625 1.0994e-16
4202.15 1.224e-16
4203.675 1.3606e-16
4205.2 1.358e-16
4206.725 1.0701e-16
4208.25 1.0449e-16
4209.775 1.0794e-16
4211.3 1.1279e-16
4212.825 1.1209e-16
4214.35 1.2321e-16
4215.875 1.3122e-16
4217.4 1.305e-16
4218.925 1.2345e-16
4220.45 1.2588e-16
4221.975 1.1753e-16
4223.5 1.3666e-16
4225.025 1.2526e-16
4226.55 1.1495e-16
4228.075 1.0403e-16
4229.6 1.1459e-16
4231.125 1.182e-16
4232.65 1.103e-16
4234.175 9.7684e-17
4235.7 1.0362e-16
4237.225 1.1453e-16
4238.75 1.1425e-16
4240.275 1.1719e-16
4241.8 1.2323e-16
4243.325 1.1467e-16
4244.85 1.2427e-16
4246.375 1.3192e-16
4247.9 1.2567e-16
4249.425 1.1386e-16
4250.95 1.2987e-16
4252.475 1.2903e-16
4254.0 1.3055e-16
4255.525 1.1057e-16
4257.05 1.0487e-16
4258.575 1.091e-16
4260.1 1.0965e-16
4261.625 1.0325e-16
4263.15 1.0786e-16
4264.675 1.2057e-16
4266.2 1.2256e-16
4267.725 1.1558e-16
4269.25 1.1316e-16
4270.775 1.0917e-16
4272.3 1.2507e-16
4273.825 1.0918e-16
4275.35 1.1399e-16
4276.875 1.1694e-16
4278.4 1.1973e-16
4279.925 1.1313e-16
4281.45 1.0883e-16
4282.975 1.1502e-16
4284.5 1.1811e-16
4286.025 1.1984e-16
4287.55 1.129e-16
4289.075 9.8063e-17
4290.6 1.0918e-16
4292.125 1.0478e-16
4293.65 1.0598e-16
4295.175 9.0526e-17
4296.7 9.3118e-17
4298.225 9.3295e-17
4299.75 9.8895e-17
4301.275 1.0825e-16
4302.8 1.1405e-16
4304.325 1.3122e-16
4305.85 1.1753e-16
4307.375 1.014e-16
4308.9 9.6982e-17
4310.425 1.0663e-16
4311.95 1.1557e-16
4313.475 1.1889e-16
4315.0 1.0914e-16
4316.525 8.843e-17
4318.05 9.806e-17
4319.575 1.1565e-16
4321.1 1.202e-16
4322.625 9.7946e-17
4324.15 1.1626e-16
4325.675 1.1121e-16
4327.2 1.1126e-16
4328.725 1.1632e-16
4330.25 1.0731e-16
4331.775 1.0257e-16
4333.3 9.4787e-17
4334.825 1.0333e-16
4336.35 1.1458e-16
4337.875 1.1174e-16
4339.4 1.2005e-16
4340.925 1.1515e-16
4342.45 1.1545e-16
4343.975 1.2306e-16
4345.5 1.0778e-16
4347.025 1.2529e-16
4348.55 1.2458e-16
4350.075 1.0704e-16
4351.6 1.072e-16
4353.125 1.0993e-16
4354.65 9.4535e-17
4356.175 1.0662e-16
4357.7 1.2499e-16
4359.225 1.2889e-16
4360.75 1.0459e-16
4362.275 8.5908e-17
4363.8 1.0932e-16
4365.325 9.805e-17
4366.85 1.0873e-16
4368.375 1.301e-16
4369.9 1.3339e-16
4371.425 1.2205e-16
4372.95 1.0899e-16
4374.475 1.1079e-16
4376.0 1.3067e-16
4377.525 1.1971e-16
4379.05 1.1657e-16
4380.575 1.2679e-16
4382.1 1.2925e-16
4383.625 1.2308e-16
4385.15 1.1911e-16
4386.675 1.0677e-16
4388.2 1.018e-16
4389.725 1.0913e-16
4391.25 1.0803e-16
4392.775 1.1219e-16
4394.3 1.1224e-16
4395.825 1.2017e-16
4397.35 1.2237e-16
4398.875 1.1986e-16
4400.4 1.0983e-16
4401.925 1.1695e-16
4403.45 1.3877e-16
4404.975 1.2663e-16
4406.5 1.2924e-16
4408.025 1.278e-16
4409.55 1.1712e-16
4411.075 1.2139e-16
4412.6 9.2693e-17
4414.125 9.7479e-17
4415.65 1.1396e-16
4417.175 1.174e-16
4418.7 1.0503e-16
4420.225 1.2459e-16
4421.75 1.1197e-16
4423.275 1.1634e-16
4424.8 1.1353e-16
4426.325 1.1866e-16
4427.85 9.8793e-17
4429.375 1.0406e-16
4430.9 1.1464e-16
4432.425 1.2971e-16
4433.95 1.2522e-16
4435.475 1.0399e-16
4437.0 1.0439e-16
4438.525 1.2484e-16
4440.05 1.2781e-16
4441.575 1.1859e-16
4443.1 1.0996e-16
4444.625 9.8733e-17
4446.15 9.3123e-17
4447.675 1.2252e-16
4449.2 1.4229e-16
4450.725 1.3494e-16
4452.25 1.2862e-16
4453.775 1.3451e-16
4455.3 1.2582e-16
4456.825 1.234e-16
4458.35 1.3609e-16
4459.875 1.4486e-16
4461.4 1.2205e-16
4462.925 1.0905e-16
4464.45 1.092e-16
4465.975 1.1933e-16
4467.5 1.2449e-16
4469.025 1.1485e-16
4470.55 1.0098e-16
4472.075 1.0709e-16
4473.6 9.7549e-17
4475.125 1.0729e-16
4476.65 1.0556e-16
4478.175 9.6794e-17
4479.7 1.0282e-16
4481.225 1.215e-16
4482.75 1.1627e-16
4484.275 9.5064e-17
4485.8 1.2579e-16
4487.325 1.1115e-16
4488.85 1.0991e-16
4490.375 1.3023e-16
4491.9 1.2227e-16
4493.425 1.1826e-16
4494.95 1.3688e-16
4496.475 1.2363e-16
4498.0 1.1404e-16
4499.525 1.1653e-16
4501.05 1.3639e-16
4502.575 1.1324e-16
4504.1 1.0204e-16
4505.625 1.1446e-16
4507.15 1.2712e-16
4508.675 1.2812e-16
4510.2 1.162e-16
4511.725 1.0552e-16
4513.25 1.0068e-16
4514.775 1.0233e-16
4516.3 1.1783e-16
4517.825 1.1918e-16
4519.35 1.0222e-16
4520.875 1.0247e-16
4522.4 1.1738e-16
4523.925 1.2126e-16
4525.45 1.409e-16
4526.975 1.1862e-16
4528.5 1.2854e-16
4530.025 1.292e-16
4531.55 1.2503e-16
4533.075 1.2641e-16
4534.6 1.1803e-16
4536.125 1.1959e-16
4537.65 1.2566e-16
4539.175 1.1946e-16
4540.7 1.2869e-16
4542.225 1.3215e-16
4543.75 1.1179e-16
4545.275 1.1371e-16
4546.8 1.3397e-16
4548.325 1.2943e-16
4549.85 1.3461e-16
4551.375 1.169e-16
4552.9 1.2185e-16
4554.425 1.1998e-16
4555.95 1.1137e-16
4557.475 1.2845e-16
4559.0 1.2875e-16
4560.525 1.3266e-16
4562.05 1.3468e-16
4563.575 1.2365e-16
4565.1 1.1951e-16
4566.625 1.1321e-16
4568.15 1.0411e-16
4569.675 1.2362e-16
4571.2 1.1829e-16
4572.725 1.2097e-16
4574.25 1.2611e-16
4575.775 1.2779e-16
4577.3 1.2067e-16
4578.825 1.1297e-16
4580.35 1.1977e-16
4581.875 1.2469e-16
4583.4 1.1904e-16
4584.925 1.0855e-16
4586.45 1.0605e-16
4587.975 1.1283e-16
4589.5 1.1208e-16
4591.025 1.2055e-16
4592.55 1.0996e-16
4594.075 1.2339e-16
4595.6 1.4225e-16
4597.125 1.3403e-16
4598.65 1.2073e-16
4600.175 1.2768e-16
4601.7 1.1525e-16
4603.225 1.1722e-16
4604.75 1.1251e-16
4606.275 1.1996e-16
4607.8 9.5531e-17
4609.325 1.0629e-16
4610.85 1.2418e-16
4612.375 1.2911e-16
4613.9 1.2412e-16
4615.425 9.9783e-17
4616.95 1.0044e-16
4618.475 1.0953e-16
4620.0 1.0717e-16
4621.525 1.175e-16
4623.05 1.1307e-16
4624.575 1.0965e-16
4626.1 1.1153e-16
4627.625 1.1986e-16
4629.15 1.2759e-16
4630.675 1.208e-16
4632.2 1.1003e-16
4633.725 1.2578e-16
4635.25 1.2409e-16
4636.775 1.315e-16
4638.3 1.0952e-16
4639.825 1.0933e-16
4641.35 1.0371e-16
4642.875 1.0999e-16
4644.4 1.147e-16
4645.925 1.1492e-16
4647.45 1.052e-16
4648.975 1.1006e-16
4650.5 1.018e-16
4652.025 1.0419e-16
4653.55 1.1424e-16
4655.075 1.3457e-16
4656.6 9.693e-17
4658.125 1.1921e-16
4659.65 9.3325e-17
4661.175 1.0538e-16
4662.7 9.9202e-17
4664.225 1.0908e-16
4665.75 1.092e-16
4667.275 1.0849e-16
4668.8 1.098e-16
4670.325 1.0678e-16
4671.85 1.1541e-16
4673.375 1.2199e-16
4674.9 1.2071e-16
4676.425 8.5543e-17
4677.95 9.871e-17
4679.475 1.0208e-16
4681.0 1.0742e-16
4682.525 1.1682e-16
4684.05 1.0332e-16
4685.575 1.0043e-16
4687.1 1.0024e-16
4688.625 9.9018e-17
4690.15 1.0464e-16
4691.675 1.0042e-16
4693.2 1.094e-16
4694.725 1.0782e-16
4696.25 1.056e-16
4697.775 1.0682e-16
4699.3 1.0882e-16
4700.825 1.113e-16
4702.35 1.1899e-16
4703.875 1.1199e-16
4705.4 1.301e-16
4706.925 1.1246e-16
4708.45 1.1896e-16
4709.975 1.2786e-16
4711.5 1.0965e-16
4713.025 1.1086e-16
4714.55 1.116e-16
4716.075 1.0603e-16
4717.6 1.0652e-16
4719.125 1.1331e-16
4720.65 9.9761e-17
4722.175 9.5896e-17
4723.7 1.0969e-16
4725.225 1.1261e-16
4726.75 9.0592e-17
4728.275 9.7094e-17
4729.8 1.1682e-16
4731.325 1.1279e-16
4732.85 1.0858e-16
4734.375 1.2635e-16
4735.9 1.1239e-16
4737.425 1.0795e-16
4738.95 1.1435e-16
4740.475 1.0823e-16
4742.0 8.2895e-17
4743.525 1.0925e-16
4745.05 1.3752e-16
4746.575 1.3408e-16
4748.1 1.2158e-16
4749.625 1.1244e-16
4751.15 1.0535e-16
4752.675 1.0717e-16
4754.2 1.0434e-16
4755.725 1.133e-16
4757.25 1.0365e-16
4758.775 1.1028e-16
4760.3 1.095e-16
4761.825 1.1372e-16
4763.35 1.1278e-16
4764.875 1.1326e-16
4766.4 1.0474e-16
4767.925 1.1161e-16
4769.45 1.0587e-16
4770.975 1.0872e-16
4772.5 1.0875e-16
4774.025 1.0588e-16
4775.55 1.0233e-16
4777.075 1.077e-16
4778.6 1.0735e-16
4780.125 1.0332e-16
4781.65 9.8833e-17
4783.175 1.1716e-16
4784.7 1.1659e-16
4786.225 1.0847e-16
4787.75 9.1527e-17
4789.275 1.0126e-16
4790.8 1.1342e-16
4792.325 1.059e-16
4793.85 1.1184e-16
4795.375 1.1315e-16
4796.9 1.0559e-16
4798.425 1.0173e-16
4799.95 1.0155e-16
4801.475 9.4802e-17
4803.0 9.6574e-17
4804.525 9.7573e-17
4806.05 9.0136e-17
4807.575 1.0164e-16
4809.1 1.1163e-16
4810.625 1.0272e-16
4812.15 9.9593e-17
4813.675 1.0546e-16
4815.2 1.1017e-16
4816.725 1.1674e-16
4818.25 1.05e-16
4819.775 1.0067e-16
4821.3 1.0344e-16
4822.825 9.5056e-17
4824.35 1.0236e-16
4825.875 1.1248e-16
4827.4 9.9564e-17
4828.925 7.9478e-17
4830.45 8.9445e-17
4831.975 9.1857e-17
4833.5 9.3363e-17
4835.025 8.3857e-17
4836.55 8.6409e-17
4838.075 9.0294e-17
4839.6 1.1265e-16
4841.125 1.0968e-16
4842.65 1.0477e-16
4844.175 9.8716e-17
4845.7 9.6602e-17
4847.225 1.0535e-16
4848.75 9.1737e-17
4850.275 9.3594e-17
4851.8 1.0296e-16
4853.325 1.0028e-16
4854.85 1.0592e-16
4856.375 1.0521e-16
4857.9 9.2161e-17
4859.425 9.8846e-17
4860.95 9.3128e-17
4862.475 9.2733e-17
4864.0 1.0317e-16
4865.525 9.1809e-17
4867.05 9.3971e-17
4868.575 9.3355e-17
4870.1 8.2837e-17
4871.625 8.7434e-17
4873.15 9.5163e-17
4874.675 9.2297e-17
4876.2 9.7015e-17
4877.725 9.5683e-17
4879.25 1.0279e-16
4880.775 9.5336e-17
4882.3 1.1028e-16
4883.825 8.1783e-17
4885.35 6.599e-17
4886.875 7.5462e-17
4888.4 9.5019e-17
4889.925 8.8308e-17
4891.45 1.0199e-16
4892.975 1.1022e-16
4894.5 1.0682e-16
4896.025 9.8543e-17
4897.55 1.0381e-16
4899.075 1.1231e-16
4900.6 9.4399e-17
4902.125 9.4382e-17
4903.65 9.5805e-17
4905.175 8.9449e-17
4906.7 1.1044e-16
4908.225 1.0313e-16
4909.75 1.0108e-16
4911.275 8.2873e-17
4912.8 9.504e-17
4914.325 9.9701e-17
4915.85 9.718e-17
4917.375 9.9708e-17
4918.9 1.0299e-16
4920.425 9.0534e-17
4921.95 1.0612e-16
4923.475 1.0614e-16
4925.0 1.0712e-16
4926.525 9.2384e-17
4928.05 1.1454e-16
4929.575 1.1918e-16
4931.1 1.0214e-16
4932.625 1.0039e-16
4934.15 1.0488e-16
4935.675 8.9635e-17
4937.2 9.9898e-17
4938.725 1.0083e-16
4940.25 8.8065e-17
4941.775 9.1534e-17
4943.3 9.0042e-17
4944.825 8.9136e-17
4946.35 8.8386e-17
4947.875 9.4717e-17
4949.4 8.9016e-17
4950.925 9.777e-17
4952.45 1.0411e-16
4953.975 1.052e-16
4955.5 1.0376e-16
4957.025 9.0662e-17
4958.55 8.8139e-17
4960.075 9.6805e-17
4961.6 9.5234e-17
4963.125 8.2219e-17
4964.65 8.2564e-17
4966.175 9.8049e-17
4967.7 1.2029e-16
4969.225 1.1422e-16
4970.75 9.3594e-17
4972.275 9.8783e-17
4973.8 1.0451e-16
4975.325 9.8267e-17
4976.85 1.087e-16
4978.375 1.0227e-16
4979.9 1.002e-16
4981.425 1.0868e-16
4982.95 8.8993e-17
4984.475 7.8707e-17
4986.0 9.7953e-17
4987.525 1.0547e-16
4989.05 8.7769e-17
4990.575 9.4666e-17
4992.1 9.0301e-17
4993.625 8.5133e-17
4995.15 1.0173e-16
4996.675 1.1071e-16
4998.2 1.0975e-16
4999.725 1.0999e-16
5001.25 9.3641e-17
5002.775 8.4656e-17
5004.3 8.4821e-17
5005.825 9.6591e-17
5007.35 9.8829e-17
5008.875 9.0653e-17
5010.4 8.7521e-17
5011.925 9.9276e-17
5013.45 9.3673e-17
5014.975 9.1895e-17
5016.5 1.0151e-16
5018.025 1.0435e-16
5019.55 9.6995e-17
5021.075 1.0538e-16
5022.6 8.7285e-17
5024.125 7.6186e-17
5025.65 9.2727e-17
5027.175 1.0214e-16
5028.7 8.6061e-17
5030.225 8.0292e-17
5031.75 8.974e-17
5033.275 8.2592e-17
5034.8 9.7102e-17
5036.325 8.5691e-17
5037.85 9.7855e-17
5039.375 1.048e-16
5040.9 9.1699e-17
5042.425 8.5934e-17
5043.95 9.1325e-17
5045.475 9.9716e-17
5047.0 9.8804e-17
5048.525 8.9547e-17
5050.05 8.6242e-17
5051.575 7.6898e-17
5053.1 8.6658e-17
5054.625 8.7802e-17
5056.15 9.1376e-17
5057.675 1.0322e-16
5059.2 9.6663e-17
5060.725 8.3386e-17
5062.25 9.344e-17
5063.775 8.4998e-17
5065.3 9.0333e-17
5066.825 9.8761e-17
5068.35 9.284e-17
5069.875 7.4378e-17
5071.4 7.065e-17
5072.925 8.5047e-17
5074.45 9.0453e-17
5075.975 8.9854e-17
5077.5 9.0591e-17
5079.025 9.805e-17
5080.55 1.0448e-16
5082.075 9.2352e-17
5083.6 8.6829e-17
5085.125 9.0474e-17
5086.65 9.44e-17
5088.175 9.4358e-17
5089.7 8.8991e-17
5091.225 8.0474e-17
5092.75 9.0074e-17
5094.275 8.8463e-17
5095.8 7.764e-17
5097.325 8.857e-17
5098.85 9.3881e-17
5100.375 9.3721e-17
5101.9 8.958e-17
5103.425 8.5575e-17
5104.95 1.05e-16
5106.475 9.2712e-17
5108.0 8.042e-17
5109.525 7.9455e-17
5111.05 8.9222e-17
5112.575 8.1462e-17
5114.1 8.0929e-17
5115.625 8.1454e-17
5117.15 8.8483e-17
5118.675 7.7487e-17
5120.2 7.9381e-17
5121.725 7.8679e-17
5123.25 8.7262e-17
5124.775 8.9524e-17
5126.3 9.3953e-17
5127.825 8.7387e-17
5129.35 8.7563e-17
5130.875 7.7675e-17
5132.4 8.552e-17
5133.925 1.0236e-16
5135.45 9.1439e-17
5136.975 8.3005e-17
5138.5 9.2733e-17
5140.025 9.2292e-17
5141.55 9.3593e-17
5143.075 8.68e-17
5144.6 9.2498e-17
5146.125 9.0865e-17
5147.65 8.3663e-17
5149.175 9.1347e-17
5150.7 8.7299e-17
5152.225 8.704e-17
5153.75 7.8882e-17
5155.275 8.7841e-17
5156.8 9.2771e-17
5158.325 8.6105e-17
5159.85 9.7337e-17
5161.375 8.9212e-17
5162.9 9.2764e-17
5164.425 9.4829e-17
5165.95 8.4251e-17
5167.475 8.7111e-17
5169.0 8.5481e-17
5170.525 8.4335e-17
5172.05 8.2336e-17
5173.575 7.9509e-17
5175.1 8.0612e-17
5176.625 7.9637e-17
5178.15 8.1308e-17
5179.675 8.1011e-17
5181.2 9.0043e-17
5182.725 8.8556e-17
5184.25 8.1175e-17
5185.775 8.563e-17
5187.3 9.4319e-17
5188.825 8.7202e-17
5190.35 8.6402e-17
5191.875 8.4171e-17
5193.4 8.9405e-17
5194.925 9.6392e-17
5196.45 8.8589e-17
5197.975 9.2739e-17
5199.5 8.9292e-17
5201.025 7.4294e-17
5202.55 9.3586e-17
5204.075 9.2231e-17
5205.6 8.975e-17
5207.125 9.4092e-17
5208.65 9.5137e-17
5210.175 8.3421e-17
5211.7 7.8807e-17
5213.225 7.7537e-17
5214.75 8.3389e-17
5216.275 8.0937e-17
5217.8 7.8245e-17
5219.325 1.0028e-16
5220.85 8.6825e-17
5222.375 8.8268e-17
5223.9 7.5497e-17
5225.425 8.4022e-17
5226.95 9.7211e-17
5228.475 8.309e-17
5230.0 9.094e-17
5231.525 8.9022e-17
5233.05 7.64e-17
5234.575 8.6545e-17
5236.1 7.968e-17
5237.625 6.8771e-17
5239.15 9.2062e-17
5240.675 8.4293e-17
5242.2 7.406e-17
5243.725 7.627e-17
5245.25 8.4087e-17
5246.775 8.364e-17
5248.3 8.4097e-17
5249.825 8.0302e-17
5251.35 7.6158e-17
5252.875 7.2884e-17
5254.4 8.2571e-17
5255.925 8.8199e-17
5257.45 1.0231e-16
5258.975 9.2343e-17
5260.5 8.7882e-17
5262.025 8.3001e-17
5263.55 7.9895e-17
5265.075 6.9955e-17
5266.6 8.3647e-17
5268.125 8.3846e-17
5269.65 7.8425e-17
5271.175 8.4226e-17
5272.7 7.336e-17
5274.225 8.3093e-17
5275.75 7.7863e-17
5277.275 6.3825e-17
5278.8 9.7846e-17
5280.325 8.6447e-17
5281.85 7.355e-17
5283.375 7.7605e-17
5284.9 7.012e-17
5286.425 8.5932e-17
5287.95 8.5848e-17
5289.475 7.0697e-17
5291.0 7.8128e-17
5292.525 8.1323e-17
5294.05 7.5183e-17
5295.575 6.2953e-17
5297.1 7.7572e-17
5298.625 8.7715e-17
5300.15 7.042e-17
5301.675 8.9638e-17
5303.2 7.3363e-17
5304.725 6.1427e-17
5306.25 6.8143e-17
5307.775 8.7579e-17
5309.3 7.6466e-17
5310.825 7.6273e-17
5312.35 7.6164e-17
5313.875 7.1233e-17
5315.4 6.1018e-17
5316.925 7.6199e-17
5318.45 7.3857e-17
5319.975 6.079e-17
5321.5 6.1129e-17
5323.025 6.7161e-17
5324.55 8.3835e-17
5326.075 8.5275e-17
5327.6 9.167e-17
5329.125 9.5932e-17
5330.65 8.0194e-17
5332.175 7.8581e-17
5333.7 8.2974e-17
5335.225 6.8081e-17
5336.75 8.7203e-17
5338.275 9.2564e-17
5339.8 7.5298e-17
5341.325 7.385e-17
5342.85 7.64e-17
5344.375 7.8562e-17
5345.9 8.0339e-17
5347.425 8.9695e-17
5348.95 6.8736e-17
5350.475 7.1606e-17
5352.0 7.5606e-17
5353.525 8.6864e-17
5355.05 8.7332e-17
5356.575 6.9526e-17
5358.1 8.7813e-17
5359.625 9.8842e-17
5361.15 8.5331e-17
5362.675 6.0757e-17
5364.2 7.406e-17
5365.725 8.9089e-17
5367.25 9.5363e-17
5368.775 7.8118e-17
5370.3 6.7316e-17
5371.825 8.4397e-17
5373.35 9.4752e-17
5374.875 8.7047e-17
5376.4 7.5804e-17
5377.925 7.0401e-17
5379.45 7.3059e-17
5380.975 7.0371e-17
5382.5 6.99e-17
5384.025 7.643e-17
5385.55 8.097e-17
5387.075 8.2022e-17
5388.6 7.272e-17
5390.125 6.0453e-17
5391.65 7.8838e-17
5393.175 9.6846e-17
5394.7 9.1472e-17
5396.225 6.8775e-17
5397.75 6.7166e-17
5399.275 7.1396e-17
5400.8 1.0419e-16
5402.325 8.0922e-17
5403.85 7.7843e-17
5405.375 9.3617e-17
5406.9 9.9035e-17
5408.425 8.7778e-17
5409.95 8.4556e-17
5411.475 6.5792e-17
5413.0 6.3663e-17
5414.525 9.2295e-17
5416.05 1.0075e-16
5417.575 8.8891e-17
5419.1 8.5757e-17
5420.625 8.4685e-17
5422.15 8.4362e-17
5423.675 1.04e-16
5425.2 9.5989e-17
5426.725 7.1818e-17
5428.25 8.6259e-17
5429.775 7.5804e-17
5431.3 8.1069e-17
5432.825 9.6198e-17
5434.35 8.7928e-17
5435.875 8.294e-17
5437.4 9.5951e-17
5438.925 9.4749e-17
5440.45 7.0226e-17
5441.975 6.9403e-17
5443.5 7.8258e-17
5445.025 8.3609e-17
5446.55 7.5406e-17
5448.075 5.9159e-17
5449.6 6.0576e-17
5451.125 8.796e-17
5452.65 8.3475e-17
5454.175 6.3805e-17
5455.7 8.0637e-17
5457.225 9.303e-17
5458.75 9.1286e-17
5460.275 9.0256e-17
5461.8 1.0655e-16
5463.325 9.1923e-17
5464.85 9.9884e-17
5466.375 8.4068e-17
5467.9 4.4559e-17
5469.425 5.3953e-17
5470.95 9.6201e-17
5472.475 8.5273e-17
5474.0 7.6285e-17
5475.525 7.2055e-17
5477.05 5.5519e-17
5478.575 5.8139e-17
5480.1 9.0128e-17
5481.625 9.5385e-17
5483.15 7.9201e-17
5484.675 7.7664e-17
5486.2 7.6983e-17
5487.725 7.1892e-17
5489.25 6.0752e-17
5490.775 6.2773e-17
5492.3 7.8696e-17
5493.825 4.5654e-17
5495.35 6.8578e-17
5496.875 8.0371e-17
5498.4 7.151e-17
5499.925 6.847e-17
5501.45 6.4402e-17
5502.975 8.4147e-17
5504.5 9.2541e-17
5506.025 8.226e-17
5507.55 8.0385e-17
5509.075 7.3441e-17
5510.6 8.4212e-17
5512.125 8.4947e-17
5513.65 6.5026e-17
5515.175 5.7438e-17
5516.7 7.7617e-17
5518.225 8.9411e-17
5519.75 7.8684e-17
5521.275 8.1022e-17
5522.8 7.1643e-17
5524.325 6.4936e-17
5525.85 8.2882e-17
5527.375 8.5408e-17
5528.9 7.5088e-17
5530.425 7.5412e-17
5531.95 8.9419e-17
5533.475 9.7456e-17
5535.0 9.3135e-17
5536.525 8.283e-17
5538.05 8.4797e-17
5539.575 7.7698e-17
5541.1 7.7626e-17
5542.625 8.043e-17
5544.15 7.9853e-17
5545.675 7.0429e-17
5547.2 7.7252e-17
5548.725 7.7001e-17
5550.25 9.648e-17
5551.775 7.8377e-17
5553.3 6.1092e-17
5554.825 7.0864e-17
5556.35 9.3623e-17
5557.875 8.7528e-17
5559.4 7.5695e-17
5560.925 8.2357e-17
5562.45 8.0821e-17
5563.975 7.2141e-17
5565.5 6.215e-17
5567.025 6.6298e-17
5568.55 7.0164e-17
5570.075 5.9738e-17
5571.6 8.5085e-17
5573.125 1.0248e-16
5574.65 7.436e-17
5576.175 7.4805e-17
5577.7 1.3419e-16
5579.225 1.0043e-16
5580.75 5.3294e-17
5582.275 5.3698e-17
5583.8 7.1559e-17
5585.325 7.2092e-17
5586.85 7.4482e-17
5588.375 6.2096e-17
5589.9 6.8659e-17
5591.425 6.4696e-17
5592.95 7.3371e-17
5594.475 7.2342e-17
5596.0 6.0625e-17
5597.525 5.4587e-17
5599.05 6.5066e-17
5600.575 6.8055e-17
5602.1 6.9477e-17
5603.625 6.8927e-17
5605.15 7.0337e-17
5606.675 6.6961e-17
5608.2 6.1057e-17
5609.725 6.1194e-17
5611.25 6.3942e-17
5612.775 7.4109e-17
5614.3 7.3572e-17
5615.825 7.0445e-17
5617.35 6.1747e-17
5618.875 7.2155e-17
5620.4 7.3638e-17
5621.925 6.8443e-17
5623.45 7.114e-17
5624.975 7.4853e-17
5626.5 6.6577e-17
5628.025 6.1991e-17
5629.55 6.9002e-17
5631.075 7.6819e-17
5632.6 7.8203e-17
5634.125 7.999e-17
5635.65 7.2998e-17
5637.175 6.6779e-17
5638.7 6.0045e-17
5640.225 7.0188e-17
5641.75 6.3781e-17
5643.275 4.7277e-17
5644.8 5.1865e-17
5646.325 6.2579e-17
5647.85 6.4908e-17
5649.375 5.4769e-17
5650.9 5.2681e-17
5652.425 6.2187e-17
5653.95 5.7876e-17
5655.475 5.1816e-17
5657.0 5.6371e-17
5658.525 5.8854e-17
5660.05 6.7383e-17
5661.575 6.941e-17
5663.1 6.6908e-17
5664.625 6.341e-17
5666.15 6.6022e-17
5667.675 7.0805e-17
5669.2 6.3851e-17
5670.725 6.4374e-17
5672.25 6.0106e-17
5673.775 5.9547e-17
5675.3 6.1201e-17
5676.825 6.0496e-17
5678.35 6.8784e-17
5679.875 6.4522e-17
5681.4 6.0242e-17
5682.925 6.9426e-17
5684.45 7.2464e-17
5685.975 6.9226e-17
5687.5 6.6916e-17
5689.025 6.739e-17
5690.55 6.9893e-17
5692.075 6.2137e-17
5693.6 4.79e-17
5695.125 4.4117e-17
5696.65 5.133e-17
5698.175 6.0537e-17
5699.7 6.5072e-17
5701.225 6.5984e-17
5702.75 6.6662e-17
5704.275 5.7799e-17
5705.8 6.1372e-17
5707.325 7.4122e-17
5708.85 6.5965e-17
5710.375 6.2701e-17
5711.9 6.8156e-17
5713.425 7.2693e-17
5714.95 7.3123e-17
5716.475 6.3301e-17
5718.0 6.5244e-17
5719.525 7.1605e-17
5721.05 6.8804e-17
5722.575 6.6992e-17
5724.1 6.5391e-17
5725.625 6.5182e-17
5727.15 6.7315e-17
5728.675 6.6251e-17
5730.2 6.8065e-17
5731.725 6.8974e-17
5733.25 6.1593e-17
5734.775 5.7527e-17
5736.3 6.1831e-17
5737.825 6.7895e-17
5739.35 5.5692e-17
5740.875 5.3233e-17
5742.4 6.1648e-17
5743.925 6.4875e-17
5745.45 6.6009e-17
5746.975 6.6196e-17
5748.5 5.8363e-17
5750.025 6.3037e-17
5751.55 5.9824e-17
5753.075 5.7881e-17
5754.6 5.8693e-17
5756.125 6.7414e-17
5757.65 6.5312e-17
5759.175 7.0782e-17
5760.7 7.1117e-17
5762.225 6.1776e-17
5763.75 7.541e-17
5765.275 7.5959e-17
5766.8 5.4852e-17
5768.325 6.0275e-17
5769.85 6.1842e-17
5771.375 6.0642e-17
5772.9 6.7817e-17
5774.425 6.546e-17
5775.95 6.7383e-17
5777.475 6.5855e-17
5779.0 6.4877e-17
5780.525 7.2336e-17
5782.05 7.2565e-17
5783.575 6.6669e-17
5785.1 6.1761e-17
5786.625 5.7599e-17
5788.15 5.5514e-17
5789.675 6.4578e-17
5791.2 6.2736e-17
5792.725 5.9502e-17
5794.25 7.2878e-17
5795.775 7.5266e-17
5797.3 7.1072e-17
5798.825 6.6422e-17
5800.35 6.74e-17
5801.875 6.6335e-17
5803.4 5.5162e-17
5804.925 5.6311e-17
5806.45 7.6141e-17
5807.975 7.883e-17
5809.5 7.9609e-17
5811.025 7.1112e-17
5812.55 6.311e-17
5814.075 6.9771e-17
5815.6 7.4975e-17
5817.125 6.7946e-17
5818.65 6.3864e-17
5820.175 5.6792e-17
5821.7 5.9274e-17
5823.225 6.9163e-17
5824.75 7.4051e-17
5826.275 7.339e-17
5827.8 6.3985e-17
5829.325 5.1477e-17
5830.85 5.8918e-17
5832.375 6.9941e-17
5833.9 7.7526e-17
5835.425 7.0235e-17
5836.95 6.0334e-17
5838.475 7.2659e-17
5840.0 8.2915e-17
5841.525 7.5862e-17
5843.05 7.4438e-17
5844.575 7.5119e-17
5846.1 7.284e-17
5847.625 7.9243e-17
5849.15 7.4689e-17
5850.675 7.5189e-17
5852.2 8.1188e-17
5853.725 7.3121e-17
5855.25 7.3335e-17
5856.775 6.5073e-17
5858.3 5.9155e-17
5859.825 7.6661e-17
5861.35 6.008e-17
5862.875 5.7557e-17
5864.4 7.1358e-17
5865.925 6.1529e-17
5867.45 6.9736e-17
5868.975 9.1545e-17
5870.5 8.7998e-17
5872.025 8.0679e-17
5873.55 6.0233e-17
5875.075 6.6831e-17
5876.6 6.6624e-17
5878.125 5.93e-17
5879.65 6.8905e-17
5881.175 7.5517e-17
5882.7 5.1982e-17
5884.225 6.2728e-17
5885.75 7.6789e-17
5887.275 6.6116e-17
5888.8 6.0377e-17
5890.325 6.6362e-17
5891.85 8.7307e-17
5893.375 5.8294e-17
5894.9 9.2753e-17
5896.425 8.7103e-17
5897.95 4.8528e-17
5899.475 5.2765e-17
5901.0 4.9675e-17
5902.525 5.7358e-17
5904.05 6.9927e-17
5905.575 7.1182e-17
5907.1 6.0099e-17
5908.625 7.4907e-17
5910.15 6.5953e-17
5911.675 5.9148e-17
5913.2 6.0126e-17
5914.725 7.0144e-17
5916.25 6.4707e-17
5917.775 5.9528e-17
5919.3 6.3824e-17
5920.825 5.9076e-17
5922.35 6.5686e-17
5923.875 7.3775e-17
5925.4 6.0426e-17
5926.925 6.5829e-17
5928.45 6.9302e-17
5929.975 6.6452e-17
5931.5 7.7823e-17
5933.025 6.2067e-17
5934.55 6.6447e-17
5936.075 7.5093e-17
5937.6 6.7761e-17
5939.125 5.3695e-17
5940.65 5.8958e-17
5942.175 6.0924e-17
5943.7 6.8029e-17
5945.225 7.8566e-17
5946.75 6.2421e-17
5948.275 6.9645e-17
5949.8 8.02e-17
5951.325 7.1766e-17
5952.85 6.8682e-17
5954.375 6.9823e-17
5955.9 6.8628e-17
5957.425 6.4822e-17
5958.95 6.2145e-17
5960.475 5.3132e-17
5962.0 5.4027e-17
5963.525 7.4123e-17
5965.05 6.2084e-17
5966.575 6.0464e-17
5968.1 6.8237e-17
5969.625 5.9669e-17
5971.15 5.5878e-17
5972.675 6.1972e-17
5974.2 4.999e-17
5975.725 5.4508e-17
5977.25 5.447e-17
5978.775 5.2192e-17
5980.3 5.6821e-17
5981.825 5.4713e-17
5983.35 5.0183e-17
5984.875 5.6831e-17
5986.4 6.0347e-17
5987.925 6.4883e-17
5989.45 5.9963e-17
5990.975 5.8098e-17
5992.5 6.0369e-17
5994.025 5.4009e-17
5995.55 6.602e-17
5997.075 6.8129e-17
5998.6 5.1767e-17
6000.125 4.2539e-17
6001.65 6.1854e-17
6003.175 6.9835e-17
6004.7 6.6179e-17
6006.225 7.2313e-17
6007.75 7.3478e-17
6009.275 6.3584e-17
6010.8 5.8355e-17
6012.325 6.3577e-17
6013.85 6.4364e-17
6015.375 6.2793e-17
6016.9 5.9417e-17
6018.425 6.5154e-17
6019.95 6.8386e-17
6021.475 7.0911e-17
6023.0 7.1699e-17
6024.525 6.2028e-17
6026.05 6.0116e-17
6027.575 6.2744e-17
6029.1 5.6712e-17
6030.625 5.0741e-17
6032.15 4.7907e-17
6033.675 5.6937e-17
6035.2 6.6999e-17
6036.725 6.6571e-17
6038.25 6.0778e-17
6039.775 4.8586e-17
6041.3 5.2784e-17
6042.825 5.7181e-17
6044.35 5.8071e-17
6045.875 6.1566e-17
6047.4 5.7723e-17
6048.925 5.6413e-17
6050.45 6.4663e-17
6051.975 6.8093e-17
6053.5 4.8697e-17
6055.025 5.3709e-17
6056.55 6.4459e-17
6058.075 5.8253e-17
6059.6 4.5888e-17
6061.125 5.3449e-17
6062.65 5.7481e-17
6064.175 6.1869e-17
6065.7 6.9969e-17
6067.225 7.3895e-17
6068.75 5.9067e-17
6070.275 5.6061e-17
6071.8 6.6757e-17
6073.325 6.8769e-17
6074.85 6.1346e-17
6076.375 5.9554e-17
6077.9 5.972e-17
6079.425 6.4428e-17
6080.95 6.1949e-17
6082.475 6.5508e-17
6084.0 6.2961e-17
6085.525 5.5702e-17
6087.05 8.0248e-17
6088.575 7.3816e-17
6090.1 6.2193e-17
6091.625 6.6207e-17
6093.15 6.0073e-17
6094.675 6.1167e-17
6096.2 6.4936e-17
6097.725 5.7625e-17
6099.25 6.7163e-17
6100.775 7.0048e-17
6102.3 7.0368e-17
6103.825 6.9616e-17
6105.35 5.8454e-17
6106.875 5.8428e-17
6108.4 5.387e-17
6109.925 6.0495e-17
6111.45 6.758e-17
6112.975 6.1758e-17
6114.5 5.4282e-17
6116.025 7.2449e-17
6117.55 7.3473e-17
6119.075 4.9613e-17
6120.6 5.2732e-17
6122.125 7.1011e-17
6123.65 6.3963e-17
6125.175 5.7762e-17
6126.7 6.0249e-17
6128.225 6.2639e-17
6129.75 6.3126e-17
6131.275 7.3095e-17
6132.8 6.7982e-17
6134.325 4.676e-17
6135.85 5.1464e-17
6137.375 5.6508e-17
6138.9 6.2184e-17
6140.425 7.0345e-17
6141.95 7.5981e-17
6143.475 6.774e-17
6145.0 6.7334e-17
6146.525 6.5416e-17
6148.05 6.6528e-17
6149.575 6.9538e-17
6151.1 6.8869e-17
6152.625 7.0559e-17
6154.15 6.9391e-17
6155.675 7.0151e-17
6157.2 7.0612e-17
6158.725 6.9909e-17
6160.25 7.045e-17
6161.775 5.5232e-17
6163.3 5.3944e-17
6164.825 6.1271e-17
6166.35 6.2503e-17
6167.875 6.5183e-17
6169.4 6.2558e-17
6170.925 6.6294e-17
6172.45 5.8118e-17
6173.975 5.1594e-17
6175.5 5.9309e-17
6177.025 7.227e-17
6178.55 6.2015e-17
6180.075 6.8826e-17
6181.6 7.3892e-17
6183.125 7.1512e-17
6184.65 7.0842e-17
6186.175 6.7189e-17
6187.7 6.5528e-17
6189.225 5.8413e-17
6190.75 6.4551e-17
6192.275 7.4333e-17
6193.8 7.6e-17
6195.325 6.7992e-17
6196.85 6.7708e-17
6198.375 7.2795e-17
6199.9 6.8199e-17
6201.425 6.7329e-17
6202.95 6.5169e-17
6204.475 6.4503e-17
6206.0 6.5186e-17
6207.525 5.804e-17
6209.05 5.961e-17
6210.575 6.0372e-17
6212.1 7.797e-17
6213.625 7.5911e-17
6215.15 6.5764e-17
6216.675 6.9627e-17
6218.2 6.5873e-17
6219.725 5.9397e-17
6221.25 6.0694e-17
6222.775 5.4517e-17
6224.3 5.466e-17
6225.825 7.0705e-17
6227.35 7.1283e-17
6228.875 7.1181e-17
6230.4 6.5742e-17
6231.925 7.2175e-17
6233.45 6.1684e-17
6234.975 6.6092e-17
6236.5 6.6661e-17
6238.025 6.9374e-17
6239.55 7.1716e-17
6241.075 6.9921e-17
6242.6 6.8125e-17
6244.125 7.3264e-17
6245.65 6.6218e-17
6247.175 5.7562e-17
6248.7 6.8397e-17
6250.225 6.9522e-17
6251.75 6.466e-17
6253.275 6.5796e-17
6254.8 7.4803e-17
6256.325 6.9227e-17
6257.85 7.9528e-17
6259.375 8.0775e-17
6260.9 7.0872e-17
6262.425 5.8298e-17
6263.95 5.6804e-17
6265.475 5.91e-17
6267.0 5.2418e-17
6268.525 6.422e-17
6270.05 6.4707e-17
6271.575 6.6289e-17
6273.1 6.2249e-17
6274.625 5.4526e-17
6276.15 6.4189e-17
6277.675 6.7957e-17
6279.2 6.1538e-17
6280.725 5.7215e-17
6282.25 6.18e-17
6283.775 6.4432e-17
6285.3 5.3389e-17
6286.825 5.9384e-17
6288.35 7.6682e-17
6289.875 7.9711e-17
6291.4 7.4788e-17
6292.925 6.477e-17
6294.45 5.9028e-17
6295.975 7.7719e-17
6297.5 8.502e-17
6299.025 5.4668e-17
6300.55 6.8969e-17
6302.075 7.7391e-17
6303.6 6.5827e-17
6305.125 5.9473e-17
6306.65 6.1608e-17
6308.175 6.035e-17
6309.7 6.9028e-17
6311.225 6.3363e-17
6312.75 6.3078e-17
6314.275 6.3924e-17
6315.8 5.4581e-17
6317.325 5.174e-17
6318.85 5.703e-17
6320.375 6.53e-17
6321.9 6.7403e-17
6323.425 6.2859e-17
6324.95 6.0281e-17
6326.475 6.3666e-17
6328.0 6.5669e-17
6329.525 6.8427e-17
6331.05 6.3097e-17
6332.575 5.5685e-17
6334.1 6.4608e-17
6335.625 6.6261e-17
6337.15 6.2794e-17
6338.675 5.9693e-17
6340.2 5.6583e-17
6341.725 6.3926e-17
6343.25 6.6599e-17
6344.775 5.3892e-17
6346.3 5.184e-17
6347.825 5.4175e-17
6349.35 6.0403e-17
6350.875 6.1688e-17
6352.4 6.0458e-17
6353.925 5.7318e-17
6355.45 5.4839e-17
6356.975 5.5448e-17
6358.5 5.2294e-17
6360.025 6.5555e-17
6361.55 7.0023e-17
6363.075 6.4358e-17
6364.6 5.4927e-17
6366.125 5.5387e-17
6367.65 6.054e-17
6369.175 5.4248e-17
6370.7 5.1786e-17
6372.225 5.5418e-17
6373.75 5.683e-17
6375.275 5.8414e-17
6376.8 6.5267e-17
6378.325 6.785e-17
6379.85 6.5659e-17
6381.375 5.8672e-17
6382.9 5.1485e-17
6384.425 5.9541e-17
6385.95 6.5754e-17
6387.475 6.2633e-17
6389.0 6.0857e-17
6390.525 5.3147e-17
6392.05 5.7203e-17
6393.575 5.8868e-17
6395.1 5.2423e-17
6396.625 5.3361e-17
6398.15 5.2025e-17
6399.675 5.2026e-17
6401.2 5.8889e-17
6402.725 6.3182e-17
6404.25 6.4916e-17
6405.775 5.9775e-17
6407.3 5.2967e-17
6408.825 5.846e-17
6410.35 5.9706e-17
6411.875 5.4296e-17
6413.4 5.8296e-17
6414.925 6.4464e-17
6416.45 5.5383e-17
6417.975 4.9816e-17
6419.5 5.2069e-17
6421.025 5.2782e-17
6422.55 5.6394e-17
6424.075 5.5552e-17
6425.6 5.1403e-17
6427.125 5.5148e-17
6428.65 5.7254e-17
6430.175 5.0797e-17
6431.7 5.3883e-17
6433.225 6.3668e-17
6434.75 6.0713e-17
6436.275 5.4007e-17
6437.8 5.7289e-17
6439.325 5.46e-17
6440.85 5.3992e-17
6442.375 5.1743e-17
6443.9 5.1843e-17
6445.425 5.9206e-17
6446.95 5.9289e-17
6448.475 6.0469e-17
6450.0 5.7077e-17
6451.525 5.4617e-17
6453.05 5.6561e-17
6454.575 5.8013e-17
6456.1 6.1985e-17
6457.625 5.8216e-17
6459.15 5.5735e-17
6460.675 5.8835e-17
6462.2 6.1084e-17
6463.725 5.8999e-17
6465.25 5.332e-17
6466.775 5.4413e-17
6468.3 5.3806e-17
6469.825 5.5065e-17
6471.35 5.8795e-17
6472.875 5.5922e-17
6474.4 5.6574e-17
6475.925 6.0556e-17
6477.45 6.2153e-17
6478.975 6.0425e-17
6480.5 5.5926e-17
6482.025 5.7424e-17
6483.55 5.9059e-17
6485.075 6.009e-17
6486.6 6.5619e-17
6488.125 6.4139e-17
6489.65 5.939e-17
6491.175 5.7825e-17
6492.7 5.5655e-17
6494.225 5.9846e-17
6495.75 5.8274e-17
6497.275 5.2432e-17
6498.8 5.1614e-17
6500.325 5.2148e-17
6501.85 5.7316e-17
6503.375 5.8232e-17
6504.9 5.4005e-17
6506.425 5.2834e-17
6507.95 5.8015e-17
6509.475 5.2973e-17
6511.0 5.9566e-17
6512.525 6.0453e-17
6514.05 6.0426e-17
6515.575 6.072e-17
6517.1 5.9476e-17
6518.625 6.049e-17
6520.15 5.8135e-17
6521.675 5.7065e-17
6523.2 5.8315e-17
6524.725 5.8461e-17
6526.25 5.8192e-17
6527.775 5.9919e-17
6529.3 6.57e-17
6530.825 6.6737e-17
6532.35 6.1143e-17
6533.875 5.3796e-17
6535.4 5.2689e-17
6536.925 5.4323e-17
6538.45 5.5763e-17
6539.975 6.0115e-17
6541.5 6.3994e-17
6543.025 6.0587e-17
6544.55 5.8544e-17
6546.075 5.8691e-17
6547.6 5.5505e-17
6549.125 5.6012e-17
6550.65 6.0503e-17
6552.175 5.7142e-17
6553.7 5.6597e-17
6555.225 5.9261e-17
6556.75 5.1633e-17
6558.275 5.4739e-17
6559.8 5.2957e-17
6561.325 4.5763e-17
6562.85 5.7758e-17
6564.375 6.1292e-17
6565.9 5.9557e-17
6567.425 5.6065e-17
6568.95 5.0674e-17
6570.475 5.136e-17
6572.0 5.993e-17
6573.525 5.9582e-17
6575.05 5.8096e-17
6576.575 6.4384e-17
6578.1 6.1559e-17
6579.625 5.4192e-17
6581.15 4.619e-17
6582.675 4.9276e-17
6584.2 5.0785e-17
6585.725 5.1518e-17
6587.25 5.7361e-17
6588.775 5.9438e-17
6590.3 5.9281e-17
6591.825 6.2183e-17
6593.35 5.9935e-17
6594.875 4.9387e-17
6596.4 5.2456e-17
6597.925 6.0246e-17
6599.45 6.0243e-17
6600.975 5.7599e-17
6602.5 5.4771e-17
6604.025 4.9081e-17
6605.55 4.6674e-17
6607.075 4.8334e-17
6608.6 4.9121e-17
6610.125 4.7182e-17
6611.65 5.0295e-17
6613.175 5.4438e-17
6614.7 5.2739e-17
6616.225 5.1648e-17
6617.75 5.7162e-17
6619.275 6.1068e-17
6620.8 5.3468e-17
6622.325 5.3719e-17
6623.85 5.766e-17
6625.375 5.0462e-17
6626.9 5.0089e-17
6628.425 5.4335e-17
6629.95 5.2667e-17
6631.475 5.3022e-17
6633.0 5.9496e-17
6634.525 5.4679e-17
6636.05 5.8583e-17
6637.575 5.8187e-17
6639.1 5.5053e-17
6640.625 4.8919e-17
6642.15 5.1407e-17
6643.675 5.8093e-17
6645.2 6.2473e-17
6646.725 5.9052e-17
6648.25 5.0462e-17
6649.775 4.8213e-17
6651.3 4.8105e-17
6652.825 5.0706e-17
6654.35 5.4148e-17
6655.875 4.8018e-17
6657.4 4.6785e-17
6658.925 4.704e-17
6660.45 4.777e-17
6661.975 4.9642e-17
6663.5 5.1889e-17
6665.025 5.2785e-17
6666.55 5.6515e-17
6668.075 6.5591e-17
6669.6 7.0427e-17
6671.125 7.1518e-17
6672.65 7.2012e-17
6674.175 7.0974e-17
6675.7 6.1255e-17
6677.225 5.5344e-17
6678.75 6.253e-17
6680.275 5.6089e-17
6681.8 5.3321e-17
6683.325 5.4793e-17
6684.85 5.2474e-17
6686.375 5.4155e-17
6687.9 5.0366e-17
6689.425 5.202e-17
6690.95 6.0501e-17
6692.475 5.698e-17
6694.0 5.7436e-17
6695.525 5.4935e-17
6697.05 5.2039e-17
6698.575 5.7785e-17
6700.1 5.6835e-17
6701.625 5.302e-17
6703.15 4.793e-17
6704.675 5.779e-17
6706.2 4.6894e-17
6707.725 4.4524e-17
6709.25 5.0242e-17
6710.775 5.0054e-17
6712.3 5.46e-17
6713.825 5.8573e-17
6715.35 5.1756e-17
6716.875 5.2071e-17
6718.4 5.7257e-17
6719.925 5.4943e-17
6721.45 5.1531e-17
6722.975 4.7316e-17
6724.5 4.5136e-17
6726.025 4.7035e-17
6727.55 5.4919e-17
6729.075 5.6445e-17
6730.6 5.6959e-17
6732.125 6.6806e-17
6733.65 8.5346e-17
6735.175 1.0168e-16
6736.7 9.7188e-17
6738.225 8.2879e-17
6739.75 7.3896e-17
6741.275 6.121e-17
6742.8 5.0551e-17
6744.325 5.322e-17
6745.85 5.7601e-17
6747.375 5.2308e-17
6748.9 5.1911e-17
6750.425 5.4235e-17
6751.95 4.8293e-17
6753.475 4.9773e-17
6755.0 5.3561e-17
6756.525 5.5263e-17
6758.05 5.3823e-17
6759.575 4.8721e-17
6761.1 4.9372e-17
6762.625 4.7063e-17
6764.15 4.5572e-17
6765.675 4.9605e-17
6767.2 5.5915e-17
6768.725 6.2544e-17
6770.25 5.9362e-17
6771.775 5.4666e-17
6773.3 5.4606e-17
6774.825 5.3057e-17
6776.35 5.5794e-17
6777.875 6.0865e-17
6779.4 5.6547e-17
6780.925 5.5666e-17
6782.45 5.7714e-17
6783.975 5.7198e-17
6785.5 5.4278e-17
6787.025 4.9712e-17
6788.55 5.6349e-17
6790.075 5.9705e-17
6791.6 5.5573e-17
6793.125 5.1226e-17
6794.65 5.1061e-17
6796.175 5.2175e-17
6797.7 5.1344e-17
6799.225 5.4329e-17
6800.75 5.4687e-17
6802.275 5.0228e-17
6803.8 4.9487e-17
6805.325 5.5755e-17
6806.85 6.1093e-17
6808.375 5.4953e-17
6809.9 5.45e-17
6811.425 5.6802e-17
6812.95 5.067e-17
6814.475 4.9543e-17
6816.0 5.3672e-17
6817.525 5.4463e-17
6819.05 5.8478e-17
6820.575 5.2309e-17
6822.1 4.398e-17
6823.625 4.987e-17
6825.15 5.6493e-17
6826.675 6.7241e-17
6828.2 6.7601e-17
6829.725 6.4811e-17
6831.25 6.2339e-17
6832.775 6.0913e-17
6834.3 6.1668e-17
6835.825 4.8894e-17
6837.35 4.8451e-17
6838.875 5.4689e-17
6840.4 5.4229e-17
6841.925 5.1962e-17
6843.45 5.6901e-17
6844.975 5.7176e-17
6846.5 5.0981e-17
6848.025 5.3079e-17
6849.55 5.9673e-17
6851.075 6.0389e-17
6852.6 5.3634e-17
6854.125 5.9891e-17
6855.65 6.0128e-17
6857.175 4.9023e-17
6858.7 5.1027e-17
6860.225 5.0978e-17
6861.75 4.7743e-17
6863.275 4.9613e-17
6864.8 5.6579e-17
6866.325 5.9003e-17
6867.85 6.0822e-17
6869.375 6.0759e-17
6870.9 5.8018e-17
6872.425 5.9781e-17
6873.95 5.3497e-17
6875.475 5.2416e-17
6877.0 5.5042e-17
6878.525 5.9452e-17
6880.05 6.4093e-17
6881.575 5.1862e-17
6883.1 4.1388e-17
6884.625 4.6647e-17
6886.15 5.5904e-17
6887.675 6.0212e-17
6889.2 5.1995e-17
6890.725 5.776e-17
6892.25 5.6681e-17
6893.775 4.9612e-17
6895.3 5.2592e-17
6896.825 5.3508e-17
6898.35 5.0227e-17
6899.875 5.378e-17
6901.4 5.9947e-17
6902.925 5.4992e-17
6904.45 5.802e-17
6905.975 6.0513e-17
6907.5 5.4683e-17
6909.025 5.2454e-17
6910.55 4.825e-17
6912.075 4.4761e-17
6913.6 4.9035e-17
6915.125 5.7561e-17
6916.65 4.9228e-17
6918.175 5.2234e-17
6919.7 5.6541e-17
6921.225 5.9052e-17
6922.75 6.2308e-17
6924.275 5.1983e-17
6925.8 4.9893e-17
6927.325 5.0188e-17
6928.85 5.4954e-17
6930.375 5.3839e-17
6931.9 5.4789e-17
6933.425 5.0722e-17
6934.95 5.1245e-17
6936.475 5.015e-17
6938.0 5.0583e-17
6939.525 5.5317e-17
6941.05 5.5869e-17
6942.575 5.5316e-17
6944.1 5.7995e-17
6945.625 5.6081e-17
6947.15 5.7028e-17
6948.675 5.6565e-17
6950.2 5.5537e-17
6951.725 5.6118e-17
6953.25 5.552e-17
6954.775 5.9277e-17
6956.3 5.9891e-17
6957.825 5.7916e-17
6959.35 5.7093e-17
6960.875 5.6441e-17
6962.4 5.1942e-17
6963.925 5.1791e-17
6965.45 5.4777e-17
6966.975 5.3004e-17
6968.5 5.3764e-17
6970.025 4.9857e-17
6971.55 4.9586e-17
6973.075 5.6055e-17
6974.6 5.7439e-17
6976.125 5.3352e-17
6977.65 4.5609e-17
6979.175 3.7518e-17
6980.7 4.491e-17
6982.225 5.2182e-17
6983.75 4.8249e-17
6985.275 5.1049e-17
6986.8 5.2818e-17
6988.325 5.0853e-17
6989.85 5.3011e-17
6991.375 5.7769e-17
6992.9 5.7411e-17
6994.425 5.2391e-17
6995.95 5.106e-17
6997.475 4.6127e-17
6999.0 4.5291e-17
7000.525 5.1603e-17
7002.05 5.2891e-17
7003.575 5.1922e-17
7005.1 4.9498e-17
7006.625 5.1747e-17
7008.15 5.6837e-17
7009.675 5.6258e-17
7011.2 5.2992e-17
7012.725 5.2865e-17
7014.25 5.4965e-17
7015.775 5.0846e-17
7017.3 4.5037e-17
7018.825 4.3142e-17
7020.35 4.7075e-17
7021.875 5.0563e-17
7023.4 4.8488e-17
7024.925 5.2293e-17
7026.45 5.8268e-17
7027.975 4.8773e-17
7029.5 4.2243e-17
7031.025 4.7558e-17
7032.55 5.3022e-17
7034.075 5.5562e-17
7035.6 5.2077e-17
7037.125 4.9359e-17
7038.65 5.5137e-17
7040.175 5.4944e-17
7041.7 5.1513e-17
7043.225 5.2562e-17
7044.75 5.2787e-17
7046.275 5.2832e-17
7047.8 4.8457e-17
7049.325 4.8789e-17
7050.85 4.6834e-17
7052.375 4.7769e-17
7053.9 4.9864e-17
7055.425 5.2167e-17
7056.95 4.4061e-17
7058.475 4.4413e-17
7060.0 4.9589e-17
7061.525 4.7133e-17
7063.05 4.938e-17
7064.575 5.2289e-17
7066.1 5.4007e-17
7067.625 4.8886e-17
7069.15 5.5051e-17
7070.675 4.4654e-17
7072.2 4.6866e-17
7073.725 4.8352e-17
7075.25 5.192e-17
7076.775 5.3357e-17
7078.3 5.0316e-17
7079.825 4.5717e-17
7081.35 4.8598e-17
7082.875 5.1315e-17
7084.4 4.5963e-17
7085.925 3.8528e-17
7087.45 4.8222e-17
7088.975 5.0125e-17
7090.5 4.5474e-17
7092.025 4.9225e-17
7093.55 5.1016e-17
7095.075 5.3127e-17
7096.6 4.8e-17
7098.125 4.1983e-17
7099.65 5.1221e-17
7101.175 4.5369e-17
7102.7 4.7123e-17
7104.225 5.1994e-17
7105.75 4.764e-17
7107.275 4.3319e-17
7108.8 4.9981e-17
7110.325 5.1098e-17
7111.85 5.0773e-17
7113.375 5.1909e-17
7114.9 5.0639e-17
7116.425 4.5792e-17
7117.95 5.1286e-17
7119.475 5.261e-17
7121.0 5.0024e-17
7122.525 5.3519e-17
7124.05 4.9318e-17
7125.575 4.56e-17
7127.1 4.6051e-17
7128.625 5.4478e-17
7130.15 5.2994e-17
7131.675 4.5368e-17
7133.2 4.5661e-17
7134.725 5.224e-17
7136.25 5.4622e-17
7137.775 4.98e-17
7139.3 4.4021e-17
7140.825 4.2808e-17
7142.35 4.549e-17
7143.875 4.7533e-17
7145.4 4.7936e-17
7146.925 4.8755e-17
7148.45 4.9619e-17
7149.975 5.0072e-17
7151.5 4.6046e-17
7153.025 4.4954e-17
7154.55 4.2787e-17
7156.075 4.2809e-17
7157.6 4.6325e-17
7159.125 5.8449e-17
7160.65 5.51e-17
7162.175 4.6198e-17
7163.7 4.2933e-17
7165.225 4.3508e-17
7166.75 4.4007e-17
7168.275 4.6444e-17
7169.8 4.759e-17
7171.325 4.6704e-17
7172.85 4.9348e-17
7174.375 5.5756e-17
7175.9 5.5555e-17
7177.425 4.8158e-17
7178.95 4.977e-17
7180.475 5.4297e-17
7182.0 4.8445e-17
7183.525 4.2311e-17
7185.05 4.3724e-17
7186.575 5.369e-17
7188.1 5.6481e-17
7189.625 5.1371e-17
7191.15 5.3898e-17
7192.675 5.295e-17
7194.2 4.4697e-17
7195.725 4.8029e-17
7197.25 5.3495e-17
7198.775 5.0734e-17
7200.3 5.1264e-17
7201.825 5.171e-17
7203.35 5.5197e-17
7204.875 5.0372e-17
7206.4 4.3729e-17
7207.925 4.9195e-17
7209.45 4.9834e-17
7210.975 4.8303e-17
7212.5 4.7376e-17
7214.025 4.4786e-17
7215.55 4.6475e-17
7217.075 5.2519e-17
7218.6 5.3341e-17
7220.125 4.8397e-17
7221.65 4.5772e-17
7223.175 4.7063e-17
7224.7 5.4385e-17
7226.225 4.9474e-17
7227.75 4.6538e-17
7229.275 5.0444e-17
7230.8 4.3794e-17
7232.325 4.9383e-17
7233.85 5.7422e-17
7235.375 5.9789e-17
7236.9 5.5888e-17
7238.425 4.3232e-17
7239.95 5.6158e-17
7241.475 6.7953e-17
7243.0 4.7469e-17
7244.525 4.4126e-17
7246.05 5.4668e-17
7247.575 4.7538e-17
7249.1 4.0881e-17
7250.625 4.7166e-17
7252.15 4.1152e-17
7253.675 4.0689e-17
7255.2 4.9131e-17
7256.725 5.5627e-17
7258.25 5.0102e-17
7259.775 4.4807e-17
7261.3 4.0783e-17
7262.825 4.4888e-17
7264.35 5.1804e-17
7265.875 4.8999e-17
7267.4 4.6604e-17
7268.925 4.9375e-17
7270.45 4.9589e-17
7271.975 5.3234e-17
7273.5 4.4619e-17
7275.025 4.446e-17
7276.55 5.2889e-17
7278.075 5.7473e-17
7279.6 4.9902e-17
7281.125 4.2036e-17
7282.65 3.9946e-17
7284.175 4.8661e-17
7285.7 4.7576e-17
7287.225 4.2714e-17
7288.75 3.9123e-17
7290.275 4.4707e-17
7291.8 4.3701e-17
7293.325 4.2045e-17
7294.85 4.4261e-17
7296.375 4.3696e-17
7297.9 4.2964e-17
7299.425 4.6625e-17
7300.95 4.788e-17
7302.475 4.1511e-17
7304.0 4.2318e-17
7305.525 4.5332e-17
7307.05 4.1428e-17
7308.575 4.3695e-17
7310.1 4.261e-17
7311.625 3.9594e-17
7313.15 4.8804e-17
7314.675 5.1711e-17
7316.2 4.8326e-17
7317.725 5.0821e-17
7319.25 4.5315e-17
7320.775 4.1844e-17
7322.3 4.5755e-17
7323.825 4.7511e-17
7325.35 3.9247e-17
7326.875 3.7595e-17
7328.4 4.6694e-17
7329.925 4.492e-17
7331.45 3.9593e-17
7332.975 4.0217e-17
7334.5 4.0217e-17
7336.025 4.7355e-17
7337.55 4.6282e-17
7339.075 4.696e-17
7340.6 5.7713e-17
7342.125 4.9001e-17
7343.65 3.6248e-17
7345.175 3.9811e-17
7346.7 4.4774e-17
7348.225 4.6634e-17
7349.75 4.6679e-17
7351.275 4.3946e-17
7352.8 3.9507e-17
7354.325 4.3883e-17
7355.85 4.9547e-17
7357.375 4.599e-17
7358.9 4.5183e-17
7360.425 4.319e-17
7361.95 3.8229e-17
7363.475 3.7441e-17
7365.0 4.2595e-17
7366.525 4.5023e-17
7368.05 4.1039e-17
7369.575 4.4115e-17
7371.1 4.5898e-17
7372.625 4.5106e-17
7374.15 4.1884e-17
7375.675 3.486e-17
7377.2 3.3639e-17
7378.725 3.7617e-17
7380.25 4.3273e-17
7381.775 4.1262e-17
7383.3 4.0716e-17
7384.825 4.3206e-17
7386.35 4.1989e-17
7387.875 3.8681e-17
7389.4 3.8155e-17
7390.925 4.1906e-17
7392.45 3.9149e-17
7393.975 3.6579e-17
7395.5 3.8627e-17
7397.025 3.8779e-17
7398.55 4.1657e-17
7400.075 4.5914e-17
7401.6 4.3399e-17
7403.125 3.8969e-17
7404.65 3.423e-17
7406.175 3.4387e-17
7407.7 3.882e-17
7409.225 4.2362e-17
7410.75 4.0063e-17
7412.275 3.6521e-17
7413.8 3.8039e-17
7415.325 4.2863e-17
7416.85 4.2707e-17
7418.375 3.7974e-17
7419.9 4.018e-17
7421.425 4.3145e-17
7422.95 4.3271e-17
7424.475 4.7524e-17
7426.0 4.6939e-17
7427.525 3.9582e-17
7429.05 4.039e-17
7430.575 4.1265e-17
7432.1 3.7707e-17
7433.625 3.7696e-17
7435.15 3.3519e-17
7436.675 3.9156e-17
7438.2 3.9365e-17
7439.725 4.2371e-17
7441.25 3.8883e-17
7442.775 3.5961e-17
7444.3 3.6815e-17
7445.825 3.6531e-17
7447.35 3.991e-17
7448.875 3.9432e-17
7450.4 3.6339e-17
7451.925 4e-17
7453.45 4.5629e-17
7454.975 5.0232e-17
7456.5 4.6896e-17
7458.025 4.1771e-17
7459.55 4.3409e-17
7461.075 4.1344e-17
7462.6 3.6359e-17
7464.125 3.7637e-17
7465.65 4.2338e-17
7467.175 4.2873e-17
7468.7 4.113e-17
7470.225 4.0156e-17
7471.75 4.3169e-17
7473.275 3.8952e-17
7474.8 4.0079e-17
7476.325 4.4869e-17
7477.85 4.4439e-17
7479.375 4.8363e-17
7480.9 3.866e-17
7482.425 3.8492e-17
7483.95 4.1586e-17
7485.475 3.8659e-17
7487.0 3.9846e-17
7488.525 3.8991e-17
7490.05 4.111e-17
7491.575 4.2351e-17
7493.1 4.328e-17
7494.625 4.0363e-17
7496.15 3.9245e-17
7497.675 4.1651e-17
7499.2 4.025e-17
7500.725 4.0944e-17
7502.25 3.9525e-17
7503.775 3.6131e-17
7505.3 3.7372e-17
7506.825 3.6302e-17
7508.35 3.9445e-17
7509.875 4.3698e-17
7511.4 3.8695e-17
7512.925 3.5406e-17
7514.45 3.6905e-17
7515.975 3.9661e-17
7517.5 4.1556e-17
7519.025 4.1805e-17
7520.55 4.0593e-17
7522.075 3.8797e-17
7523.6 3.9386e-17
7525.125 3.8683e-17
7526.65 3.5555e-17
7528.175 3.4765e-17
7529.7 3.7879e-17
7531.225 3.8267e-17
7532.75 3.6633e-17
7534.275 3.916e-17
7535.8 3.9582e-17
7537.325 3.586e-17
7538.85 3.5988e-17
7540.375 3.8791e-17
7541.9 4.1837e-17
7543.425 4.3362e-17
7544.95 4.4733e-17
7546.475 4.2601e-17
7548.0 4.0383e-17
7549.525 3.8878e-17
7551.05 3.8454e-17
7552.575 4.2985e-17
7554.1 4.4662e-17
7555.625 4.4406e-17
7557.15 4.2698e-17
7558.675 3.808e-17
7560.2 4.1063e-17
7561.725 4.3508e-17
7563.25 3.9933e-17
7564.775 4.0091e-17
7566.3 3.9914e-17
7567.825 4.6915e-17
7569.35 5.119e-17
7570.875 5.5865e-17
7572.4 5.2898e-17
7573.925 4.3247e-17
7575.45 4.0326e-17
7576.975 3.6253e-17
7578.5 3.6453e-17
7580.025 3.8846e-17
7581.55 3.8022e-17
7583.075 3.9646e-17
7584.6 4.3483e-17
7586.125 4.3455e-17
7587.65 4.151e-17
7589.175 3.9814e-17
7590.7 3.5478e-17
7592.225 3.0776e-17
7593.75 4.3597e-17
7595.275 5.4214e-17
7596.8 4.2435e-17
7598.325 3.216e-17
7599.85 2.461e-17
7601.375 4.8328e-17
7602.9 3.3519e-17
7604.425 4.2084e-17
7605.95 4.6336e-17
7607.475 3.378e-17
7609.0 3.6546e-17
7610.525 3.3735e-17
7612.05 3.3181e-17
7613.575 4.0861e-17
7615.1 4.4641e-17
7616.625 4.7313e-17
7618.15 3.5437e-17
7619.675 3.6656e-17
7621.2 4.4273e-17
7622.725 4.4468e-17
7624.25 4.0217e-17
7625.775 3.4203e-17
7627.3 3.7495e-17
7628.825 5.6036e-17
7630.35 4.7682e-17
7631.875 4.0474e-17
7633.4 3.9426e-17
7634.925 4.4863e-17
7636.45 4.1328e-17
7637.975 4.4536e-17
7639.5 4.7393e-17
7641.025 3.4932e-17
7642.55 4.1257e-17
7644.075 5.0957e-17
7645.6 4.3259e-17
7647.125 3.4821e-17
7648.65 4.1873e-17
7650.175 4.1214e-17
7651.7 4.6799e-17
7653.225 5.356e-17
7654.75 3.8199e-17
7656.275 3.7337e-17
7657.8 4.7383e-17
7659.325 4.6337e-17
7660.85 4.1508e-17
7662.375 4.0028e-17
7663.9 3.945e-17
7665.425 3.9796e-17
7666.95 4.4432e-17
7668.475 4.6947e-17
7670.0 4.2002e-17
7671.525 4.2205e-17
7673.05 4.4413e-17
7674.575 3.7852e-17
7676.1 4.1169e-17
7677.625 4.7487e-17
7679.15 4.0923e-17
7680.675 4.4778e-17
7682.2 4.5709e-17
7683.725 4.0957e-17
7685.25 3.6482e-17
7686.775 3.7161e-17
7688.3 4.4446e-17
7689.825 4.4884e-17
7691.35 3.6173e-17
7692.875 3.3849e-17
7694.4 3.5394e-17
7695.925 4.4007e-17
7697.45 4.5977e-17
7698.975 3.9479e-17
7700.5 3.9164e-17
7702.025 3.7419e-17
7703.55 3.9674e-17
7705.075 3.7493e-17
7706.6 3.7194e-17
7708.125 4.4662e-17
7709.65 4.8025e-17
7711.175 5.0393e-17
7712.7 4.3513e-17
7714.225 2.9093e-17
7715.75 3.3297e-17
7717.275 4.004e-17
7718.8 3.8583e-17
7720.325 3.649e-17
7721.85 4.0881e-17
7723.375 4.0325e-17
7724.9 4.3541e-17
7726.425 4.4252e-17
7727.95 4.2143e-17
7729.475 4.3568e-17
7731.0 4.3955e-17
7732.525 4.467e-17
7734.05 4.0757e-17
7735.575 4.3175e-17
7737.1 4.5268e-17
7738.625 4.1492e-17
7740.15 4.568e-17
7741.675 4.1679e-17
7743.2 3.0798e-17
7744.725 3.074e-17
7746.25 4.7977e-17
7747.775 3.9212e-17
7749.3 3.3679e-17
7750.825 4.5229e-17
7752.35 4.7261e-17
7753.875 3.5862e-17
7755.4 3.4885e-17
7756.925 3.9098e-17
7758.45 3.5895e-17
7759.975 4.0056e-17
7761.5 3.8932e-17
7763.025 3.5687e-17
7764.55 4.0229e-17
7766.075 4.1174e-17
7767.6 3.8829e-17
7769.125 3.4535e-17
7770.65 3.6623e-17
7772.175 3.9598e-17
7773.7 3.6521e-17
7775.225 3.984e-17
7776.75 4.5715e-17
7778.275 4.9898e-17
7779.8 4.8468e-17
7781.325 3.9955e-17
7782.85 3.9431e-17
7784.375 3.9467e-17
7785.9 3.8726e-17
7787.425 4.1579e-17
7788.95 4.243e-17
7790.475 4.4032e-17
7792.0 4.0426e-17
7793.525 3.7554e-17
7795.05 3.5612e-17
7796.575 3.2102e-17
7798.1 3.3823e-17
7799.625 3.7866e-17
7801.15 3.8674e-17
7802.675 3.6022e-17
7804.2 3.8804e-17
7805.725 4.1301e-17
7807.25 3.8113e-17
7808.775 2.9779e-17
7810.3 3.3741e-17
7811.825 3.5848e-17
7813.35 3.1254e-17
7814.875 3.3901e-17
7816.4 3.5221e-17
7817.925 2.8494e-17
7819.45 3.4698e-17
7820.975 4.2721e-17
7822.5 4.8902e-17
7824.025 4.0756e-17
7825.55 3.2349e-17
7827.075 3.7585e-17
7828.6 3.6772e-17
7830.125 3.9269e-17
7831.65 3.8911e-17
7833.175 3.7361e-17
7834.7 3.6296e-17
7836.225 3.4975e-17
7837.75 3.6508e-17
7839.275 3.5208e-17
7840.8 3.895e-17
7842.325 4.1746e-17
7843.85 4.1511e-17
7845.375 3.5255e-17
7846.9 2.8688e-17
7848.425 4.0406e-17
7849.95 4.6469e-17
7851.475 4.6613e-17
7853.0 4.5534e-17
7854.525 3.4895e-17
7856.05 3.5744e-17
7857.575 3.4892e-17
7859.1 3.6544e-17
7860.625 4.0159e-17
7862.15 4.2768e-17
7863.675 4.3712e-17
7865.2 3.8494e-17
7866.725 3.567e-17
7868.25 4.1924e-17
7869.775 4.092e-17
7871.3 3.3554e-17
7872.825 3.3418e-17
7874.35 3.1774e-17
7875.875 3.7851e-17
7877.4 4.155e-17
7878.925 4.2205e-17
7880.45 3.4848e-17
7881.975 3.061e-17
7883.5 3.2551e-17
7885.025 4.1552e-17
7886.55 4.8404e-17
7888.075 4.0539e-17
7889.6 3.5745e-17
7891.125 3.292e-17
7892.65 3.0762e-17
7894.175 3.2049e-17
7895.7 3.0408e-17
7897.225 3.181e-17
7898.75 3.4249e-17
7900.275 3.3209e-17
7901.8 3.3555e-17
7903.325 3.7719e-17
7904.85 4.1321e-17
7906.375 3.7369e-17
7907.9 2.6476e-17
7909.425 2.9734e-17
7910.95 2.5152e-17
7912.475 2.8401e-17
7914.0 3.1605e-17
7915.525 2.4628e-17
7917.05 3.8957e-17
7918.575 4.7902e-17
7920.1 4.0212e-17
7921.625 3.2076e-17
7923.15 3.723e-17
7924.675 4.5287e-17
7926.2 3.805e-17
7927.725 3.8783e-17
7929.25 4.0629e-17
7930.775 3.4555e-17
7932.3 2.6893e-17
7933.825 1.9429e-17
7935.35 2.4643e-17
7936.875 2.9445e-17
7938.4 3.3317e-17
7939.925 3.5826e-17
7941.45 3.6621e-17
7942.975 3.4661e-17
7944.5 3.6784e-17
7946.025 3.9855e-17
7947.55 4.2769e-17
7949.075 4.4643e-17
7950.6 3.8412e-17
7952.125 3.1448e-17
7953.65 3.3808e-17
7955.175 3.9063e-17
7956.7 3.4448e-17
7958.225 3.4607e-17
7959.75 3.9545e-17
7961.275 4.3675e-17
7962.8 3.9189e-17
7964.325 4.6235e-17
7965.85 3.9434e-17
7967.375 3.2108e-17
7968.9 3.9693e-17
7970.425 3.7723e-17
7971.95 3.5392e-17
7973.475 4.1333e-17
7975.0 3.8503e-17
7976.525 3.2435e-17
7978.05 3.8079e-17
7979.575 3.0509e-17
7981.1 3.4446e-17
7982.625 3.4344e-17
7984.15 3.0354e-17
7985.675 3.8481e-17
7987.2 3.6722e-17
7988.725 3.9909e-17
7990.25 3.71e-17
7991.775 4.7881e-17
7993.3 4.1758e-17
7994.825 2.8335e-17
7996.35 2.9846e-17
7997.875 3.5667e-17
7999.4 3.9958e-17
8000.925 4.0496e-17
8002.45 3.7211e-17
8003.975 3.5757e-17
8005.5 3.8175e-17
8007.025 3.3976e-17
8008.55 3.2299e-17
8010.075 3.4332e-17
8011.6 3.2929e-17
8013.125 3.7547e-17
8014.65 4.016e-17
8016.175 3.7906e-17
8017.7 3.3909e-17
8019.225 2.4033e-17
8020.75 2.5523e-17
8022.275 4.3949e-17
8023.8 4.3342e-17
8025.325 3.7553e-17
8026.85 3.9336e-17
8028.375 4.2076e-17
8029.9 3.8457e-17
8031.425 3.2445e-17
8032.95 3.109e-17
8034.475 3.1345e-17
8036.0 3.0428e-17
8037.525 3.7364e-17
8039.05 4.0107e-17
8040.575 3.6141e-17
8042.1 3.1302e-17
8043.625 3.1213e-17
8045.15 3.2173e-17
8046.675 2.9889e-17
8048.2 2.9785e-17
8049.725 2.9633e-17
8051.25 3.5864e-17
8052.775 3.945e-17
8054.3 3.9042e-17
8055.825 3.7472e-17
8057.35 3.4738e-17
8058.875 3.9523e-17
8060.4 4.146e-17
8061.925 4.0224e-17
8063.45 3.5873e-17
8064.975 3.2839e-17
8066.5 3.1881e-17
8068.025 3.3198e-17
8069.55 3.8577e-17
8071.075 4.0325e-17
8072.6 3.4129e-17
8074.125 2.8917e-17
8075.65 3.1919e-17
8077.175 3.3664e-17
8078.7 3.1385e-17
8080.225 3.2873e-17
8081.75 3.4779e-17
8083.275 2.9622e-17
8084.8 2.7881e-17
8086.325 3.1261e-17
8087.85 3.5494e-17
8089.375 3.1696e-17
8090.9 3.0193e-17
8092.425 3.2293e-17
8093.95 3.0092e-17
8095.475 2.9891e-17
8097.0 3.2059e-17
8098.525 3.283e-17
8100.05 3.9571e-17
8101.575 3.8186e-17
8103.1 3.3989e-17
8104.625 3.342e-17
8106.15 3.2581e-17
8107.675 2.8235e-17
8109.2 3.4281e-17
8110.725 3.9343e-17
8112.25 3.6494e-17
8113.775 3.3555e-17
8115.3 3.0914e-17
8116.825 2.9902e-17
8118.35 3.0653e-17
8119.875 2.5988e-17
8121.4 2.6921e-17
8122.925 2.8496e-17
8124.45 2.9811e-17
8125.975 3.1306e-17
8127.5 3.3845e-17
8129.025 2.8189e-17
8130.55 3.091e-17
8132.075 3.4366e-17
8133.6 3.2641e-17
8135.125 3.2637e-17
8136.65 2.9452e-17
8138.175 2.9569e-17
8139.7 3.7196e-17
8141.225 3.6916e-17
8142.75 2.9493e-17
8144.275 2.9891e-17
8145.8 3.2565e-17
8147.325 3.4721e-17
8148.85 3.2289e-17
8150.375 2.4847e-17
8151.9 2.2696e-17
8153.425 2.832e-17
8154.95 3.3801e-17
8156.475 3.6333e-17
8158.0 3.3728e-17
8159.525 3.2344e-17
8161.05 3.4933e-17
8162.575 3.6306e-17
8164.1 4.2117e-17
8165.625 3.6555e-17
8167.15 2.8721e-17
8168.675 3.1675e-17
8170.2 3.302e-17
8171.725 2.8831e-17
8173.25 2.3284e-17
8174.775 2.9435e-17
8176.3 3.5977e-17
8177.825 3.3731e-17
8179.35 3.4362e-17
8180.875 3.35e-17
8182.4 3.0911e-17
8183.925 3.2013e-17
8185.45 3.6167e-17
8186.975 3.1991e-17
8188.5 2.7256e-17
8190.025 2.9271e-17
8191.55 2.6571e-17
8193.075 2.4307e-17
8194.6 2.2542e-17
8196.125 2.9778e-17
8197.65 3.0196e-17
8199.175 2.7731e-17
8200.7 2.6226e-17
8202.225 2.6182e-17
8203.75 2.8281e-17
8205.275 2.8314e-17
8206.8 2.9874e-17
8208.325 2.9504e-17
8209.85 2.6309e-17
8211.375 3.4462e-17
8212.9 3.3252e-17
8214.425 3.1959e-17
8215.95 3.3092e-17
8217.475 3.7941e-17
8219.0 3.3422e-17
8220.525 2.5279e-17
8222.05 2.6971e-17
8223.575 2.389e-17
8225.1 1.8855e-17
8226.625 2.1551e-17
8228.15 2.6333e-17
8229.675 2.326e-17
8231.2 2.2123e-17
8232.725 2.6103e-17
8234.25 3.3014e-17
8235.775 2.8617e-17
8237.3 2.957e-17
8238.825 3.2191e-17
8240.35 3.129e-17
8241.875 2.9773e-17
8243.4 3.3791e-17
8244.925 3.4094e-17
8246.45 3.7329e-17
8247.975 3.3393e-17
8249.5 2.9938e-17
8251.025 3.2183e-17
8252.55 3.3739e-17
8254.075 3.0495e-17
8255.6 2.75e-17
8257.125 2.8918e-17
8258.65 2.9621e-17
8260.175 3.139e-17
8261.7 3.2616e-17
8263.225 3.1272e-17
8264.75 2.9002e-17
8266.275 2.9715e-17
8267.8 2.9511e-17
8269.325 2.6741e-17
8270.85 2.8665e-17
8272.375 3.2207e-17
8273.9 3.8273e-17
8275.425 2.6855e-17
8276.95 2.0796e-17
8278.475 3.3844e-17
8280.0 3.9201e-17
8281.525 3.4767e-17
8283.05 2.3747e-17
8284.575 2.1089e-17
8286.1 2.5095e-17
8287.625 2.8905e-17
8289.15 3.1621e-17
8290.675 2.846e-17
8292.2 2.2687e-17
8293.725 2.4639e-17
8295.25 3.3584e-17
8296.775 2.5266e-17
8298.3 2.3335e-17
8299.825 2.8572e-17
8301.35 2.2653e-17
8302.875 2.0865e-17
8304.4 2.1876e-17
8305.925 2.396e-17
8307.45 2.4408e-17
8308.975 2.7845e-17
8310.5 3.2851e-17
8312.025 3.4462e-17
8313.55 2.5975e-17
8315.075 2.7417e-17
8316.6 2.7879e-17
8318.125 2.9163e-17
8319.65 3.3934e-17
8321.175 3.3726e-17
8322.7 3.2354e-17
8324.225 2.9493e-17
8325.75 2.5364e-17
8327.275 2.416e-17
8328.8 2.6508e-17
8330.325 2.6901e-17
8331.85 2.306e-17
8333.375 2.5508e-17
8334.9 2.5863e-17
8336.425 2.7335e-17
8337.95 2.6057e-17
8339.475 2.896e-17
8341.0 3.723e-17
8342.525 3.2482e-17
8344.05 2.4253e-17
8345.575 2.1487e-17
8347.1 1.4463e-17
8348.625 2.1922e-17
8350.15 4.0377e-17
8351.675 3.0939e-17
8353.2 2.8474e-17
8354.725 2.5505e-17
8356.25 2.5558e-17
8357.775 2.5847e-17
8359.3 2.748e-17
8360.825 3.061e-17
8362.35 3.2693e-17
8363.875 3.2647e-17
8365.4 2.5133e-17
8366.925 1.992e-17
8368.45 2.2255e-17
8369.975 2.9408e-17
8371.5 3.2764e-17
8373.025 2.9384e-17
8374.55 2.8464e-17
8376.075 2.8714e-17
8377.6 2.9383e-17
8379.125 3.0805e-17
8380.65 2.7915e-17
8382.175 2.5333e-17
8383.7 2.3245e-17
8385.225 2.4236e-17
8386.75 2.7251e-17
8388.275 2.8978e-17
8389.8 2.8021e-17
8391.325 2.4668e-17
8392.85 2.2529e-17
8394.375 3.1604e-17
8395.9 3.8562e-17
8397.425 4.8468e-17
8398.95 5.1633e-17
8400.475 2.2232e-17
8402.0 1.3033e-17
8403.525 2.9131e-17
8405.05 2.9079e-17
8406.575 2.4509e-17
8408.1 2.3884e-17
8409.625 2.788e-17
8411.15 3.6702e-17
8412.675 4.2115e-17
8414.2 3.6608e-17
8415.725 2.819e-17
8417.25 2.1129e-17
8418.775 2.4529e-17
8420.3 2.898e-17
8421.825 2.3932e-17
8423.35 2.1437e-17
8424.875 2.0614e-17
8426.4 2.4969e-17
8427.925 2.8101e-17
8429.45 2.4792e-17
8430.975 2.9389e-17
8432.5 1.9157e-17
8434.025 2.3104e-17
8435.55 2.521e-17
8437.075 2.6955e-17
8438.6 2.8807e-17
8440.125 2.9194e-17
8441.65 2.7642e-17
8443.175 2.8024e-17
8444.7 3.0562e-17
8446.225 3.0408e-17
8447.75 3.2557e-17
8449.275 2.5731e-17
8450.8 2.7132e-17
8452.325 2.8273e-17
8453.85 2.8491e-17
8455.375 2.0885e-17
8456.9 2.2266e-17
8458.425 2.8646e-17
8459.95 3.1478e-17
8461.475 3.379e-17
8463.0 3.1162e-17
8464.525 3.4559e-17
8466.05 4.0244e-17
8467.575 2.8067e-17
8469.1 2.5769e-17
8470.625 2.8057e-17
8472.15 2.9287e-17
8473.675 2.8379e-17
8475.2 2.7453e-17
8476.725 2.8582e-17
8478.25 2.8148e-17
8479.775 2.6448e-17
8481.3 2.9415e-17
8482.825 3.0506e-17
8484.35 3.2984e-17
8485.875 3.7721e-17
8487.4 3.1256e-17
8488.925 3.3903e-17
8490.45 3.4122e-17
8491.975 2.4957e-17
8493.5 2.3029e-17
8495.025 2.7715e-17
8496.55 3.1475e-17
8498.075 2.9063e-17
8499.6 3.5067e-17
8501.125 3.685e-17
8502.65 3.3409e-17
8504.175 3.7465e-17
8505.7 3.2181e-17
8507.225 2.5717e-17
8508.75 2.4227e-17
8510.275 2.1686e-17
8511.8 2.4169e-17
8513.325 2.9083e-17
8514.85 2.7076e-17
8516.375 2.7879e-17
8517.9 3.2365e-17
8519.425 2.9821e-17
8520.95 3.2786e-17
8522.475 3.2616e-17
8524.0 2.989e-17
8525.525 3.2032e-17
8527.05 2.7698e-17
8528.575 2.7592e-17
8530.1 2.5711e-17
8531.625 2.7094e-17
8533.15 3.4945e-17
8534.675 3.2694e-17
8536.2 2.9873e-17
8537.725 3.4529e-17
8539.25 3.3564e-17
8540.775 3.1199e-17
8542.3 2.6809e-17
8543.825 2.8588e-17
8545.35 3.5938e-17
8546.875 3.1995e-17
8548.4 2.9212e-17
8549.925 3.1909e-17
8551.45 2.4873e-17
8552.975 2.3792e-17
8554.5 2.9851e-17
8556.025 3.0797e-17
8557.55 2.4861e-17
8559.075 2.469e-17
8560.6 2.4366e-17
8562.125 2.8152e-17
8563.65 2.9858e-17
8565.175 3.3268e-17
8566.7 3.0713e-17
8568.225 3.2641e-17
8569.75 3.2455e-17
8571.275 2.9907e-17
8572.8 3.0449e-17
8574.325 3.1611e-17
8575.85 2.9932e-17
8577.375 3.7219e-17
8578.9 3.7515e-17
8580.425 2.7836e-17
8581.95 2.777e-17
8583.475 2.6819e-17
8585.0 3.0032e-17
8586.525 3.0813e-17
8588.05 2.5573e-17
8589.575 2.2008e-17
8591.1 2.6263e-17
8592.625 3.2255e-17
8594.15 3.1269e-17
8595.675 2.7263e-17
8597.2 3.1363e-17
8598.725 3.8569e-17
8600.25 3.439e-17
8601.775 3.3577e-17
8603.3 3.4049e-17
8604.825 3.2903e-17
8606.35 3.7615e-17
8607.875 3.629e-17
8609.4 2.958e-17
8610.925 2.8357e-17
8612.45 2.9959e-17
8613.975 3.331e-17
8615.5 2.9968e-17
8617.025 2.7581e-17
8618.55 3.0162e-17
8620.075 3.0297e-17
8621.6 2.7177e-17
8623.125 2.2967e-17
8624.65 2.6192e-17
8626.175 3.431e-17
8627.7 3.401e-17
8629.225 2.8373e-17
8630.75 2.097e-17
8632.275 2.1502e-17
8633.8 3.3249e-17
8635.325 3.3493e-17
8636.85 2.9398e-17
8638.375 3.1275e-17
8639.9 2.7934e-17
8641.425 2.824e-17
8642.95 3.2664e-17
8644.475 3.1493e-17
8646.0 3.0965e-17
8647.525 2.6054e-17
8649.05 2.0752e-17
8650.575 3.2311e-17
8652.1 3.0965e-17
8653.625 2.7687e-17
8655.15 3.5605e-17
8656.675 2.8676e-17
8658.2 2.429e-17
8659.725 2.5154e-17
8661.25 2.0849e-17
8662.775 1.9771e-17
8664.3 2.9784e-17
8665.825 2.1708e-17
8667.35 2.25e-17
8668.875 3.3577e-17
8670.4 3.2127e-17
8671.925 2.5134e-17
8673.45 2.6976e-17
8674.975 2.5363e-17
8676.5 1.9616e-17
8678.025 2.4069e-17
8679.55 2.8277e-17
8681.075 2.7783e-17
8682.6 2.7268e-17
8684.125 2.7591e-17
8685.65 3.1978e-17
8687.175 3.5967e-17
8688.7 3.2047e-17
8690.225 2.8444e-17
8691.75 2.53e-17
8693.275 3.0355e-17
8694.8 3.2123e-17
8696.325 3.2656e-17
8697.85 3.2045e-17
8699.375 2.9045e-17
8700.9 3.1211e-17
8702.425 2.8104e-17
8703.95 2.7614e-17
8705.475 3.1782e-17
8707.0 3.0958e-17
8708.525 3.0516e-17
8710.05 3.5485e-17
8711.575 3.0147e-17
8713.1 2.3432e-17
8714.625 2.7968e-17
8716.15 2.5209e-17
8717.675 2.4119e-17
8719.2 2.9055e-17
8720.725 2.7323e-17
8722.25 2.5082e-17
8723.775 3.1655e-17
8725.3 3.3656e-17
8726.825 2.6716e-17
8728.35 2.6503e-17
8729.875 2.7823e-17
8731.4 2.6554e-17
8732.925 2.3439e-17
8734.45 2.6349e-17
8735.975 2.7709e-17
8737.5 2.7703e-17
8739.025 3.0852e-17
8740.55 3.1641e-17
8742.075 2.6653e-17
8743.6 1.9405e-17
8745.125 2.1385e-17
8746.65 2.8047e-17
8748.175 2.8923e-17
8749.7 2.7522e-17
8751.225 3.2453e-17
8752.75 3.5608e-17
8754.275 2.9963e-17
8755.8 2.9899e-17
8757.325 3.6914e-17
8758.85 3.1854e-17
8760.375 2.1015e-17
8761.9 2.1829e-17
8763.425 2.0352e-17
8764.95 1.9627e-17
8766.475 2.8115e-17
8768.0 3.3304e-17
8769.525 2.8591e-17
8771.05 2.6742e-17
8772.575 2.6466e-17
8774.1 2.1086e-17
8775.625 2.8975e-17
8777.15 3.7467e-17
8778.675 3.9996e-17
8780.2 3.1355e-17
8781.725 2.0733e-17
8783.25 2.7505e-17
8784.775 2.7241e-17
8786.3 2.7294e-17
8787.825 3.2886e-17
8789.35 2.8751e-17
8790.875 2.1877e-17
8792.4 3.7096e-17
8793.925 3.1211e-17
8795.45 2.7399e-17
8796.975 3.2566e-17
8798.5 3.2061e-17
8800.025 2.8034e-17
8801.55 2.9231e-17
8803.075 2.9188e-17
8804.6 2.6673e-17
8806.125 2.905e-17
8807.65 3.109e-17
8809.175 2.6813e-17
8810.7 3.101e-17
8812.225 2.6979e-17
8813.75 2.7605e-17
8815.275 2.6947e-17
8816.8 2.4842e-17
8818.325 2.134e-17
8819.85 2.4214e-17
8821.375 1.0305e-17
8822.9 4.4226e-17
8824.425 4.6941e-17
8825.95 4.7709e-17
8827.475 4.0631e-17
8829.0 4.2952e-17
8830.525 4.8434e-17
8832.05 4.3198e-17
8833.575 3.5187e-17
8835.1 2.6474e-17
8836.625 2.2434e-17
8838.15 1.8974e-17
8839.675 2.1068e-17
8841.2 2.8811e-17
8842.725 3.3586e-17
8844.25 3.0633e-17
8845.775 3.0941e-17
8847.3 3.396e-17
8848.825 3.2371e-17
8850.35 3.2647e-17
8851.875 3.2729e-17
8853.4 2.5296e-17
8854.925 2.3615e-17
8856.45 2.6723e-17
8857.975 2.7218e-17
8859.5 3.107e-17
8861.025 3.101e-17
8862.55 3.6953e-17
8864.075 4.8221e-17
8865.6 4.0837e-17
8867.125 3.2742e-17
8868.65 3.0805e-17
8870.175 2.4575e-17
8871.7 2.2219e-17
8873.225 2.3184e-17
8874.75 3.004e-17
8876.275 2.5488e-17
8877.8 1.9178e-17
8879.325 1.7088e-17
8880.85 2.5283e-17
8882.375 3.9933e-17
8883.9 4.7036e-17
8885.425 3.5381e-17
8886.95 2.2799e-17
8888.475 1.9882e-17
8890.0 2.9047e-17
8891.525 2.9344e-17
8893.05 2.283e-17
8894.575 2.3071e-17
8896.1 2.7503e-17
8897.625 2.6854e-17
8899.15 1.9485e-17
8900.675 1.4106e-17
