 texplosion  fnickel    Pspin  log(Bfield)      Mns  thetaPB  mejecta    kappa  kappagamma     vejecta  temperature    alpha  cutoff_wavelength  log(nhhost)      A_V         MJD0  kenergy  mnickel             TSD   log(L0)  Peak_mag     Peak_MJD  log(E_rad)  log(Peak_lum)  Rise_Time     E_fold  tau_1  delta_m15     r_peak     frac 
  -68.06396  0.01274  2.39562      13.4213   1.8151   0.6766  0.25791  0.23014     0.12173   1037.4494    9869.2863  0.01883          2061.3151     16.68056    3e-05   59441.4751  0.00166  0.00328  13898018.11103  44.62595  19.90136  59722.20312    51.60967       44.36482   43.94768  178.39431  202.0    0.00531  -20.28283  0.99988 
  -63.87395  0.01616  2.46406     13.34055  1.81405  1.45333  0.42673  0.02139     0.11684  1042.70759   9959.60007  0.62528         2047.36993     17.79792  0.00035  59445.66511  0.00277   0.0069  21313899.51623  44.41553  19.93841  59719.10515    51.61564       44.49124   24.29139  122.20087  216.0    0.00367  -20.24459  0.99976 
  -59.04351   0.0023   2.5108     13.36914   1.9832  1.45051  0.67443  0.02402     0.06197  1016.57693   9708.30602  0.15007         2691.53726     19.13124  0.00752  59450.49555  0.00416  0.00155  21209387.66997  44.44006  19.87303     59717.25    51.62474       44.40457   46.38922  161.14149  220.0    0.00428   -20.2815  0.99995 
   -50.3059  0.00393   2.5705     13.39609  1.95978   1.1563  0.11709  0.30403     0.28517  1002.00654   9904.17553  0.64027         2090.04695     17.17973    8e-05  59459.23316   0.0007  0.00046   19403081.6272  44.45315  19.87328  59710.97577    51.63269       44.49615   29.29845  131.84304  210.0     0.0038  -20.23568  0.99998 
  -79.79938   0.0066  2.14082     13.38101  1.69706  0.77576  0.17646  0.11799     0.18647   1001.1866   9868.97085  0.05865         2764.13893     19.78751  0.03406  59429.73968  0.00106  0.00116  12492519.33337  44.74073  19.90839  59701.82659    51.64591       44.53821   14.64923  127.37994  208.0    0.00493  -20.31209  0.99997 
  -32.63592  0.00212   2.3127      13.2794   1.6751  1.44715  0.51543  0.04655     0.05128  1018.10295     9403.163  0.95753         2040.72875     17.87681  0.00042  59476.90314  0.00319  0.00109  22976813.53621  44.40336  19.88727  59714.02549    51.53394       44.31904    19.5323  183.11533  210.0    0.00448  -20.21451  0.99996 
  -41.64128  0.00604  2.41176     13.24995  1.68532   0.9732  0.31136   0.0446     0.09731   1066.7592   9931.36882  1.65313         2071.08665     16.72138    3e-05  59467.89778  0.00211  0.00188  28791256.20148   44.2716  19.90519  59704.87632    51.57624       44.35351   43.94768  153.81688  210.0    0.00395  -20.25832  0.99992 
   -37.5832   0.0016  2.56212     13.74801  1.73171  0.34822  0.16774  0.04586     0.32604  1058.52666   9957.07554  1.03533         2385.13725     16.97798    5e-05  59471.95586  0.00112  0.00027   3368805.50328  45.16264  19.91485  59700.24609    51.75275       44.75486    19.5323   83.01228  230.0    0.00408  -20.23213  0.99999 
  -49.90619  0.00142  2.72349     13.41851  2.11779  0.93758  0.97128  0.03759     0.03065  1044.28893   9777.75609  0.70243         2075.65381     16.11609    1e-05  59459.63287  0.00632  0.00138  21228832.37622  44.39755  19.89981  59704.30235    51.73716       44.69071    19.5323   97.66151  208.0    0.00423  -20.28587  0.99995 
  -50.20103  0.00157  2.54595     13.34575  1.79547  0.87878  0.23485  0.13796     0.12143  1007.34743   9872.06919  1.35847           2297.384     17.40062  0.00014  59459.33804  0.00142  0.00037  21988229.69028  44.36913  19.93699  59710.17188    51.57566       44.36573   36.62307  151.70806  218.0    0.00339  -20.22705  0.99998 
  -59.08024  0.00465  2.45582     13.55962  1.83486  0.53069  0.99503  0.03623     0.03552  1005.94995   9971.08729  0.70559         2023.51595     17.25028   0.0001  59450.45882  0.00601  0.00463   7808554.59757  44.85949  19.88714  59704.87632    51.57483       44.31965   26.85692  197.90449  214.0    0.00413  -20.26159  0.99983 
  -34.15276  0.00481  2.22664     13.14339  1.47018  1.55998   1.8203  0.02697     0.01997  1102.42182   8849.40622  0.84141         2428.41978     16.98644    5e-05  59475.38631   0.0132  0.00875  34971413.14803   44.1972  19.90402  59704.87632    51.61905       44.48367   26.85692  122.98939  228.0    0.00391  -20.27319  0.99963 
  -39.95336  0.04364  2.47612     13.38383  1.62637   0.8902  0.70152  0.05539     0.05962  1084.85645   9950.94166  0.95715         2886.30784     19.55808  0.02008   59469.5857  0.00493  0.03061  15809216.91229  44.49361  19.90435  59707.92604     51.7334       44.70399    9.76615   95.21997  220.0    0.00496  -20.26933  0.99869 
  -60.70291  0.03252  2.08506     13.40686   1.5387  0.61285  0.18874  0.06541     0.17139  1036.17218   9905.27393  0.08564         3335.04015     19.62135  0.02323  59448.83615  0.00121  0.00614   9538758.48946  44.83827  19.89304  59710.97577    51.78752       44.78795   17.09076   80.57075  202.0    0.00539  -20.29693   0.9998 
  -31.38359  0.00141  2.60284     13.79094  1.87384  0.40022  0.61343  0.01668     0.05895  1041.95285   9592.77862  1.48664         2134.86395      16.9656    5e-05  59478.15547  0.00397  0.00086   3087116.13188  45.22113  19.90314  59704.30235    51.72529       44.67546    19.5323   96.48807  222.0    0.00383  -20.22311  0.99997 
  -39.11135  0.00549  2.54992      13.2374  1.71902  1.50724  0.18587  0.09074     0.18873  1000.40725   9964.73022  0.84595         3206.14539     18.99334  0.00547  59470.42771  0.00111  0.00102  34782059.49469  44.14972   19.8987  59710.97577    51.66221       44.54489   17.09076  128.17472  230.0    0.00405  -20.25736  0.99995 
  -57.68386  0.00152   2.5041     13.46077  1.97803  1.17292  0.16997  0.07773     0.23281  1021.81621   9769.29784  0.27119         2744.16332     18.82342   0.0037   59451.8552  0.00106  0.00026  13797712.33504  44.62797  19.90956  59719.10515    51.71084       44.65408   21.97384   97.66151  212.0     0.0043   -20.2436  0.99999 
  -58.54687   0.0016  2.19221     13.26692  1.57018   0.8837  0.17026  0.11974     0.19329  1005.79571   9778.79674  0.19391         3842.52234     16.96444    5e-05  59450.99219  0.00103  0.00027  20497145.46769  44.47134  19.88473  59707.21094    51.63577       44.51432   24.41538  122.54303  216.0    0.00433   -20.2841  0.99999 
  -54.86457   0.0108  2.24873     13.76981  1.94155  0.50191  0.17363  0.03539       0.329  1000.53133   9899.52247  0.05872         4731.17245     17.97204  0.00052  59454.67449  0.00104  0.00188    2631624.2052   45.4329  19.88187   59697.1875    51.69783       44.67661   17.09076    90.3369  226.0    0.00478   -20.2422  0.99995 
  -50.61358  0.00311  2.15945     13.16437  1.58107  1.10897  0.28496  0.04666     0.07303  1009.48658   9549.20566  0.57695         2612.68364      19.6079  0.02252  59458.92548  0.00173  0.00089  32114821.27146   44.2924  19.90763  59715.06337    51.64933       44.54257   21.97384  115.21841  212.0    0.00617  -20.26268  0.99997 
  -56.70951  0.00418  2.77364     14.49588  2.01671  0.07255  0.29996  0.08152     0.15284  1123.27092   9703.97978  0.45451         2301.95964     17.63841  0.00024  59452.82956  0.00226  0.00126    146824.39238  46.52059  19.87407  59710.17188    51.67283       44.55147   26.85692  124.51843  208.0    0.00449  -20.29228  0.99995 
  -23.60937  0.12419  2.81071     13.93911  1.96669  0.29152  0.65684  0.02041     0.13301  1060.84432   9442.80592  1.55639         2122.13262     16.53903    2e-05  59485.92969  0.00441  0.08157   1909696.56796  45.38398  19.88967  59715.06337    51.63832       44.48902   21.97384  139.16765  276.0    0.00382  -20.21698  0.99665 
  -50.78754  0.00194  2.39047     13.56279  1.93899  0.85582  0.18833  0.02333     0.24385  1033.40245   9908.89968   0.0361         4315.21935     16.09229    1e-05  59458.75153   0.0012  0.00037   7705184.11705  44.91267   19.9181  59714.02549    51.62332       44.44988    19.5323  158.69995  206.0    0.00471  -20.23001  0.99999 
   -36.8023  0.00384  2.56932     13.51502  1.82057  0.65826  0.20654  0.10427      0.1744  1051.57535   9918.60532  0.76385         2384.07112     16.01468    1e-05  59472.73676  0.00136  0.00079  10413912.63743   44.6918  19.88747  59704.87632    51.69762        44.5818   36.62307  110.43492  208.0    0.00443  -20.24495  0.99997 
  -50.96524  0.01209  2.33703     13.84962  1.68788  0.25707  0.32824  0.02266     0.10641  1034.90948   9877.60161  0.94117         2156.06684     17.59883  0.00022  59458.57382   0.0021  0.00397   1711000.12566  45.52561   19.9005  59707.21094    51.61342       44.48121   24.41538   129.4015  212.0    0.00339  -20.26272  0.99986 
  -23.04771  0.00224  2.60814     13.97089  1.82046  0.17595  0.60112  0.02735     0.03305  1003.73847   9895.37897  2.43195         2250.33317     17.59008  0.00022  59486.49135  0.00361  0.00135   1314846.92216  45.57749  19.89395  59726.19141    51.68932       44.55247   21.97384  135.19708  214.0    0.00383  -20.19842  0.99994 
  -35.61755  0.05611  2.03978     13.26802  1.41965  1.08858  0.11154  0.24156     0.42861   1046.2234   9648.13693  0.72765         2014.78848     16.90041    4e-05  59473.92151  0.00073  0.00626  15963537.94301  44.59873  19.91902  59710.97577    51.55793       44.34686    19.5323  175.79072  222.0     0.0042  -20.22024  0.99979 
  -57.19653  0.00152  2.30602     13.81677  1.80169  0.37748  0.64188  0.10191     0.08622  1071.82779   9825.27447  0.08275         2106.97642     16.98487    5e-05  59452.34253   0.0044  0.00097   2068614.48408  45.48312   19.9117  59689.25391    51.53863       44.34387   26.85692  163.71586  214.0    0.00499   -20.2593  0.99997 
  -53.64924  0.04737  2.40894     13.70109  1.73333  0.34054   0.1108  0.24894     0.26596  1013.92187   9634.02537  0.88817         2378.23459     17.19051    9e-05  59455.88982  0.00068  0.00525   3699722.61682  45.17591  19.90639  59707.92604    51.62605       44.50017   24.41538   129.4015  218.0    0.00376  -20.25647   0.9998 
  -38.38103  0.00212  2.13529     14.51611  1.48982  0.03824  0.12239  0.05522     0.19036  1019.99314   9979.92823  0.98796         2056.07015     17.11802    7e-05  59471.15804  0.00076  0.00026     58564.39147  47.01543  19.91781  59707.92604    51.56407       44.35509    39.0646  158.69995  200.0    0.00438  -20.22185  0.99999 
  -60.76339  0.00152   2.3923     13.28795  1.78117  1.38231  0.65888  0.01167     0.04978  1022.27611   9913.07801  0.37281          2173.1294     18.45101  0.00157  59448.77567  0.00411    0.001  25133319.39074  44.36167  19.90518  59707.22656    51.58647       44.38927   24.41538  156.74411  204.0    0.00439  -20.24978  0.99996 
   -58.7275  0.00277   2.0821     13.19596  1.55863  1.38244  0.23773  0.02206     0.11285  1011.31138   9421.54363  0.01141         2125.58057     16.73957    3e-05  59450.81156  0.00145  0.00066  25446737.10933  44.41895  19.90293   59701.1875    51.55295       44.35322   21.97384  173.34918  206.0    0.00541  -20.24699  0.99998 
  -37.64642  0.01441  2.45752     14.03152  1.84089  0.22142  0.16239  0.18462     0.20881  1027.71103   9828.32158  0.65827         2123.29201     19.12203  0.00736  59471.89264  0.00102  0.00234    892906.62279  45.80208  19.91545  59714.02549    51.57924       44.36874   21.97384  174.16629  206.0    0.00401  -20.21584  0.99992 
  -39.63425   0.0023  2.45353     13.65803  1.67817  0.44808  0.35096  0.02523     0.09845  1027.41216   9754.46821   0.5074         3348.26779     18.10121   0.0007  59469.90481  0.00221  0.00081   4530771.42042  45.05792  19.90412  59698.77687    51.51364       44.29396   36.62307  173.34918  214.0    0.00446  -20.23676  0.99997 
  -75.67753  0.00323  2.49126     13.43838  1.96413    0.918  0.51258   0.0775     0.06626   1005.8648   9652.13263  0.03693         3876.81993     18.31819  0.00116  59433.86154  0.00309  0.00166  15033963.49062   44.5921  19.92304  59702.24219    51.67023       44.58461    19.5323   109.8692  212.0     0.0044  -20.27192  0.99995 
  -45.43465  0.00935  2.44755     13.28299  1.88103  1.46609  0.17151  0.01138     0.14426  1036.16097    9749.7023  0.40102         2161.67567     19.50964  0.01796  59464.10441   0.0011   0.0016  28424141.55346  44.31209  19.94551  59677.42879    51.58769       44.49482   24.41538  112.31074  200.0    0.00605  -20.26586  0.99994 
  -54.67795   0.0081  2.27365      13.7955  1.62768  0.26886  0.18464  0.15682     0.19321  1002.85936    9973.6875  0.30523         3285.67959     16.00093    1e-05  59454.86111  0.00111   0.0015    2003749.8101  45.46512  19.90909   59724.2616    51.66557       44.53952   14.64923  130.75282  214.0     0.0038  -20.26511  0.99995 
  -56.63213  0.03377  2.62777     14.51664  2.11897  0.08848  0.13161   0.1183     0.37167  1040.73057   9966.50259  0.16275         2950.96457     16.59889    2e-05  59452.90693  0.00085  0.00444    125847.19312  46.65595  19.91031  59714.02549      51.646        44.4699   26.85692  153.55712  214.0    0.00393  -20.26833  0.99986 
  -26.61412  0.00393  2.05059     13.35631  1.38897  0.57435  0.69989   0.0116     0.03293  1065.82618   8870.52877  0.73584         2316.17182     17.90284  0.00044  59482.92495  0.00474  0.00275  10511095.96374  44.76613  19.89756  59701.82659    51.72626       44.66121   34.18153   87.89536  214.0    0.00605  -20.24227  0.99989 
  -45.02924  0.00403  2.52435     13.40965  1.85459  0.78638  0.26122  0.09215     0.10553  1017.16888   9790.80839   0.3172         4093.61423     17.09067    7e-05  59464.50982  0.00161  0.00105  16636524.66754  44.51173  19.87962     59717.25     51.6592       44.50636    19.5323  146.49226  212.0    0.00538  -20.30286  0.99996 
  -56.84285  0.00933  2.39402     13.38589  1.72364  0.84931   0.1196  0.17827     0.32385  1042.71149   9977.21657  0.18372         3113.87359     18.00271  0.00056  59452.69621  0.00078  0.00112  15514785.50069  44.55629   19.9104  59719.19922    51.64145       44.48679   29.29845   129.4015  206.0    0.00418  -20.26154  0.99996 
  -38.32474  0.01309  2.44288     13.14859  1.69873  1.13603  0.16753  0.14495     0.15502  1058.49259   9797.98459  0.92091         2909.88286     16.59798    2e-05  59471.21433  0.00112  0.00219  47486690.13576  44.04659  19.90233  59720.12494    51.61427       44.39146   36.62307  170.90764  216.0    0.00449  -20.25161   0.9999 
  -48.57087  0.00356  1.86038     13.55357  1.41163    0.482  2.23108  0.01845     0.01748  1009.37901   9977.16392  0.28744         2422.89398     17.34583  0.00012  59460.96819  0.01356  0.00795   3544923.12117  45.32976  19.89297  59694.16797    51.61378       44.50904   17.09076  122.07689  208.0    0.00494   -20.2432  0.99978 
  -59.24846  0.01203  1.86058     13.46395  1.45709  0.62018  0.33494  0.05664     0.15268  1001.71054   9950.56551  0.22073         2152.47072     16.07552    1e-05   59450.2906    0.002  0.00403   5529750.47953  45.15033  19.86867  59693.21484     51.7079       44.68634   14.64923    90.3369  220.0     0.0042  -20.26058  0.99989 
  -49.09644  0.03381  2.63224     13.30196  1.90394  1.16318  0.13063  0.16863     0.23323  1035.68818   9870.51668  0.64866         2689.84762     18.09425  0.00069  59460.44262  0.00084  0.00442  30492418.57124  44.22366  19.88511  59704.87632    51.60754       44.41288   48.83075  145.23946  212.0    0.00396  -20.25971  0.99982 
  -62.00014  0.00208  2.24771     13.83272  1.81227   0.3233  0.36228  0.14388     0.09607  1005.66924   9864.45178   0.1953         2192.26327     18.88334  0.00425  59447.53892  0.00219  0.00075   1836898.20335   45.5595  19.87411  59710.97577    51.63572       44.44565   41.50614  149.75088  206.0    0.00447  -20.27277  0.99998 
  -54.52577  0.00284  2.51084     13.67167  1.77126  0.37871  0.27539  0.02738     0.15971  1155.82685   9850.60653  0.16725         2131.08636     16.99956    6e-05  59455.01329  0.00219  0.00078   4703147.12631   45.0451  19.91519  59707.21094    51.72026        44.6195   31.73999  103.97064  198.0    0.00508  -20.30623  0.99997 
  -61.66012  0.01079  2.14261     13.64046  1.72408  0.48315  0.15308  0.01779     0.19545  1004.89712    9404.8532  0.05382          2001.3548     19.00396  0.00561  59447.87894  0.00092  0.00165   3848887.67857  45.25818    19.893  59723.17467    51.67697       44.51668   24.41538  139.16765  208.0    0.00531  -20.25289  0.99995 
  -51.19859  0.00495  2.37239     13.15667   1.6797  1.31647  0.17067  0.06271     0.17593   1062.9787   9863.67889  1.86271         2056.66304     18.72664  0.00296  59458.34047  0.00115  0.00084  42666724.07282  44.11361  19.92887  59707.22656    51.52983       44.31701    19.5323  183.11533  212.0    0.00375  -20.27279  0.99996 
  -44.72663   0.0121  2.50935     13.48712  1.77819  0.67207  0.12377  0.03666     0.29416  1030.63783   9844.39816  0.98615         2283.19325     18.98011  0.00531  59464.81243  0.00078   0.0015  11032783.48472  44.67702  19.92313  59675.07815    51.46773        44.2151   46.38922  183.11533  216.0    0.00404  -20.24156  0.99994 
   -56.2521  0.00103  1.98673     13.24436  1.42408  0.65081  1.11455  0.01473     0.01972  1010.31317   9735.89391  0.32773         2674.15074     16.37107    1e-05  59453.28696  0.00679  0.00115  16939617.96304   44.5972  19.90064  59687.59858       51.57       44.38975   24.41538  155.06647  206.0    0.00588  -20.25312  0.99996 
  -30.71611  0.00221   2.5471     14.15392  1.73283  0.12317  2.48939  0.01822     0.01164  1022.21025   9992.78685  2.05502         2114.07168     17.65508  0.00025  59478.82296  0.01552  0.00551     513842.3562  45.98468  19.92569  59710.17188    51.71025       44.71549   17.09076   85.45382  214.0    0.00308  -20.20299  0.99976 
  -48.06675  0.00201  2.42263     13.90442  1.80772  0.27284  1.49657  0.02438     0.02567  1010.76221   9792.19804  0.40703         2267.16048     17.58421  0.00021  59461.47231  0.00912  0.00301   1529956.98106  45.57272    19.937  59698.77687    51.76024       44.78391    19.5323   76.17369  214.0    0.00375  -20.22614   0.9999 
  -60.43765  0.00257   2.3519     13.35059  1.75932    1.046  1.17632   0.0221     0.03304  1005.99241   9802.49392  0.14441         2769.18438     17.00687    6e-05  59449.10141   0.0071  0.00302   17981288.5037  44.51653  19.86099  59703.12344    51.68687       44.57261   31.73999  114.35506  214.0    0.00371  -20.24768   0.9999 
  -50.78457  0.00131  2.23817     13.18137  1.54643  1.39516  0.15452  0.03275     0.25539  1043.51467   9806.56154  0.98166         2019.27767     18.55762  0.00201  59458.75449    0.001   0.0002  31202804.29932   44.2642  19.88148  59714.02549    51.70066       44.59327   31.73999  110.43492  214.0      0.004  -20.25236  0.99999 
  -38.19434  0.00224  2.71269     13.57948  1.99285  0.60473  0.14496  0.05124     0.24877  1019.52264   9942.45501  1.17748         2074.97395     17.69079  0.00027  59471.34472   0.0009  0.00032   9443514.73186  44.72638  19.90087  59701.26953    51.56741       44.39818   24.41538  148.52054  216.0    0.00366  -20.23797  0.99999 
  -68.17043  0.00232  2.47132     13.34646  1.84117  0.87161  0.28014  0.09725     0.10912  1015.78309   9781.91732  0.27967          3070.4004     18.68426  0.00269  59441.36863  0.00172  0.00065  21176313.43241  44.42223  19.93156  59714.02549    51.62603       44.50258    9.76615   129.4015  214.0    0.00512  -20.27814  0.99998 
  -31.64908  0.00283   2.6264     13.73404  1.78142  0.34635  1.08089  0.02198     0.03625  1133.10942   9576.97898   1.5681         2175.05119     17.31919  0.00012  59477.88999  0.00828  0.00306   3883510.20373  45.09166  19.89844  59707.21094    51.68468       44.57786   29.29845  112.31074  212.0    0.00407  -20.27209  0.99986 
  -71.25886  0.00367  2.45162     13.79502  1.93833  0.38072  0.29234  0.01657     0.17042  1013.65409   9992.66707  0.20562         2162.64834     16.29383    1e-05   59438.2802  0.00179  0.00107   2780348.11181  45.33327   19.9159  59687.59858    51.79596       44.86926    19.5323   63.47998  218.0    0.00381  -20.27399  0.99997 
  -54.99572  0.00156  2.53537     13.49598  2.02832  0.92455  0.26509  0.16985     0.14835  1032.02049    9934.3953   0.0292         3048.29837     18.12354  0.00074  59454.54334  0.00168  0.00041  12333308.33715  44.67682  19.90252  59707.21094    51.77158       44.81349   12.20769   75.68767  202.0    0.00511  -20.27372  0.99999 
  -64.43599  0.00369  2.52028     13.92907  1.83333  0.21581  0.64377   0.1221      0.0736  1118.12892   9789.33493  0.07934         2997.90833     16.01921    1e-05  59445.10307   0.0048  0.00238    1499045.5663  45.55338  19.88996  59707.21094    51.70565       44.60517   31.73999   109.8692  210.0     0.0043   -20.3233  0.99991 
  -48.85692  0.05072  2.80723     13.89872  2.13615   0.2664  0.12596  0.24824     0.19628  1022.33683   9957.79076   1.2268          2281.7936       18.029  0.00059  59460.68215  0.00079  0.00639    2492056.0162  45.30536  19.91981  59727.03879    51.51091       44.20095   17.09076  241.71224  210.0    0.00414   -20.2568  0.99974 
  -45.38069  0.00184   2.5835     13.40145  1.90683   1.0567  0.13931  0.18891     0.21976  1016.03645   9921.13832  0.75843         2215.20121     16.77185    3e-05  59464.15837  0.00086  0.00026  18605743.77828  44.45509  19.92023  59715.06337    51.52754       44.25904   24.41538  212.41378  206.0    0.00467  -20.22514  0.99999 
  -71.86502  0.00116  1.97672     13.12847  1.49124   1.3434  0.17668  0.09078     0.14292  1015.33163   9968.98062  0.01324         4040.13665     18.50741  0.00179  59437.67405  0.00109   0.0002  29943619.79812   44.3742  19.90211  59704.87632    51.60247       44.45255   26.85692  137.28578  196.0    0.00509  -20.28572  0.99999 
  -45.19438  0.01033  2.41884     14.01645  1.93511  0.23073   0.1122  0.27009      0.3454   1037.6739   9946.60886  0.45736         2381.77746     19.91976  0.04618  59464.34468  0.00072  0.00116    974628.61137   45.7995   19.8814  59710.97577    51.62469        44.3915   58.59691  161.28142  210.0    0.00459  -20.30636  0.99996 
  -51.84941  0.00202   2.2445     14.14678  1.57677  0.10993  0.10791   0.1527     0.29241  1042.13544   9966.88638  0.97694         2011.82309     19.13956  0.00766  59457.68965   0.0007  0.00022    375195.51343  46.19012  19.91514  59694.25781    51.61032        44.5018   26.85692  112.31074  202.0    0.00433  -20.24897  0.99999 
  -52.56147  0.00155  2.39673     14.37805  1.71511   0.0655  0.17419  0.05212     0.17516  1046.75039    9927.5608  0.48597         2557.26617     18.38292  0.00134   59456.9776  0.00114  0.00027    160413.50539  46.53866  19.89383  59717.07522     51.5876       44.39608   29.29845  160.62985  206.0    0.00458  -20.26502  0.99999 
  -48.96429  0.00104  2.36145     14.12716  1.70099  0.11021  0.45243  0.13273     0.06009  1017.81511   9895.21454  1.07336         2216.23452     16.81361    4e-05  59460.57478   0.0028  0.00047    490401.63649  46.06264  19.90148  59722.20312    51.62112       44.44831   12.20769  153.81688  212.0    0.00372  -20.25511  0.99998 
  -56.48585  0.00627  2.17798     13.88252   1.6431  0.22614   0.1513  0.14792     0.22223  1018.58244   9614.63261  0.18432         2616.83512     17.40843  0.00014  59453.05321  0.00094  0.00095   1243251.11578  45.71384  19.90243  59704.87632    51.73362       44.70622    19.5323    90.3369  212.0    0.00411  -20.28018  0.99997 
  -46.86062  0.00143  2.39486     13.59379   1.8415  0.69552  0.10327  0.13307     0.49317  1033.90797    9878.1002  0.17172         3821.58693     17.18565    9e-05  59462.67844  0.00066  0.00015   6367454.51707  44.97149  19.89201  59714.02549    51.72837       44.65321   21.97384  108.85372  220.0    0.00492   -20.2465      1.0 
  -53.76597  0.00197  2.39429     13.59223  1.83235  0.65929  0.46652  0.26832     0.10909  1077.95068   9848.85205  0.10901         2743.66551     17.28368  0.00011  59455.77309  0.00323  0.00092   6378486.22817  44.96878  19.91424  59714.02549    51.67596       44.59537   29.29845  102.54459  210.0      0.005  -20.27388  0.99997 
  -56.16668  0.00117  2.26916     13.80052  1.62445  0.27094  0.18109  0.19812     0.20051  1048.24648   9944.49573  0.47323         2369.15752     19.54918  0.01967  59453.37238  0.00119  0.00021   1946286.44739  45.47861  19.87951  59703.12344    51.65397       44.52361   26.85692  122.07689  206.0    0.00444  -20.26935  0.99999 
   -57.2103  0.00128  2.62465     13.89608  1.87166  0.27286  0.45668  0.11318     0.10166  1024.55649   9870.42037   0.7661          2496.5595     18.50214  0.00177  59452.32876  0.00286  0.00058   1932100.05489   45.4169  19.88979  59703.12344    51.53307        44.3124   21.97384  180.67379  228.0    0.00362  -20.24313  0.99998 
  -52.34631  0.02156  2.07043     13.19325  1.38168  0.81299  0.12267   0.1164     0.26693  1022.77777   9973.45973  0.44565          3408.0749     18.03696   0.0006  59457.19275  0.00077  0.00264  22586303.85344  44.42329  19.92982  59707.92604    51.55022       44.34148   31.73999   168.4661  216.0    0.00459  -20.28223  0.99989 
  -52.32319  0.00543  2.81945     13.36515  1.99865  1.04534  0.10901  0.14696     0.27233   1002.1012   9913.37884  0.46753         3645.72283     16.34181    1e-05  59457.21587  0.00065  0.00059  27451795.83878  44.23068  19.92696  59707.92604    51.54477       44.31782   26.85692  179.06315  216.0    0.00444  -20.23796  0.99997 
  -30.46343  0.02903  2.83906     13.52951  2.03944  0.68734  0.20579  0.11869      0.1337  1012.15867   9732.41872  1.48752         2294.74393     16.70924    3e-05  59479.07563  0.00126  0.00597  13324867.96877  44.54734  19.88737  59714.02549     51.5814       44.36125   24.41538  175.79072  218.0    0.00357  -20.21494  0.99974 
  -59.37886  0.00118  2.23208     13.63291  1.71652  0.47258   0.4703  0.07598     0.08694  1036.21493   9994.69963  0.02868         5665.08337     17.88632  0.00043   59450.1602  0.00301  0.00056   4305974.62308    45.172  19.89545  59704.87632    51.59974       44.41824   29.29845  144.89098  204.0    0.00474  -20.29082  0.99998 
  -38.61004  0.00252   2.3451     13.56682  1.67234   0.5379  0.24554  0.06625     0.17081   1054.1238   9951.23524  0.38987         2618.90391     18.09987   0.0007  59470.92902  0.00163  0.00062   6278069.04834  44.95402  19.93471   59697.1875    51.62495       44.48671   21.97384  117.19381  210.0    0.00424  -20.25694  0.99998 
  -54.44675    0.002  2.67973     13.89577  2.15046  0.32481  0.20744  0.10235     0.14829  1052.74872   9386.42932  0.34319         2037.99441     18.97102   0.0052  59455.09231  0.00137  0.00042   2317300.93591  45.38021  19.92603  59704.30235    51.77697       44.85219   12.20769   68.36306  210.0     0.0046  -20.29171  0.99999 
  -54.56942  0.00143  2.06568     13.45808  1.45582  0.48287  0.14208  0.10253     0.23739  1093.77909   9910.37885  0.11925         2664.87602     19.37144  0.01307  59454.96964  0.00101   0.0002   6996575.64095  44.95694   19.9158  59714.02549    51.59932       44.43991   29.17447   136.8501  194.0    0.00469  -20.30269  0.99999 
  -52.99595   0.0027   2.2236     14.10297  1.61975  0.11345  0.34475  0.02691     0.07234  1005.09587   9906.52012  0.83383         2011.93405     18.51881  0.00183  59456.54311  0.00208  0.00093    462835.47668  46.11875  19.89091  59699.16797    51.65452       44.54788   17.09076  119.63535  204.0    0.00412   -20.2409  0.99997 
  -64.49025  0.00149  2.18871     14.17989  1.67583  0.12747  0.17216  0.28345      0.2449  1025.46121   9961.62337  0.06318         3566.13611     17.73722   0.0003  59445.04881  0.00108  0.00026    325560.28804  46.30007  19.92335  59694.16797    51.50707       44.28352   26.85692  185.55687  208.0     0.0045  -20.27669  0.99999 
  -35.46847  0.00163  2.38118     13.48672  1.66567  0.62694  0.39128  0.04674     0.09019  1070.12697   9693.38545  1.12532         2097.62412     17.87291  0.00041  59474.07059  0.00267  0.00064   9322655.26378  44.76731  19.93204  59704.87632    51.67166       44.60276   26.85692   97.66151  210.0    0.00335  -20.25466  0.99998 
  -55.38578  0.03065  2.21374      13.2247  1.71483  1.38178  0.11365  0.11171     0.26049  1028.18251   9650.10402  0.02087         5954.29357      19.6958  0.02758  59454.15328  0.00072  0.00348  27725572.09587  44.36994  19.90259  59696.32296    51.70323       44.62266    39.0646   93.65145  206.0    0.00519  -20.30976  0.99989 
  -40.71247  0.00113  2.49407     13.59334  1.70833  0.41584  0.11953  0.07295     0.29078  1081.48241   9792.58589  1.31466         2217.11933     16.17638    1e-05  59468.82659  0.00083  0.00013    6419931.8674  44.90007  19.89638  59701.26953     51.5976       44.39962   31.73999  159.17695  214.0    0.00351  -20.25509  0.99999 
  -34.30034   0.0014   2.5453     13.32029  1.71759  0.95466  0.14459  0.12668     0.20278  1055.97418   9988.09121  2.03629         2212.29462     16.93859    5e-05  59475.23872  0.00096   0.0002  23638888.91005  44.31866  19.93271  59719.10515     51.5932       44.41708   17.09076   163.9149  212.0    0.00322  -20.22992  0.99999 
  -48.80773  0.05003  1.92139     13.11015  1.28768  1.15757  0.13312  0.10933     0.22426  1053.52483   9439.58486  0.24449         3046.73701     18.77515  0.00331  59460.73133  0.00088  0.00666  26580187.34657  44.38686  19.91762  59707.92604    51.66599       44.55681   17.09076  122.07689  206.0    0.00441  -20.25775  0.99975 
   -45.0329  0.01389  2.33283     13.79574  1.58403  0.25377  0.16002   0.3239     0.20396  1033.20596   9987.74647  0.47448         3016.68129     18.25372    0.001  59464.50617  0.00102  0.00222   2050498.75954  45.42098  19.91418  59715.06337    51.69952       44.62391   14.64923  114.75227  208.0    0.00379  -20.24331  0.99991 
  -48.04704  0.00781  2.83377     13.41667  2.05036  1.01739  0.24636  0.05938     0.14806  1011.77103   9893.21446  0.62986         3043.59042      17.4583  0.00016  59461.49202   0.0015  0.00193  22440277.62067  44.32492   19.9348  59703.27344    51.66307        44.5907   29.29845  102.54459  224.0    0.00332  -20.25692  0.99992 
  -47.74154  0.04239  2.84009     13.46887  2.08284  0.79661   0.1123  0.11991     0.22462  1052.22208   9882.66143  0.53778         3054.87326     18.18036  0.00084  59461.79752  0.00074  0.00476  18005406.58188  44.42543  19.90558  59694.16797    51.61385       44.52918    19.5323  112.31074  202.0    0.00514  -20.25443   0.9998 
  -31.34362  0.00983  2.37106     13.77868  1.65725  0.25038  0.11747  0.09861     0.25002  1008.05391   9934.32465  1.88869         2156.69846     19.21489  0.00911  59478.19545  0.00071  0.00115   2397391.28067  45.35861  19.89822  59707.21094     51.6732       44.51601   34.18153  131.84304  220.0     0.0033  -20.24451  0.99995 
  -32.91854  0.04507   2.6754     13.74324  1.86178  0.33861  0.51733   0.0811     0.05095   1099.7738   9857.21291  1.42358         2265.37031      16.3904    1e-05  59476.62053  0.00373  0.02331   4036777.29882  45.07796  19.90675  59704.30235    51.60424       44.41348   24.41538   168.4661  200.0    0.00507   -20.2461  0.99897 
  -49.29178  0.00948  2.19765     13.31676  1.59156  1.15368  0.11726  0.06399     0.37562  1082.43533   9940.75507  0.24895         2909.36034     18.12037  0.00073  59460.24729  0.00082  0.00111  16597110.88593  44.56672  19.91019  59717.07522    51.66433        44.5622    7.32461  133.10669  204.0    0.00445  -20.27675  0.99996 
  -49.57272  0.00531  2.37255     13.27387  1.69468  1.42943  0.17797  0.10153     0.23072  1117.02262   9393.74489  0.36368         2282.22487     18.80469  0.00354  59459.96634  0.00132  0.00094  25095204.81566  44.34791  19.90361   59697.1875    51.83656       44.94436   14.64923   61.03844  210.0     0.0047  -20.29373  0.99997 
  -44.35866    0.039  2.41782     14.29163  1.86969  0.12073  0.10892  0.15767     0.42897  1043.68494   9889.65984  0.17591         2262.95081     16.43779    2e-05   59465.1804  0.00071  0.00425    264949.94438   46.3506  19.90784  59692.35295    51.72105       44.70363    19.5323   87.89536  210.0    0.00462  -20.25697  0.99987 
  -41.64506   0.0195  2.09871     13.69589  1.65037  0.41797  0.17678  0.08006       0.193  1018.99255   9644.52842  0.50333         2290.28663     19.91925  0.04613    59467.894  0.00109  0.00345     2738613.614  45.40499  19.92403  59693.21484    51.67949       44.60071   17.09076  104.98612  212.0    0.00473  -20.27044   0.9999 
  -31.34989  0.00365  2.60586     13.45751  1.84108  0.85788  0.99382  0.01527     0.04293  1070.77882   9764.76386  0.71269         2180.42403     18.25248  0.00099  59478.18917   0.0068  0.00362  14117685.47786  44.55225   19.8969  59717.17969     51.7049       44.59984   24.41538  112.31074  212.0    0.00377  -20.23218  0.99986 
  -61.69723  0.00213  2.23527     13.18989  1.66897  1.49449  0.35222   0.1839     0.08815  1033.96686   9960.12925  0.11868         3006.88333     16.36401    1e-05  59447.84183  0.00225  0.00075  32296167.59882  44.28348  19.91976  59710.97577    51.64818       44.50331   34.18153  126.95996  202.0    0.00542  -20.29767  0.99997 
  -44.46584  0.00108  2.50386      13.4274  1.87603  0.88785  0.24157  0.11402     0.12743  1077.63232   9783.78403  0.23861         2791.93742      16.0865    1e-05  59465.07322  0.00167  0.00026  15256942.34234   44.5614  19.89202  59707.21094    51.72209       44.59261   26.85692  125.39144  198.0     0.0047  -20.28688  0.99999 
  -53.74305  0.00106  2.33797     13.25791  1.69915  1.33737  0.13445  0.04594     0.20272  1005.39506   9915.51761  0.46558         2659.07862     16.01377    1e-05  59455.79601  0.00081  0.00014  26297543.95931  44.34148  19.92131  59707.21094     51.6379       44.54039   26.85692  117.19381  204.0    0.00486  -20.24014  0.99999 
   -30.8201  0.00508  2.73643     13.51097    1.933  0.60026  0.21242  0.04051      0.1563  1175.41373   9699.86636  1.39758         2138.42402     18.62069  0.00232  59478.71896  0.00175  0.00108  12778472.78956  44.57423  19.90944  59710.97577    51.55811       44.32937   24.41538  184.65027  200.0    0.00403   -20.2952  0.99995 
  -47.93149  0.02875  2.41398      13.2462  1.64608  1.37069  0.21172  0.31918     0.21729  1039.25768   9996.48697  0.45241         3218.01792     18.61742   0.0023  59461.60757  0.00136  0.00609  28663904.14769  44.26249  19.93599  59703.12344    51.60084       44.44751   17.09076  134.28458  222.0     0.0037  -20.26357  0.99975 
  -70.39297  0.00115  2.20159     13.29852  1.71462  1.38454  0.11925  0.08069     0.32343  1017.43505   9928.71746  0.06705         2219.24416     18.64883  0.00247  59439.14609  0.00074  0.00014  19517018.53115  44.52713  19.88256  59720.32736    51.60488       44.38244   36.62307   171.7583  204.0    0.00415  -20.26876      1.0 
   -57.3468  0.00421  2.17591     13.67713  1.58262  0.33257  0.33804  0.02388     0.08692  1011.54753   9838.79193  0.23155         2950.41543     16.88383    4e-05  59452.19226  0.00206  0.00142    3077593.2073  45.30473  19.92483  59698.77687    51.55446       44.32245   34.18153  178.23226  206.0    0.00458  -20.26051  0.99995 
  -42.54997   0.0037  2.25257     14.58592  1.47314  0.03788  0.25209  0.16002     0.19568  1054.76585   9832.88089  0.74951         2495.22437     16.51904    2e-05  59466.98909  0.00167  0.00093       46727.159  47.06216  19.90989  59719.10515    51.62946       44.42369   36.62307  154.30257  226.0    0.00354  -20.23672  0.99996 
  -73.73013  0.00265  2.35808     13.18245  1.69585  1.15809  0.24054   0.0725     0.13097  1050.41813   9979.14489  0.23824          3712.2081     16.04246    1e-05  59435.80893  0.00158  0.00064   37793163.7773   44.1757  19.89269  59710.17188    51.55422       44.34373   39.51088  160.68132  210.0    0.00442  -20.29696  0.99997 
  -47.68628  0.00199  2.68777     13.62049  1.93779  0.59563  0.53021  0.03947     0.07492  1009.51263   9518.13111  0.31759         3962.93853     16.57764    2e-05  59461.85278  0.00322  0.00106   7463219.74848  44.82444  19.88499  59668.27962    51.56075       44.40538   34.18153  131.10403  228.0    0.00415  -20.25211  0.99996 
   -68.6016  0.00743  2.20702     13.99074  1.66867   0.1921  0.10374  0.02297     0.42998  1038.87345   9941.42061  0.03941         2048.94109     17.92713  0.00047  59440.93746  0.00067  0.00077    787629.16305  45.90728  19.89824  59715.06337    51.67978       44.55324    19.5323   129.4015  208.0    0.00377  -20.27321  0.99998 
  -63.53117  0.00704  2.13982     13.94298  1.72968  0.24239  0.13015  0.06895      0.3998  1013.51868   9978.58681  0.00274         3274.35168     16.95691    5e-05  59446.00789   0.0008  0.00092    956277.74551  45.86547  19.90213     59680.25    51.64127       44.58417    19.5323  100.66877  216.0    0.00469  -20.27368  0.99997 
  -65.30398  0.00133  2.38743     13.75541  1.86985  0.41627  0.11135  0.11162     0.39302  1025.59619   9836.17737  0.06494         3429.19132     18.28628  0.00107  59444.23509   0.0007  0.00015   3052518.26838  45.30013   19.8963  59699.19141    51.55714        44.3494   24.41538  163.58303  212.0    0.00407  -20.26452      1.0 
  -49.97079  0.00206    2.367     14.83803  1.72803  0.02859  0.13225   0.0712     0.28378  1007.55262   9990.38812  0.81364         2133.15286     16.66922    3e-05  59459.56827   0.0008  0.00027     18954.47843  47.48029  19.88642  59720.12494    51.62896       44.43598   29.29845  153.81688  212.0    0.00333  -20.22992  0.99999 
  -24.30256  0.08793  2.26222     13.44795  1.46635  0.63911   0.1219   0.1387     0.28039  1043.85572   9348.33707  2.12229         2015.74397     17.70762  0.00028   59485.2365  0.00079  0.01072   8855641.95382  44.77879  19.90844  59707.22656    51.53673       44.20025   53.71383  227.06301  222.0    0.00299  -20.17899  0.99956 
  -56.02487  0.00102  2.31582     13.24923  1.70942  1.31409  0.13806  0.03981     0.24812  1023.26147   9788.04918  0.06672         4048.72973     18.49148  0.00172   59453.5142  0.00086  0.00014  27015919.74707  44.34067  19.89589  59710.97577    51.63371       44.46642   29.29845  139.16765  208.0    0.00404  -20.26917      1.0 
  -44.13051  0.08275  2.45038     13.30278  1.90261  1.17781   0.1282  0.15893     0.22044  1039.76007   9979.43722  0.53055         2789.08015     20.20554  0.08918  59465.40855  0.00083  0.01061  26307344.38797  44.34965  19.90371  59714.02549    51.59351       44.46007   17.09076   144.8678  208.0    0.00524  -20.34203  0.99963 
  -63.45513  0.00135  2.04775     13.22706  1.49706  1.21503  0.31592  0.09535     0.12086  1045.38087   9719.99408  0.03632         3640.87309     18.80427  0.00354  59446.08393  0.00206  0.00043  20487773.37415  44.51004  19.89942  59704.87632    51.73839       44.68468   14.64923   97.66151  206.0    0.00414  -20.27425  0.99999 
   -48.2996  0.00233  2.26372     13.71388   1.8886   0.5767  0.44639  0.03292     0.13347  1027.50742   9971.80223  0.26105         2410.91334     18.29617   0.0011  59461.23946  0.00281  0.00104    3356080.7237  45.30951   19.8948  59719.10515    51.69101       44.57049   36.62307  113.57439  224.0    0.00426  -20.22161  0.99997 
  -54.00207  0.00155  2.15801     13.75458  1.69685  0.39163  0.21609  0.02761     0.21599  1053.50159   9997.07451  0.00693         5115.24065     17.32905  0.00012  59455.53699  0.00143  0.00034   2271949.82797  45.47398  19.87684  59717.07522     51.5903        44.3379   48.83075  172.57139  202.0    0.00525  -20.26077  0.99999 
  -64.10167  0.00303  2.03145     13.36186  1.53033  0.79031  0.11895  0.27773     0.30295  1015.59235   9971.29307  0.11388         2684.96403     18.68035  0.00266  59445.43739  0.00073  0.00036  11078650.97426  44.79353  19.89139  59700.26172    51.56512       44.33401   36.62307  179.80472  204.0    0.00487  -20.27226  0.99999 
  -21.18249  0.00267  2.44031     14.22052  1.82343  0.07491  0.11908  0.06155     0.18945  1026.47038   9989.67636  3.05365         2103.76704     16.20029    1e-05  59488.35657  0.00075  0.00032    365225.18824  46.19228  19.92436  59704.87632    51.62374       44.48659   29.29845  127.70961  220.0    0.00404  -20.23802  0.99999 
  -35.29084  0.00255  2.38314     13.79909  1.70669  0.20923  0.12126  0.12558     0.19892  1047.61607   9727.18307  1.98978         2091.00248     16.75298    3e-05  59474.24822  0.00079  0.00031   2270325.61812  45.39061  19.87686  59707.21094    51.68328       44.54131   24.41538  139.16765  214.0    0.00392  -20.24016  0.99999 
  -42.35138  0.01533  1.99108     13.21288  1.31631  0.85242  0.27075  0.08872     0.12068  1071.93015   9766.36534  0.83783         2188.97738     16.34701    1e-05  59467.18769  0.00186  0.00415  18179595.06514  44.53044  19.89325  59707.21094    51.71265       44.62793   29.29845  102.54459  204.0    0.00468  -20.25573  0.99984 
  -67.65111   0.0019  2.45757     13.93568  1.94069  0.22715  1.35171  0.08159      0.0205   1004.9934   9968.96429  0.18054         2278.99682     18.47437  0.00166  59441.88795  0.00814  0.00257   1463587.12664  45.61037  19.92099  59704.87632    51.61741       44.46113   26.85692  141.60919  202.0    0.00538  -20.28136  0.99991 
  -33.33273   0.0034  2.70742     13.51075  1.91684  0.88671  0.40855  0.06449     0.10021  1016.25147   9656.83894  0.56143         3192.38037     16.36442    1e-05  59476.20633  0.00252  0.00139  12416790.52865  44.59231  19.90918  59715.06337    51.59609       44.39973    19.5323  168.20635  228.0      0.004  -20.22113  0.99995 
  -46.54414  0.00436   2.3621     14.20118  1.67461  0.10013  0.24984  0.09581      0.1161  1052.21716   9936.76328  0.22861         3642.67491     17.06017    6e-05  59462.99493  0.00165  0.00109    343533.62685  46.21019  19.90344  59710.97577    51.56057       44.30085   46.38922  187.99841  200.0    0.00503  -20.27303  0.99996 
  -50.38693  0.00114  2.23889     13.51775   1.5555  0.44157  0.19216   0.0183     0.20695  1072.31364   9901.57672  0.50764         2325.35947     18.21933  0.00092  59459.15213  0.00132  0.00022   6671947.73315   44.9364   19.8811  59715.06337    51.68748       44.56869   26.85692  119.63535  210.0    0.00442  -20.28624  0.99999 
  -52.32373  0.00226  2.60723     13.61555  2.10947  0.75535   0.1303  0.07738      0.3299  1005.63253   9889.65552  0.28811         2578.40133     17.70883  0.00028  59457.21534  0.00079  0.00029   7820674.37673  44.86742  19.90247  59698.77687    51.72277       44.71834   21.97384   80.57075  216.0    0.00469  -20.25048  0.99999 
  -64.04172   0.0022  2.40247     13.35715  1.96005  1.40556  0.51637  0.02564     0.06006  1016.86536     9923.632  0.00474         5883.23307     19.40237  0.01403  59445.49734  0.00319  0.00114  20281625.93978   44.4927  19.88626   59697.1875    51.65426       44.50642   51.27229  113.06039  198.0    0.00441  -20.28579  0.99997 
  -41.29039  0.01482  2.28452     13.32318  1.67945  1.33194  0.64638  0.04478      0.0643  1018.65509   9983.81768  0.19067         3544.55151     17.71321  0.00029  59468.24867    0.004  0.00958   18374592.3482  44.51221  19.91685  59704.30235    51.63035       44.47148   34.18153  133.57515  210.0    0.00443  -20.23979  0.99968 
  -54.15728   0.0016  2.33162     13.30585   1.6915  1.14864  0.14325  0.14876     0.29806   1063.1288   9982.33825  0.52495         2338.43847     17.26772   0.0001  59455.38179  0.00097  0.00023  20878545.96794   44.4421  19.92001  59692.67742    51.59846       44.39703    39.0646  144.05073  210.0    0.00422  -20.28617  0.99999 
  -38.96315  0.02939  2.46083     13.54673  1.71713  0.53925  0.15995  0.01388     0.23643  1014.71727   9877.98282  0.91285         2374.73332     16.26753    1e-05  59470.57592  0.00098   0.0047    7786042.0614  44.83017  19.89655  59703.27344    51.54522       44.34418   29.29845  161.14149  220.0    0.00314  -20.22931  0.99981 
  -36.38655  0.10863  2.35588     13.24641  1.55992  0.89637  0.14763  0.09464     0.20748  1068.05318   9837.66026  0.99785         2798.58797     16.76066    3e-05  59473.15251    0.001  0.01604  25846098.12713  44.30525  19.89097  59700.26172    51.72618       44.68939   21.97384    90.3369  214.0    0.00469  -20.26766  0.99927 
  -32.19252   0.0023  2.25872     13.22567  1.48561  1.02799  0.29047  0.05692     0.10952  1048.72058   9887.97996  1.03108         2584.08037     16.80007    4e-05  59477.34654  0.00191  0.00067  24894892.49426  44.33691  19.89738  59710.17188     51.6049       44.37755   31.73999  176.11092  212.0    0.00445  -20.24583  0.99997 
  -54.53137  0.00757  2.23369     13.71441  1.69778  0.37291  0.24813  0.14796     0.17153  1113.08331     9714.998  0.15665         3223.68679     19.94952  0.04946  59455.00769  0.00183  0.00188   2930433.79644  45.33375   19.9249  59714.02549    51.63042       44.48463   14.64923  136.72611  206.0     0.0043  -20.36065  0.99994 
  -50.29309  0.07501    1.926     13.29519  1.42379  1.03295  0.14736  0.29361     0.46119  1016.80847   9983.89852  0.10856         4468.45775     16.98857    5e-05  59459.24597  0.00091  0.01105  12594909.27853  44.75278  19.85215  59715.06337    51.59506       44.39761   29.29845  163.01053  236.0     0.0049   -20.2539  0.99967 
  -60.22442  0.00158  2.63759     13.57225   2.1088  0.62061  0.27013  0.03668     0.10466  1051.83188   9968.69286  0.06674         2146.30403     18.37146  0.00131  59449.31464  0.00178  0.00043   9767116.88996   44.7607  19.91435  59714.02549    51.63291       44.47887   26.85692  134.28458  194.0    0.00472  -20.29375  0.99999 
  -51.46824  0.00179  2.22404     13.90132  1.56668  0.20479  0.10286  0.25574     0.44549  1057.55244   9807.86785  0.18937         2767.27286     16.36636    1e-05  59458.07082  0.00069  0.00018    1133530.9743  45.71511  19.91763  59714.02549    51.48735       44.18768   31.73999  224.62147  214.0    0.00391  -20.27021  0.99999 
  -61.83735  0.00154  2.13869      13.1551  1.54738  1.17803  0.59259  0.06045     0.04826  1002.57352   9669.58495  0.14409         3585.53692     18.70998  0.00285  59447.70172  0.00355  0.00091  32174902.35865  44.29063  19.89525  59698.77687    51.73667       44.69949   31.73999   87.22092  214.0    0.00511  -20.27132  0.99997 
  -33.35057  0.00561  2.40288     13.46597  1.66812  0.67228  0.10078  0.08059     0.31751  1061.90397   9040.21168  1.45139          2139.4972     16.93558    5e-05  59476.18849  0.00068  0.00057  10461076.80688  44.71003  19.89083  59701.82659    51.78576       44.78076   24.41538   80.57075  226.0    0.00331  -20.24746  0.99998 
  -52.96189  0.02008   2.1741     13.26952  1.57017  1.43621  0.41757  0.01289      0.1316  1113.21581   9254.86423  0.39926         2246.48687     17.80836  0.00036  59456.57717  0.00309  0.00839   19919655.5139  44.49095  19.90668  59710.97577    51.57074       44.34852   29.29845  175.93065  228.0    0.00401  -20.29772  0.99972 
  -52.60707  0.00437  2.30184     13.48897  1.66912  0.60011  0.38014  0.22056     0.08466  1039.05126   9950.00636  0.36204         2652.24461      18.3096  0.00113    59456.932  0.00245  0.00166   8640149.27883  44.83066   19.8825  59704.30235    51.71899       44.61918    39.0646  104.98612  202.0    0.00473  -20.27205  0.99994 
  -62.06805  0.00489  2.20881     13.33286  1.65469  0.82054  1.46683  0.03677     0.02015  1053.22616    9735.6886  0.08681         2435.99419     18.28589  0.00107  59447.47101  0.00971  0.00717  16185877.94297  44.59011  19.89829  59719.10515    51.59745       44.41342   17.09076  156.24265  200.0    0.00548  -20.29523  0.99976 
  -72.11745  0.00108  2.17373     13.42324  1.67124  0.81351  0.10447  0.32114     0.49119  1005.29109    9986.5409  0.01683         3954.00584     17.89209  0.00043  59437.42161  0.00063  0.00011    10442190.399  44.79868  19.90423  59704.87632    51.77797       44.80985    9.76615   83.01228  218.0    0.00429  -20.25782      1.0 
  -66.51446  0.01716  2.28255     13.83996  1.73929  0.24903  0.63552  0.02726     0.05599  1019.21815   9902.71848  0.01616         3923.63453     18.76505  0.00323   59443.0246  0.00394  0.01091     1758350.741  45.54727  19.89922  59704.87632    51.56268       44.32041    19.5323  196.85796  206.0    0.00487  -20.29028  0.99963 
  -20.52559  0.01857  2.38512     13.39182  1.62602   0.6021  0.21036  0.04417     0.10958  1030.72547   9702.40722  2.77759         2054.86404     16.57017    2e-05  59489.01347  0.00133  0.00391  14135790.26898  44.57463  19.92296  59704.30235    51.62514       44.49857   12.20769  131.84304  214.0    0.00375  -20.20948  0.99983 
  -33.77915  0.00408  2.49049     13.37088  1.55702  0.69006  0.30986  0.19204     0.09355  1015.61495   9170.76794   1.5508         2781.68702     17.42498  0.00015  59475.75991  0.00191  0.00126  16252283.51438  44.45766  19.90626  59714.02549    51.59779        44.3785   26.85692  181.50469  238.0    0.00341  -20.20543  0.99994 
   -41.8526  0.01675  2.40162     13.57482  1.63614  0.44286  0.93882   0.0181     0.03022  1006.40957    9695.3928   1.3623         2472.75453     18.25784  0.00101  59467.68646  0.00567  0.01572   6208590.72266  44.92866  19.93901  59699.19141    51.53456       44.31638   41.50614  166.02457  224.0    0.00318  -20.23474  0.99934 
  -34.96865  0.00853  2.45472     13.40865    1.898  1.48915  0.21092  0.04749     0.15916  1037.42099   9791.67714  0.31572         2386.47228     18.73662  0.00303  59474.57041  0.00135   0.0018  16173807.93019  44.55833  19.93194  59710.97577    51.65974         44.541   31.73999  114.75227  200.0     0.0046   -20.2223  0.99994 
  -42.59893  0.01895  2.14065     13.36955  1.66664  1.18719  0.26939  0.04496     0.19007  1028.00394   9730.52195  0.42838         2227.50446     19.75295  0.03145  59466.94013   0.0017  0.00511   12931475.4712  44.71795  19.92281  59717.07522    51.66971       44.53554   29.29845  121.67967  224.0    0.00376  -20.24209  0.99985 
  -75.85874  0.00124  2.16672     13.05437  1.49392  1.30619   0.3582  0.22916     0.10296  1035.30218   9401.35424  0.68486         2630.04902     17.57348  0.00021  59433.68033  0.00229  0.00044   50699500.7653  44.06656  19.92829  59722.20312    51.61951       44.45999   17.09076  143.98805  238.0    0.00313  -20.28306  0.99998 
   -43.4583  0.00367  2.42351     13.69062  1.76774  0.39794  0.24476  0.01328     0.11837   1015.9885   9905.13756  0.42099         2477.03106     16.51941    2e-05  59466.08076  0.00151   0.0009    4007639.5452  45.14448  19.92745  59715.06337    51.65049       44.56019   12.20769  122.07689  202.0    0.00427  -20.22908  0.99997 
