# Wavelength Flux
# STATUS = PUBLIC
# OBJECT = 2019aamt
# TELESCOPE = P200
# INSTRUMENT =
# DATE-OBS = 2019.1105
# MJD =
# EXPTIME =
# SLIT =
# DISPERSER =
# SOURCE = 2023ApJ...943...41C
# FILTER =
# FLUX_STANDARD =
# EXTINCTION_CORRECTED = False
# PHOTOMETRY_CALIBRATED =
# FLUX_UNITS = erg/s/cm^2/Angstroms
# QUALITY =
# MIN_WAVE =
# MAX_WAVE =
# COMMENT =
3500.0 5.0787e-17
3501.525 5.1855e-17
3503.05 1.144e-16
3504.575 5.7646e-17
3506.1 7.0003e-17
3507.625 8.3884e-17
3509.15 7.4457e-17
3510.675 9.8963e-17
3512.2 5.6779e-17
3513.725 5.571e-17
3515.25 2.1475e-17
3516.775 4.8606e-17
3518.3 8.2295e-17
3519.825 7.0666e-17
3521.35 6.6234e-17
3522.875 8.5635e-17
3524.4 6.5731e-17
3525.925 7.11e-17
3527.45 7.9194e-17
3528.975 6.3746e-17
3530.5 2.313e-17
3532.025 3.6337e-17
3533.55 3.9767e-17
3535.075 4.627e-17
3536.6 3.6114e-17
3538.125 7.5592e-17
3539.65 7.2821e-17
3541.175 9.7048e-17
3542.7 1.1594e-16
3544.225 1.0484e-16
3545.75 5.3589e-17
3547.275 7.2644e-17
3548.8 6.5174e-17
3550.325 6.9266e-17
3551.85 5.3563e-17
3553.375 3.7922e-17
3554.9 6.8041e-17
3556.425 7.0416e-17
3557.95 5.4668e-17
3559.475 7.9184e-17
3561.0 7.8774e-17
3562.525 6.02e-17
3564.05 6.4272e-17
3565.575 6.8364e-17
3567.1 8.5737e-17
3568.625 9.5261e-17
3570.15 7.255e-17
3571.675 7.3148e-17
3573.2 5.8707e-17
3574.725 6.8375e-17
3576.25 6.8622e-17
3577.775 8.4424e-17
3579.3 6.0208e-17
3580.825 6.4282e-17
3582.35 7.7296e-17
3583.875 8.6148e-17
3585.4 8.4125e-17
3586.925 7.7708e-17
3588.45 5.9866e-17
3589.975 7.0777e-17
3591.5 7.0702e-17
3593.025 6.2391e-17
3594.55 5.7434e-17
3596.075 8.8662e-17
3597.6 1.0006e-16
3599.125 6.2238e-17
3600.65 1.2766e-16
3602.175 9.1885e-17
3603.7 7.7012e-17
3605.225 4.6165e-17
3606.75 8.1577e-17
3608.275 8.687e-17
3609.8 7.8375e-17
3611.325 7.3991e-17
3612.85 9.5365e-17
3614.375 8.6451e-17
3615.9 6.2275e-17
3617.425 8.1724e-17
3618.95 7.5104e-17
3620.475 6.2088e-17
3622.0 7.0637e-17
3623.525 6.6176e-17
3625.05 6.5161e-17
3626.575 5.6154e-17
3628.1 5.7381e-17
3629.625 5.2682e-17
3631.15 7.6933e-17
3632.675 5.5938e-17
3634.2 5.9118e-17
3635.725 5.9763e-17
3637.25 5.1176e-17
3638.775 5.4163e-17
3640.3 8.5906e-17
3641.825 6.836e-17
3643.35 3.889e-17
3644.875 7.6306e-17
3646.4 7.6945e-17
3647.925 4.4733e-17
3649.45 7.5804e-17
3650.975 6.7955e-17
3652.5 6.376e-17
3654.025 6.7221e-17
3655.55 8.4297e-17
3657.075 7.2879e-17
3658.6 7.1045e-17
3660.125 4.4554e-17
3661.65 1.6098e-17
3663.175 5.2148e-17
3664.7 8.3824e-17
3666.225 6.9023e-17
3667.75 7.06e-17
3669.275 6.0875e-17
3670.8 5.4678e-17
3672.325 4.9556e-17
3673.85 4.7666e-17
3675.375 7.374e-17
3676.9 1.0063e-16
3678.425 8.302e-17
3679.95 6.2004e-17
3681.475 5.4852e-17
3683.0 5.4104e-17
3684.525 6.9666e-17
3686.05 4.6246e-17
3687.575 5.6731e-17
3689.1 7.3231e-17
3690.625 7.0307e-17
3692.15 6.4028e-17
3693.675 4.7802e-17
3695.2 4.9016e-17
3696.725 7.3957e-17
3698.25 5.0177e-17
3699.775 3.3592e-17
3701.3 4.7794e-17
3702.825 8.5477e-17
3704.35 7.7361e-17
3705.875 6.5578e-17
3707.4 9.0575e-17
3708.925 6.4873e-17
3710.45 4.124e-17
3711.975 5.9569e-17
3713.5 6.4837e-17
3715.025 7.7995e-17
3716.55 6.845e-17
3718.075 4.6878e-17
3719.6 7.8808e-17
3721.125 6.8424e-17
3722.65 4.1594e-17
3724.175 5.5287e-17
3725.7 3.8645e-17
3727.225 3.1924e-17
3728.75 4.4504e-17
3730.275 8.5606e-17
3731.8 7.5034e-17
3733.325 5.3296e-17
3734.85 7.6823e-17
3736.375 6.9415e-17
3737.9 6.0451e-17
3739.425 7.0431e-17
3740.95 6.1187e-17
3742.475 7.0152e-17
3744.0 6.3281e-17
3745.525 7.2272e-17
3747.05 6.4096e-17
3748.575 7.9434e-17
3750.1 4.9936e-17
3751.625 6.2919e-17
3753.15 4.7383e-17
3754.675 4.4477e-17
3756.2 5.8382e-17
3757.725 6.2969e-17
3759.25 6.3594e-17
3760.775 5.6958e-17
3762.3 6.2513e-17
3763.825 6.3084e-17
3765.35 5.0198e-17
3766.875 4.523e-17
3768.4 5.9119e-17
3769.925 6.4098e-17
3771.45 7.2353e-17
3772.975 6.2433e-17
3774.5 6.1779e-17
3776.025 4.3084e-17
3777.55 4.9304e-17
3779.075 5.4503e-17
3780.6 4.7929e-17
3782.125 7.8943e-17
3783.65 4.6805e-17
3785.175 5.8993e-17
3786.7 8.0894e-17
3788.225 3.9404e-17
3789.75 5.1331e-17
3791.275 5.0004e-17
3792.8 5.8337e-17
3794.325 5.5247e-17
3795.85 4.4013e-17
3797.375 6.3368e-17
3798.9 6.8048e-17
3800.425 6.5586e-17
3801.95 6.3752e-17
3803.475 6.6576e-17
3805.0 5.7438e-17
3806.525 7.3009e-17
3808.05 6.5108e-17
3809.575 6.6777e-17
3811.1 7.9313e-17
3812.625 6.0457e-17
3814.15 5.0345e-17
3815.675 7.1456e-17
3817.2 6.3658e-17
3818.725 3.9449e-17
3820.25 5.0035e-17
3821.775 6.9528e-17
3823.3 5.8676e-17
3824.825 5.6387e-17
3826.35 6.9954e-17
3827.875 7.0259e-17
3829.4 7.8477e-17
3830.925 6.7228e-17
3832.45 8.6911e-17
3833.975 6.3164e-17
3835.5 7.4671e-17
3837.025 7.9613e-17
3838.55 6.1065e-17
3840.075 6.579e-17
3841.6 7.6946e-17
3843.125 7.7489e-17
3844.65 7.3293e-17
3846.175 5.6925e-17
3847.7 8.6751e-17
3849.225 8.3459e-17
3850.75 6.2484e-17
3852.275 6.6155e-17
3853.8 6.5125e-17
3855.325 6.4352e-17
3856.85 7.3927e-17
3858.375 7.1075e-17
3859.9 6.3999e-17
3861.425 7.3451e-17
3862.95 8.6706e-17
3864.475 7.6421e-17
3866.0 6.9173e-17
3867.525 8.894e-17
3869.05 7.3524e-17
3870.575 6.5595e-17
3872.1 7.6567e-17
3873.625 7.1525e-17
3875.15 8.4664e-17
3876.675 7.8412e-17
3878.2 6.6761e-17
3879.725 7.3557e-17
3881.25 6.7831e-17
3882.775 5.5212e-17
3884.3 7.4697e-17
3885.825 8.5381e-17
3887.35 7.525e-17
3888.875 6.672e-17
3890.4 7.6335e-17
3891.925 4.9558e-17
3893.45 4.6033e-17
3894.975 6.7567e-17
3896.5 6.6456e-17
3898.025 6.2425e-17
3899.55 6.2685e-17
3901.075 7.9773e-17
3902.6 6.7458e-17
3904.125 6.1603e-17
3905.65 5.8579e-17
3907.175 6.1059e-17
3908.7 6.6832e-17
3910.225 5.3382e-17
3911.75 5.9681e-17
3913.275 6.3708e-17
3914.8 7.8314e-17
3916.325 7.2944e-17
3917.85 7.6692e-17
3919.375 6.3249e-17
3920.9 6.2742e-17
3922.425 7.2838e-17
3923.95 6.8386e-17
3925.475 6.6675e-17
3927.0 7.5779e-17
3928.525 6.2499e-17
3930.05 5.8993e-17
3931.575 5.1543e-17
3933.1 5.647e-17
3934.625 5.2845e-17
3936.15 6.5933e-17
3937.675 6.434e-17
3939.2 6.2931e-17
3940.725 5.4564e-17
3942.25 5.8784e-17
3943.775 4.5921e-17
3945.3 6.5239e-17
3946.825 7.747e-17
3948.35 6.3434e-17
3949.875 5.9833e-17
3951.4 5.9115e-17
3952.925 7.8842e-17
3954.45 5.3838e-17
3955.975 5.2584e-17
3957.5 5.1262e-17
3959.025 6.3538e-17
3960.55 6.6215e-17
3962.075 7.4257e-17
3963.6 6.5106e-17
3965.125 5.6036e-17
3966.65 7.5362e-17
3968.175 7.0416e-17
3969.7 5.5389e-17
3971.225 5.5626e-17
3972.75 5.6475e-17
3974.275 6.0709e-17
3975.8 6.5399e-17
3977.325 6.1514e-17
3978.85 6.1699e-17
3980.375 5.1811e-17
3981.9 5.3455e-17
3983.425 6.1157e-17
3984.95 5.2615e-17
3986.475 5.0695e-17
3988.0 6.1196e-17
3989.525 5.1146e-17
3991.05 5.5135e-17
3992.575 6.5846e-17
3994.1 5.8555e-17
3995.625 5.9141e-17
3997.15 5.4773e-17
3998.675 5.8217e-17
4000.2 6.4654e-17
4001.725 5.6466e-17
4003.25 6.7588e-17
4004.775 5.588e-17
4006.3 4.7786e-17
4007.825 5.7435e-17
4009.35 6.2773e-17
4010.875 6.5841e-17
4012.4 5.8487e-17
4013.925 5.144e-17
4015.45 5.0539e-17
4016.975 5.5959e-17
4018.5 5.3297e-17
4020.025 6.1869e-17
4021.55 7.1918e-17
4023.075 8.3257e-17
4024.6 7.5184e-17
4026.125 7.2714e-17
4027.65 7.7799e-17
4029.175 6.9702e-17
4030.7 7.3638e-17
4032.225 7.1457e-17
4033.75 6.2439e-17
4035.275 7.199e-17
4036.8 6.3505e-17
4038.325 6.8932e-17
4039.85 6.8903e-17
4041.375 5.3324e-17
4042.9 6.2932e-17
4044.425 7.5528e-17
4045.95 5.8855e-17
4047.475 9.4113e-17
4049.0 8.7213e-17
4050.525 6.7263e-17
4052.05 5.7719e-17
4053.575 5.6026e-17
4055.1 5.653e-17
4056.625 6.6944e-17
4058.15 6.2501e-17
4059.675 7.365e-17
4061.2 8.0001e-17
4062.725 7.6621e-17
4064.25 8.1005e-17
4065.775 7.9712e-17
4067.3 7.8265e-17
4068.825 6.0831e-17
4070.35 6.7519e-17
4071.875 7.6928e-17
4073.4 7.7622e-17
4074.925 5.118e-17
4076.45 5.7907e-17
4077.975 6.4991e-17
4079.5 7.438e-17
4081.025 7.9232e-17
4082.55 7.6773e-17
4084.075 5.7314e-17
4085.6 5.0328e-17
4087.125 6.6566e-17
4088.65 5.5292e-17
4090.175 5.2222e-17
4091.7 6.3613e-17
4093.225 7.4795e-17
4094.75 6.3959e-17
4096.275 5.4059e-17
4097.8 7.6189e-17
4099.325 7.8098e-17
4100.85 7.2707e-17
4102.375 6.7855e-17
4103.9 6.12e-17
4105.425 5.9766e-17
4106.95 5.6491e-17
4108.475 6.6955e-17
4110.0 6.238e-17
4111.525 7.113e-17
4113.05 7.9828e-17
4114.575 7.9878e-17
4116.1 6.1744e-17
4117.625 6.8792e-17
4119.15 7.2889e-17
4120.675 7.1905e-17
4122.2 7.8651e-17
4123.725 7.3391e-17
4125.25 7.477e-17
4126.775 5.3583e-17
4128.3 6.0621e-17
4129.825 7.4901e-17
4131.35 7.274e-17
4132.875 7.9805e-17
4134.4 7.3514e-17
4135.925 6.9063e-17
4137.45 7.2404e-17
4138.975 6.2874e-17
4140.5 7.1878e-17
4142.025 7.3265e-17
4143.55 8.0467e-17
4145.075 8.8594e-17
4146.6 6.5332e-17
4148.125 5.5867e-17
4149.65 6.0316e-17
4151.175 7.4719e-17
4152.7 7.1599e-17
4154.225 5.6936e-17
4155.75 6.2276e-17
4157.275 6.0302e-17
4158.8 5.494e-17
4160.325 5.8817e-17
4161.85 5.5815e-17
4163.375 6.9701e-17
4164.9 8.0415e-17
4166.425 6.4279e-17
4167.95 5.9837e-17
4169.475 7.1274e-17
4171.0 6.2039e-17
4172.525 5.924e-17
4174.05 6.4466e-17
4175.575 5.8031e-17
4177.1 5.3993e-17
4178.625 6.1916e-17
4180.15 6.2367e-17
4181.675 7.4005e-17
4183.2 6.756e-17
4184.725 5.8056e-17
4186.25 6.1154e-17
4187.775 6.8983e-17
4189.3 6.4734e-17
4190.825 7.5288e-17
4192.35 6.9327e-17
4193.875 8.2421e-17
4195.4 6.6891e-17
4196.925 6.0949e-17
4198.45 7.8812e-17
4199.975 7.377e-17
4201.5 7.9592e-17
4203.025 7.4516e-17
4204.55 6.5437e-17
4206.075 5.3946e-17
4207.6 4.6681e-17
4209.125 6.5428e-17
4210.65 8.31e-17
4212.175 6.9428e-17
4213.7 6.3862e-17
4215.225 6.0473e-17
4216.75 6.1056e-17
4218.275 6.6646e-17
4219.8 6.0872e-17
4221.325 5.1124e-17
4222.85 4.3204e-17
4224.375 4.8134e-17
4225.9 7.2144e-17
4227.425 8.248e-17
4228.95 7.8387e-17
4230.475 7.5985e-17
4232.0 6.2015e-17
4233.525 7.0807e-17
4235.05 7.0893e-17
4236.575 6.0378e-17
4238.1 6.3179e-17
4239.625 6.4186e-17
4241.15 6.9884e-17
4242.675 7.3234e-17
4244.2 5.8833e-17
4245.725 6.6786e-17
4247.25 7.9946e-17
4248.775 7.8236e-17
4250.3 7.1375e-17
4251.825 6.4735e-17
4253.35 5.6447e-17
4254.875 5.607e-17
4256.4 7.2655e-17
4257.925 7.7156e-17
4259.45 7.2814e-17
4260.975 8.6554e-17
4262.5 7.2805e-17
4264.025 6.5889e-17
4265.55 6.4511e-17
4267.075 7.051e-17
4268.6 9.0626e-17
4270.125 7.6165e-17
4271.65 5.8939e-17
4273.175 6.7462e-17
4274.7 6.9636e-17
4276.225 7.7069e-17
4277.75 5.8142e-17
4279.275 4.7804e-17
4280.8 4.824e-17
4282.325 7.1711e-17
4283.85 8.1424e-17
4285.375 6.2053e-17
4286.9 6.0043e-17
4288.425 6.1002e-17
4289.95 7.3956e-17
4291.475 7.0442e-17
4293.0 8.0696e-17
4294.525 6.7302e-17
4296.05 6.0983e-17
4297.575 5.8881e-17
4299.1 8.2628e-17
4300.625 7.9944e-17
4302.15 8.1712e-17
4303.675 7.166e-17
4305.2 6.6805e-17
4306.725 5.6352e-17
4308.25 6.0134e-17
4309.775 6.9251e-17
4311.3 7.4252e-17
4312.825 6.554e-17
4314.35 7.3816e-17
4315.875 7.8898e-17
4317.4 8.8561e-17
4318.925 7.6198e-17
4320.45 6.7465e-17
4321.975 8.2707e-17
4323.5 6.7381e-17
4325.025 6.1356e-17
4326.55 6.2507e-17
4328.075 6.9451e-17
4329.6 6.8196e-17
4331.125 7.3877e-17
4332.65 7.3448e-17
4334.175 6.8347e-17
4335.7 8.4919e-17
4337.225 9.0159e-17
4338.75 7.318e-17
4340.275 7.6608e-17
4341.8 7.9948e-17
4343.325 8.382e-17
4344.85 7.1552e-17
4346.375 6.4677e-17
4347.9 7.0287e-17
4349.425 6.4013e-17
4350.95 7.6603e-17
4352.475 8.7387e-17
4354.0 8.6873e-17
4355.525 8.2442e-17
4357.05 9.7916e-17
4358.575 9.9647e-17
4360.1 8.0356e-17
4361.625 5.4685e-17
4363.15 7.5037e-17
4364.675 7.4419e-17
4366.2 6.5196e-17
4367.725 6.7324e-17
4369.25 6.7424e-17
4370.775 8.6165e-17
4372.3 9.4056e-17
4373.825 7.9257e-17
4375.35 6.644e-17
4376.875 7.4146e-17
4378.4 8.9669e-17
4379.925 8.802e-17
4381.45 8.4573e-17
4382.975 7.3965e-17
4384.5 5.6614e-17
4386.025 7.9837e-17
4387.55 7.3595e-17
4389.075 7.728e-17
4390.6 6.8838e-17
4392.125 8.6658e-17
4393.65 7.7522e-17
4395.175 8.4993e-17
4396.7 7.9142e-17
4398.225 8.2016e-17
4399.75 9.4468e-17
4401.275 9.0493e-17
4402.8 6.7023e-17
4404.325 6.3056e-17
4405.85 7.2892e-17
4407.375 7.2636e-17
4408.9 7.517e-17
4410.425 7.7472e-17
4411.95 6.4101e-17
4413.475 6.5869e-17
4415.0 7.5821e-17
4416.525 7.2373e-17
4418.05 6.8492e-17
4419.575 6.111e-17
4421.1 6.6603e-17
4422.625 7.0624e-17
4424.15 6.7056e-17
4425.675 6.4625e-17
4427.2 6.0277e-17
4428.725 7.1581e-17
4430.25 6.9561e-17
4431.775 6.9053e-17
4433.3 7.555e-17
4434.825 7.1471e-17
4436.35 7.6993e-17
4437.875 7.33e-17
4439.4 7.1457e-17
4440.925 8.1028e-17
4442.45 8.3115e-17
4443.975 6.8551e-17
4445.5 6.6052e-17
4447.025 7.4287e-17
4448.55 5.9403e-17
4450.075 6.0193e-17
4451.6 5.5726e-17
4453.125 7.0882e-17
4454.65 8.5258e-17
4456.175 8.3307e-17
4457.7 7.8619e-17
4459.225 8.7368e-17
4460.75 8.3924e-17
4462.275 8.3048e-17
4463.8 7.8142e-17
4465.325 7.137e-17
4466.85 6.3563e-17
4468.375 7.2726e-17
4469.9 7.1447e-17
4471.425 7.3038e-17
4472.95 7.947e-17
4474.475 6.3484e-17
4476.0 6.1873e-17
4477.525 8.0055e-17
4479.05 7.8466e-17
4480.575 7.2507e-17
4482.1 6.4021e-17
4483.625 6.0122e-17
4485.15 7.1748e-17
4486.675 7.6752e-17
4488.2 6.4779e-17
4489.725 6.5271e-17
4491.25 8.0852e-17
4492.775 8.3207e-17
4494.3 7.7015e-17
4495.825 6.6487e-17
4497.35 7.5455e-17
4498.875 8.9228e-17
4500.4 7.9217e-17
4501.925 6.5067e-17
4503.45 8.0401e-17
4504.975 8.517e-17
4506.5 6.3214e-17
4508.025 7.2555e-17
4509.55 8.501e-17
4511.075 8.0216e-17
4512.6 6.1675e-17
4514.125 6.1395e-17
4515.65 7.184e-17
4517.175 7.2918e-17
4518.7 8.4208e-17
4520.225 7.0623e-17
4521.75 9.4405e-17
4523.275 8.1979e-17
4524.8 7.3471e-17
4526.325 7.9697e-17
4527.85 7.8782e-17
4529.375 8.193e-17
4530.9 8.6147e-17
4532.425 7.8705e-17
4533.95 8.9041e-17
4535.475 8.9159e-17
4537.0 6.9483e-17
4538.525 5.0082e-17
4540.05 7.1354e-17
4541.575 9.2996e-17
4543.1 7.1668e-17
4544.625 7.0155e-17
4546.15 7.067e-17
4547.675 5.4495e-17
4549.2 6.9186e-17
4550.725 8.9055e-17
4552.25 7.0032e-17
4553.775 6.8889e-17
4555.3 6.738e-17
4556.825 7.8094e-17
4558.35 8.043e-17
4559.875 6.2967e-17
4561.4 5.4152e-17
4562.925 6.1845e-17
4564.45 7.1142e-17
4565.975 6.3719e-17
4567.5 8.0146e-17
4569.025 6.0601e-17
4570.55 6.5252e-17
4572.075 6.4397e-17
4573.6 6.0309e-17
4575.125 6.8493e-17
4576.65 5.7518e-17
4578.175 4.6467e-17
4579.7 6.4021e-17
4581.225 6.1703e-17
4582.75 6.4063e-17
4584.275 6.8242e-17
4585.8 7.4379e-17
4587.325 6.0764e-17
4588.85 6.0162e-17
4590.375 6.4962e-17
4591.9 6.4256e-17
4593.425 7.8679e-17
4594.95 6.6794e-17
4596.475 7.1533e-17
4598.0 6.6467e-17
4599.525 6.3022e-17
4601.05 6.0593e-17
4602.575 6.1284e-17
4604.1 6.4316e-17
4605.625 6.2961e-17
4607.15 4.8323e-17
4608.675 6.2419e-17
4610.2 7.4436e-17
4611.725 5.2403e-17
4613.25 5.5971e-17
4614.775 6.3528e-17
4616.3 9.6757e-17
4617.825 7.7023e-17
4619.35 6.7716e-17
4620.875 6.605e-17
4622.4 7.068e-17
4623.925 6.681e-17
4625.45 6.0193e-17
4626.975 6.637e-17
4628.5 6.3862e-17
4630.025 5.2339e-17
4631.55 4.4991e-17
4633.075 5.2884e-17
4634.6 6.8347e-17
4636.125 7.7717e-17
4637.65 7.1695e-17
4639.175 6.2562e-17
4640.7 6.2146e-17
4642.225 5.9976e-17
4643.75 5.8986e-17
4645.275 4.9577e-17
4646.8 6.9229e-17
4648.325 7.0172e-17
4649.85 7.6224e-17
4651.375 7.1582e-17
4652.9 7.9559e-17
4654.425 6.7866e-17
4655.95 5.7343e-17
4657.475 3.9704e-17
4659.0 5.9232e-17
4660.525 6.362e-17
4662.05 6.5283e-17
4663.575 7.0405e-17
4665.1 7.006e-17
4666.625 7.014e-17
4668.15 5.9938e-17
4669.675 6.0204e-17
4671.2 6.6196e-17
4672.725 7.1939e-17
4674.25 6.2578e-17
4675.775 5.5742e-17
4677.3 7.7358e-17
4678.825 6.261e-17
4680.35 6.6707e-17
4681.875 7.0162e-17
4683.4 8.3457e-17
4684.925 7.419e-17
4686.45 6.7387e-17
4687.975 6.1841e-17
4689.5 5.6399e-17
4691.025 7.0991e-17
4692.55 6.8776e-17
4694.075 6.8809e-17
4695.6 7.012e-17
4697.125 6.5159e-17
4698.65 6.5722e-17
4700.175 6.164e-17
4701.7 6.7014e-17
4703.225 6.2211e-17
4704.75 7.084e-17
4706.275 8.1904e-17
4707.8 6.4514e-17
4709.325 6.7994e-17
4710.85 6.6765e-17
4712.375 6.8775e-17
4713.9 7.5182e-17
4715.425 8.3112e-17
4716.95 7.9698e-17
4718.475 7.7722e-17
4720.0 6.5687e-17
4721.525 6.5761e-17
4723.05 6.5247e-17
4724.575 6.4547e-17
4726.1 6.8066e-17
4727.625 6.8266e-17
4729.15 9.3477e-17
4730.675 8.593e-17
4732.2 7.0003e-17
4733.725 8.9213e-17
4735.25 6.8388e-17
4736.775 6.381e-17
4738.3 4.7123e-17
4739.825 8.5669e-17
4741.35 9.1438e-17
4742.875 8.44e-17
4744.4 7.1786e-17
4745.925 6.9696e-17
4747.45 7.9979e-17
4748.975 7.6837e-17
4750.5 8.0235e-17
4752.025 8.0648e-17
4753.55 6.2942e-17
4755.075 7.1641e-17
4756.6 6.8585e-17
4758.125 6.5594e-17
4759.65 7.9729e-17
4761.175 8.1069e-17
4762.7 7.5407e-17
4764.225 8.6062e-17
4765.75 8.2066e-17
4767.275 7.3798e-17
4768.8 8.2535e-17
4770.325 8.1118e-17
4771.85 6.6542e-17
4773.375 7.675e-17
4774.9 8.7679e-17
4776.425 7.8579e-17
4777.95 6.781e-17
4779.475 7.0699e-17
4781.0 6.5532e-17
4782.525 6.8323e-17
4784.05 5.5097e-17
4785.575 7.9013e-17
4787.1 8.4022e-17
4788.625 7.6604e-17
4790.15 8.1267e-17
4791.675 7.07e-17
4793.2 8.5143e-17
4794.725 7.7186e-17
4796.25 7.8885e-17
4797.775 8.2296e-17
4799.3 7.288e-17
4800.825 6.9652e-17
4802.35 7.6151e-17
4803.875 8.6392e-17
4805.4 7.7133e-17
4806.925 7.6438e-17
4808.45 7.7637e-17
4809.975 8.0717e-17
4811.5 7.076e-17
4813.025 9.0555e-17
4814.55 8.0301e-17
4816.075 7.5016e-17
4817.6 8.1919e-17
4819.125 7.4243e-17
4820.65 7.8011e-17
4822.175 8.4476e-17
4823.7 7.243e-17
4825.225 7.2207e-17
4826.75 8.1046e-17
4828.275 7.8004e-17
4829.8 7.8039e-17
4831.325 7.0953e-17
4832.85 8.9329e-17
4834.375 7.6209e-17
4835.9 7.1005e-17
4837.425 8.6633e-17
4838.95 8.7955e-17
4840.475 5.7778e-17
4842.0 5.8978e-17
4843.525 6.8862e-17
4845.05 7.429e-17
4846.575 7.5496e-17
4848.1 7.0555e-17
4849.625 5.797e-17
4851.15 6.7724e-17
4852.675 7.4328e-17
4854.2 7.4394e-17
4855.725 7.1814e-17
4857.25 5.9937e-17
4858.775 7.1082e-17
4860.3 7.3163e-17
4861.825 6.7537e-17
4863.35 7.4e-17
4864.875 5.2524e-17
4866.4 6.117e-17
4867.925 8.0767e-17
4869.45 7.5646e-17
4870.975 6.3277e-17
4872.5 5.8357e-17
4874.025 6.0409e-17
4875.55 7.0272e-17
4877.075 7.7643e-17
4878.6 5.73e-17
4880.125 7.1693e-17
4881.65 7.441e-17
4883.175 6.3338e-17
4884.7 5.9418e-17
4886.225 6.4168e-17
4887.75 7.9518e-17
4889.275 7.8324e-17
4890.8 7.1579e-17
4892.325 6.2107e-17
4893.85 5.6828e-17
4895.375 6.3107e-17
4896.9 8.0214e-17
4898.425 6.459e-17
4899.95 7.0659e-17
4901.475 7.408e-17
4903.0 7.5027e-17
4904.525 6.895e-17
4906.05 7.2286e-17
4907.575 6.2573e-17
4909.1 6.7141e-17
4910.625 5.8581e-17
4912.15 7.0003e-17
4913.675 6.6638e-17
4915.2 6.3351e-17
4916.725 7.0707e-17
4918.25 6.0741e-17
4919.775 7.4426e-17
4921.3 7.4224e-17
4922.825 6.594e-17
4924.35 6.8985e-17
4925.875 7.4866e-17
4927.4 7.1135e-17
4928.925 8.1176e-17
4930.45 6.9699e-17
4931.975 7.2289e-17
4933.5 7.1031e-17
4935.025 5.8256e-17
4936.55 6.5238e-17
4938.075 7.6624e-17
4939.6 8.1343e-17
4941.125 7.9648e-17
4942.65 7.6341e-17
4944.175 6.9353e-17
4945.7 8.6331e-17
4947.225 6.7984e-17
4948.75 7.0951e-17
4950.275 7.5438e-17
4951.8 8.5143e-17
4953.325 6.3359e-17
4954.85 5.8619e-17
4956.375 9.1838e-17
4957.9 6.8974e-17
4959.425 6.8694e-17
4960.95 7.2226e-17
4962.475 6.742e-17
4964.0 8.2834e-17
4965.525 7.8523e-17
4967.05 6.4025e-17
4968.575 5.2831e-17
4970.1 6.8804e-17
4971.625 7.7513e-17
4973.15 6.9638e-17
4974.675 6.3073e-17
4976.2 6.7317e-17
4977.725 6.3699e-17
4979.25 7.4726e-17
4980.775 8.5661e-17
4982.3 7.6143e-17
4983.825 7.0868e-17
4985.35 6.9098e-17
4986.875 7.3967e-17
4988.4 7.7063e-17
4989.925 5.889e-17
4991.45 8.1191e-17
4992.975 7.7335e-17
4994.5 7.4022e-17
4996.025 7.2671e-17
4997.55 7.0881e-17
4999.075 6.6285e-17
5000.6 7.2884e-17
5002.125 8.0466e-17
5003.65 8.5824e-17
5005.175 8.6467e-17
5006.7 7.3588e-17
5008.225 6.6716e-17
5009.75 8.143e-17
5011.275 9.1044e-17
5012.8 7.9382e-17
5014.325 7.7965e-17
5015.85 8.9559e-17
5017.375 7.5202e-17
5018.9 7.8993e-17
5020.425 7.616e-17
5021.95 7.4534e-17
5023.475 7.3808e-17
5025.0 6.5266e-17
5026.525 8.0034e-17
5028.05 8.0391e-17
5029.575 6.4068e-17
5031.1 6.6922e-17
5032.625 6.7945e-17
5034.15 8.0838e-17
5035.675 8.0432e-17
5037.2 7.4167e-17
5038.725 6.9051e-17
5040.25 7.2055e-17
5041.775 6.0734e-17
5043.3 6.6285e-17
5044.825 8.5727e-17
5046.35 7.7543e-17
5047.875 8.2503e-17
5049.4 6.8886e-17
5050.925 5.8036e-17
5052.45 6.6602e-17
5053.975 5.84e-17
5055.5 5.9257e-17
5057.025 7.2397e-17
5058.55 7.2519e-17
5060.075 6.947e-17
5061.6 7.0462e-17
5063.125 5.146e-17
5064.65 6.5542e-17
5066.175 6.6104e-17
5067.7 7.2263e-17
5069.225 6.5275e-17
5070.75 6.5563e-17
5072.275 7.0174e-17
5073.8 5.9137e-17
5075.325 6.2287e-17
5076.85 7.4448e-17
5078.375 7.7846e-17
5079.9 8.4738e-17
5081.425 7.9312e-17
5082.95 6.842e-17
5084.475 8.0564e-17
5086.0 7.2231e-17
5087.525 6.4429e-17
5089.05 8.3836e-17
5090.575 7.7169e-17
5092.1 7.1914e-17
5093.625 8.4247e-17
5095.15 8.6905e-17
5096.675 7.9133e-17
5098.2 7.5221e-17
5099.725 7.192e-17
5101.25 7.8188e-17
5102.775 6.7026e-17
5104.3 5.886e-17
5105.825 6.6186e-17
5107.35 5.4744e-17
5108.875 6.6431e-17
5110.4 6.3395e-17
5111.925 6.3348e-17
5113.45 6.5401e-17
5114.975 6.5648e-17
5116.5 7.1364e-17
5118.025 5.7077e-17
5119.55 5.7581e-17
5121.075 6.8201e-17
5122.6 7.0795e-17
5124.125 6.4341e-17
5125.65 6.5384e-17
5127.175 6.0242e-17
5128.7 7.2452e-17
5130.225 7.645e-17
5131.75 7.6191e-17
5133.275 6.1242e-17
5134.8 6.4105e-17
5136.325 5.7621e-17
5137.85 6.4553e-17
5139.375 6.9683e-17
5140.9 6.6358e-17
5142.425 5.8026e-17
5143.95 6.029e-17
5145.475 6.9124e-17
5147.0 7.6251e-17
5148.525 7.4654e-17
5150.05 6.5086e-17
5151.575 6.7378e-17
5153.1 6.4258e-17
5154.625 6.2426e-17
5156.15 6.1761e-17
5157.675 7.599e-17
5159.2 7.0598e-17
5160.725 5.1287e-17
5162.25 5.865e-17
5163.775 6.6011e-17
5165.3 6.2586e-17
5166.825 5.6445e-17
5168.35 6.3394e-17
5169.875 6.4144e-17
5171.4 6.9518e-17
5172.925 5.4989e-17
5174.45 6.1843e-17
5175.975 7.6873e-17
5177.5 8.5033e-17
5179.025 6.166e-17
5180.55 6.1049e-17
5182.075 5.1707e-17
5183.6 5.392e-17
5185.125 6.3335e-17
5186.65 6.4271e-17
5188.175 5.9203e-17
5189.7 7.1154e-17
5191.225 7.9711e-17
5192.75 5.9407e-17
5194.275 5.8205e-17
5195.8 5.6782e-17
5197.325 6.6382e-17
5198.85 6.7377e-17
5200.375 6.4304e-17
5201.9 5.3787e-17
5203.425 4.3879e-17
5204.95 5.575e-17
5206.475 6.5764e-17
5208.0 7.6887e-17
5209.525 7.3786e-17
5211.05 5.9505e-17
5212.575 5.8736e-17
5214.1 6.3406e-17
5215.625 5.9248e-17
5217.15 5.5807e-17
5218.675 5.7721e-17
5220.2 6.4061e-17
5221.725 8.5451e-17
5223.25 7.7021e-17
5224.775 5.2634e-17
5226.3 5.597e-17
5227.825 5.4451e-17
5229.35 6.4016e-17
5230.875 6.5874e-17
5232.4 5.5665e-17
5233.925 6.4509e-17
5235.45 7.4264e-17
5236.975 6.6567e-17
5238.5 6.1253e-17
5240.025 5.3962e-17
5241.55 6.6521e-17
5243.075 6.2325e-17
5244.6 5.9843e-17
5246.125 6.1286e-17
5247.65 5.5106e-17
5249.175 6.0512e-17
5250.7 6.8093e-17
5252.225 6.9074e-17
5253.75 6.8309e-17
5255.275 6.7654e-17
5256.8 6.2022e-17
5258.325 6.4997e-17
5259.85 5.348e-17
5261.375 4.7875e-17
5262.9 5.8307e-17
5264.425 6.1376e-17
5265.95 6.9809e-17
5267.475 5.9229e-17
5269.0 5.6499e-17
5270.525 7.7477e-17
5272.05 6.8602e-17
5273.575 6.2723e-17
5275.1 7.2961e-17
5276.625 6.9548e-17
5278.15 5.6113e-17
5279.675 7.0314e-17
5281.2 6.9243e-17
5282.725 6.4932e-17
5284.25 7.1175e-17
5285.775 6.1355e-17
5287.3 6.1156e-17
5288.825 7.3244e-17
5290.35 6.146e-17
5291.875 6.5386e-17
5293.4 6.1168e-17
5294.925 5.3287e-17
5296.45 7.7374e-17
5297.975 8.1995e-17
5299.5 7.8392e-17
5301.025 6.2567e-17
5302.55 6.2476e-17
5304.075 5.0132e-17
5305.6 4.3997e-17
5307.125 6.9728e-17
5308.65 6.5549e-17
5310.175 5.7805e-17
5311.7 6.7504e-17
5313.225 6.9199e-17
5314.75 7.6066e-17
5316.275 6.8951e-17
5317.8 5.9813e-17
5319.325 6.2702e-17
5320.85 4.9937e-17
5322.375 4.8161e-17
5323.9 5.543e-17
5325.425 5.7544e-17
5326.95 6.4239e-17
5328.475 4.7962e-17
5330.0 4.535e-17
5331.525 5.9349e-17
5333.05 5.6714e-17
5334.575 3.9576e-17
5336.1 4.3808e-17
5337.625 5.0763e-17
5339.15 6.9395e-17
5340.675 7.0907e-17
5342.2 6.4623e-17
5343.725 6.0724e-17
5345.25 6.9134e-17
5346.775 6.3338e-17
5348.3 5.6834e-17
5349.825 7.262e-17
5351.35 6.0568e-17
5352.875 4.7305e-17
5354.4 6.627e-17
5355.925 8.8114e-17
5357.45 7.1339e-17
5358.975 7.4353e-17
5360.5 5.3633e-17
5362.025 5.488e-17
5363.55 7.2679e-17
5365.075 5.1331e-17
5366.6 5.6071e-17
5368.125 5.0273e-17
5369.65 5.5206e-17
5371.175 6.5366e-17
5372.7 6.1137e-17
5374.225 5.9964e-17
5375.75 6.9576e-17
5377.275 6.0741e-17
5378.8 6.2639e-17
5380.325 7.4588e-17
5381.85 8.4463e-17
5383.375 7.9504e-17
5384.9 7.8977e-17
5386.425 6.9199e-17
5387.95 7.8237e-17
5389.475 6.4215e-17
5391.0 4.2991e-17
5392.525 3.1412e-17
5394.05 7.1615e-17
5395.575 7.9769e-17
5397.1 6.6357e-17
5398.625 6.4759e-17
5400.15 6.244e-17
5401.675 7.5538e-17
5403.2 5.4322e-17
5404.725 5.7731e-17
5406.25 7.8332e-17
5407.775 8.7066e-17
5409.3 5.578e-17
5410.825 7.2212e-17
5412.35 7.477e-17
5413.875 4.866e-17
5415.4 5.684e-17
5416.925 4.1434e-17
5418.45 6.5933e-17
5419.975 9.3536e-17
5421.5 5.4355e-17
5423.025 5.4713e-17
5424.55 6.8228e-17
5426.075 8.5274e-17
5427.6 8.1629e-17
5429.125 7.8049e-17
5430.65 5.6989e-17
5432.175 5.6973e-17
5433.7 7.5692e-17
5435.225 6.9363e-17
5436.75 5.2105e-17
5438.275 3.9127e-17
5439.8 7.5307e-17
5441.325 5.79e-17
5442.85 6.5357e-17
5444.375 6.3651e-17
5445.9 7.1614e-17
5447.425 7.5477e-17
5448.95 8.4673e-17
5450.475 5.1024e-17
5452.0 6.4928e-17
5453.525 8.9008e-17
5455.05 7.7207e-17
5456.575 6.8261e-17
5458.1 6.314e-17
5459.625 5.9898e-17
5461.15 8.1142e-17
5462.675 1.0247e-16
5464.2 6.4036e-17
5465.725 7.3726e-17
5467.25 7.496e-17
5468.775 4.6826e-17
5470.3 3.6794e-17
5471.825 8.3403e-17
5473.35 9.9101e-17
5474.875 5.4285e-17
5476.4 7.5402e-17
5477.925 9.5584e-17
5479.45 6.1015e-17
5480.975 7.7104e-17
5482.5 6.7572e-17
5484.025 6.5514e-17
5485.55 7.1969e-17
5487.075 6.9498e-17
5488.6 7.8196e-17
5490.125 7.5291e-17
5491.65 6.9171e-17
5493.175 7.8027e-17
5494.7 8.4579e-17
5496.225 7.1801e-17
5497.75 8.4843e-17
5499.275 7.7574e-17
5500.8 7.0411e-17
5502.325 7.8399e-17
5503.85 8.3813e-17
5505.375 7.0272e-17
5506.9 7.7966e-17
5508.425 8.7259e-17
5509.95 6.3279e-17
5511.475 6.4738e-17
5513.0 7.9596e-17
5514.525 7.8322e-17
5516.05 6.7392e-17
5517.575 7.2012e-17
5519.1 8.1386e-17
5520.625 7.9163e-17
5522.15 6.7404e-17
5523.675 6.8706e-17
5525.2 7.5272e-17
5526.725 8.2693e-17
5528.25 8.481e-17
5529.775 7.8033e-17
5531.3 7.1055e-17
5532.825 7.1605e-17
5534.35 6.4941e-17
5535.875 6.2505e-17
5537.4 6.6905e-17
5538.925 7.6495e-17
5540.45 7.5875e-17
5541.975 8.3507e-17
5543.5 1.0206e-16
5545.025 9.8517e-17
5546.55 7.7164e-17
5548.075 6.8794e-17
5549.6 7.6574e-17
5551.125 8.4032e-17
5552.65 8.5544e-17
5554.175 8.4649e-17
5555.7 7.4234e-17
5557.225 7.5358e-17
5558.75 7.9406e-17
5560.275 7.8194e-17
5561.8 7.0809e-17
5563.325 6.7119e-17
5564.85 7.2155e-17
5566.375 8.6739e-17
5567.9 7.6286e-17
5569.425 6.2951e-17
5570.95 5.8522e-17
5572.475 6.5003e-17
5574.0 8.0008e-17
5575.525 1.0849e-16
5577.05 9.3253e-17
5578.575 7.4583e-17
5580.1 6.0854e-17
5581.625 6.5109e-17
5583.15 8.2387e-17
5584.675 7.776e-17
5586.2 8.1803e-17
5587.725 7.1101e-17
5589.25 6.2139e-17
5590.775 7.2105e-17
5592.3 7.421e-17
5593.825 7.8486e-17
5595.35 6.7283e-17
5596.875 5.8508e-17
5598.4 6.4237e-17
5599.925 7.0023e-17
5601.45 7.5886e-17
5602.975 7.9692e-17
5604.5 8.6792e-17
5606.025 8.0391e-17
5607.55 6.7562e-17
5609.075 7.9616e-17
5610.6 7.4309e-17
5612.125 5.564e-17
5613.65 6.4309e-17
5615.175 6.8429e-17
5616.7 7.3532e-17
5618.225 7.5244e-17
5619.75 7.0731e-17
5621.275 6.0794e-17
5622.8 5.1881e-17
5624.325 6.2263e-17
5625.85 7.9012e-17
5627.375 7.7492e-17
5628.9 7.8195e-17
5630.425 8.0426e-17
5631.95 7.5208e-17
5633.475 7.1044e-17
5635.0 6.9361e-17
5636.525 7.0281e-17
5638.05 6.4211e-17
5639.575 5.0328e-17
5641.1 6.6975e-17
5642.625 7.3394e-17
5644.15 7.2436e-17
5645.675 6.9028e-17
5647.2 6.6466e-17
5648.725 5.7006e-17
5650.25 5.2611e-17
5651.775 7.3174e-17
5653.3 7.8215e-17
5654.825 6.7281e-17
5656.35 6.8895e-17
5657.875 7.2346e-17
5659.4 6.6447e-17
5660.925 5.9647e-17
5662.45 5.5019e-17
5663.975 6.8949e-17
5665.5 7.7038e-17
5667.025 7.0362e-17
5668.55 5.5918e-17
5670.075 5.2955e-17
5671.6 6.9023e-17
5673.125 7.5872e-17
5674.65 6.3616e-17
5676.175 5.6458e-17
5677.7 5.9584e-17
5679.225 6.0337e-17
5680.75 6.407e-17
5682.275 6.3773e-17
5683.8 6.85e-17
5685.325 7.5309e-17
5686.85 6.4592e-17
5688.375 5.4465e-17
5689.9 6.523e-17
5691.425 7.6793e-17
5692.95 7.5168e-17
5694.475 6.5309e-17
5696.0 5.7832e-17
5697.525 6.029e-17
5699.05 6.3088e-17
5700.575 6.0327e-17
5702.1 5.3348e-17
5703.625 5.1314e-17
5705.15 5.9108e-17
5706.675 6.876e-17
5708.2 7.017e-17
5709.725 6.3398e-17
5711.25 6.3647e-17
5712.775 7.1977e-17
5714.3 7.3555e-17
5715.825 7.364e-17
5717.35 6.958e-17
5718.875 6.6887e-17
5720.4 7.3915e-17
5721.925 7.478e-17
5723.45 7.4444e-17
5724.975 7.1658e-17
5726.5 5.9872e-17
5728.025 5.9278e-17
5729.55 6.6326e-17
5731.075 7.0601e-17
5732.6 6.9409e-17
5734.125 5.9872e-17
5735.65 5.9427e-17
5737.175 6.042e-17
5738.7 5.3323e-17
5740.225 5.3267e-17
5741.75 5.4866e-17
5743.275 5.2586e-17
5744.8 6.0114e-17
5746.325 6.4318e-17
5747.85 6.7014e-17
5749.375 7.1614e-17
5750.9 6.5499e-17
5752.425 6.3143e-17
5753.95 6.5588e-17
5755.475 6.2755e-17
5757.0 6.3283e-17
5758.525 6.4332e-17
5760.05 5.6856e-17
5761.575 5.4803e-17
5763.1 5.6879e-17
5764.625 5.1993e-17
5766.15 5.3128e-17
5767.675 6.2971e-17
5769.2 6.5371e-17
5770.725 6.2618e-17
5772.25 6.3567e-17
5773.775 6.7001e-17
5775.3 6.898e-17
5776.825 6.6881e-17
5778.35 6.4541e-17
5779.875 6.4845e-17
5781.4 6.4084e-17
5782.925 5.5643e-17
5784.45 5.6653e-17
5785.975 7.4621e-17
5787.5 7.9241e-17
5789.025 6.3634e-17
5790.55 5.6324e-17
5792.075 5.9894e-17
5793.6 6.3892e-17
5795.125 6.5782e-17
5796.65 6.4082e-17
5798.175 6.6104e-17
5799.7 6.1987e-17
5801.225 5.9038e-17
5802.75 5.7714e-17
5804.275 5.2977e-17
5805.8 5.672e-17
5807.325 6.3177e-17
5808.85 7.1592e-17
5810.375 7.3985e-17
5811.9 6.4891e-17
5813.425 6.2282e-17
5814.95 6.3941e-17
5816.475 5.8876e-17
5818.0 5.6392e-17
5819.525 5.1909e-17
5821.05 4.6505e-17
5822.575 4.7874e-17
5824.1 4.8224e-17
5825.625 5.286e-17
5827.15 5.9651e-17
5828.675 5.6646e-17
5830.2 5.5862e-17
5831.725 6.4853e-17
5833.25 6.6119e-17
5834.775 5.7397e-17
5836.3 5.4784e-17
5837.825 5.7636e-17
5839.35 5.8036e-17
5840.875 6.6021e-17
5842.4 7.3544e-17
5843.925 6.2694e-17
5845.45 4.9709e-17
5846.975 4.82e-17
5848.5 5.3623e-17
5850.025 6.0802e-17
5851.55 6.2313e-17
5853.075 6.1407e-17
5854.6 6.4098e-17
5856.125 6.5063e-17
5857.65 6.472e-17
5859.175 5.9153e-17
5860.7 5.2715e-17
5862.225 5.4438e-17
5863.75 5.6551e-17
5865.275 5.1475e-17
5866.8 5.1174e-17
5868.325 6.1191e-17
5869.85 6.51e-17
5871.375 6.3328e-17
5872.9 6.0597e-17
5874.425 6.0488e-17
5875.95 6.6809e-17
5877.475 6.5975e-17
5879.0 5.9553e-17
5880.525 5.6042e-17
5882.05 5.5638e-17
5883.575 5.9913e-17
5885.1 6.2497e-17
5886.625 5.7966e-17
5888.15 6.0053e-17
5889.675 6.3147e-17
5891.2 5.2377e-17
5892.725 6.0428e-17
5894.25 7.3392e-17
5895.775 6.938e-17
5897.3 6.5272e-17
5898.825 6.5024e-17
5900.35 6.8444e-17
5901.875 5.7222e-17
5903.4 5.0852e-17
5904.925 6.1515e-17
5906.45 5.6943e-17
5907.975 4.5922e-17
5909.5 4.8306e-17
5911.025 5.3999e-17
5912.55 5.2413e-17
5914.075 4.4781e-17
5915.6 4.4736e-17
5917.125 5.2624e-17
5918.65 6.2215e-17
5920.175 6.5918e-17
5921.7 6.0825e-17
5923.225 6.4698e-17
5924.75 7.3471e-17
5926.275 7.8783e-17
5927.8 8.4793e-17
5929.325 8.2313e-17
5930.85 8.0309e-17
5932.375 7.1943e-17
5933.9 5.7539e-17
5935.425 6.3525e-17
5936.95 6.5789e-17
5938.475 5.8163e-17
5940.0 5.6205e-17
5941.525 5.869e-17
5943.05 6.0244e-17
5944.575 5.0057e-17
5946.1 4.8602e-17
5947.625 6.6314e-17
5949.15 6.7646e-17
5950.675 5.2327e-17
5952.2 5.5821e-17
5953.725 7.2031e-17
5955.25 7.6018e-17
5956.775 6.5419e-17
5958.3 5.2106e-17
5959.825 5.529e-17
5961.35 6.6956e-17
5962.875 6.5527e-17
5964.4 6.1705e-17
5965.925 6.5104e-17
5967.45 7.0501e-17
5968.975 6.9555e-17
5970.5 6.4404e-17
5972.025 6.2259e-17
5973.55 6.0093e-17
5975.075 5.8784e-17
5976.6 6.3672e-17
5978.125 6.9889e-17
5979.65 6.7056e-17
5981.175 5.711e-17
5982.7 5.4552e-17
5984.225 6.7021e-17
5985.75 7.5654e-17
5987.275 6.7908e-17
5988.8 5.8491e-17
5990.325 5.6087e-17
5991.85 6.142e-17
5993.375 6.8691e-17
5994.9 6.6958e-17
5996.425 6.2267e-17
5997.95 6.272e-17
5999.475 7.1223e-17
6001.0 7.8015e-17
6002.525 6.3207e-17
6004.05 4.9648e-17
6005.575 5.541e-17
6007.1 6.3369e-17
6008.625 6.32e-17
6010.15 5.3938e-17
6011.675 4.869e-17
6013.2 5.1481e-17
6014.725 6.3906e-17
6016.25 7.4779e-17
6017.775 6.8239e-17
6019.3 6.7123e-17
6020.825 7.0657e-17
6022.35 6.5661e-17
6023.875 6.783e-17
6025.4 6.6186e-17
6026.925 5.1802e-17
6028.45 5.3893e-17
6029.975 7.0642e-17
6031.5 7.2548e-17
6033.025 6.7854e-17
6034.55 6.8793e-17
6036.075 5.7969e-17
6037.6 5.4107e-17
6039.125 6.5892e-17
6040.65 6.3747e-17
6042.175 5.3976e-17
6043.7 5.2664e-17
6045.225 5.2476e-17
6046.75 4.8798e-17
6048.275 5.171e-17
6049.8 6.0758e-17
6051.325 6.4875e-17
6052.85 6.4769e-17
6054.375 6.7868e-17
6055.9 6.3234e-17
6057.425 5.8901e-17
6058.95 6.9028e-17
6060.475 7.5419e-17
6062.0 6.9076e-17
6063.525 6.5682e-17
6065.05 6.5937e-17
6066.575 6.0972e-17
6068.1 6.3797e-17
6069.625 6.6262e-17
6071.15 5.9627e-17
6072.675 6.4292e-17
6074.2 7.2775e-17
6075.725 7.4123e-17
6077.25 7.5672e-17
6078.775 6.9633e-17
6080.3 5.8353e-17
6081.825 5.6434e-17
6083.35 6.2957e-17
6084.875 7.2144e-17
6086.4 7.3489e-17
6087.925 6.4489e-17
6089.45 5.7448e-17
6090.975 5.3976e-17
6092.5 5.3365e-17
6094.025 5.2565e-17
6095.55 5.15e-17
6097.075 5.743e-17
6098.6 6.5306e-17
6100.125 6.6362e-17
6101.65 6.1739e-17
6103.175 5.5734e-17
6104.7 5.7514e-17
6106.225 6.4838e-17
6107.75 6.6432e-17
6109.275 6.2259e-17
6110.8 5.8244e-17
6112.325 6.3137e-17
6113.85 5.5217e-17
6115.375 4.0798e-17
6116.9 5.2167e-17
6118.425 6.6817e-17
6119.95 6.2198e-17
6121.475 5.0546e-17
6123.0 5.6388e-17
6124.525 6.9038e-17
6126.05 6.3948e-17
6127.575 5.9967e-17
6129.1 6.9205e-17
6130.625 6.9056e-17
6132.15 6.0367e-17
6133.675 6.1141e-17
6135.2 6.3603e-17
6136.725 5.6818e-17
6138.25 5.1778e-17
6139.775 5.6883e-17
6141.3 5.8936e-17
6142.825 5.8581e-17
6144.35 6.2704e-17
6145.875 5.7235e-17
6147.4 4.7656e-17
6148.925 4.6664e-17
6150.45 5.3875e-17
6151.975 6.3462e-17
6153.5 5.8983e-17
6155.025 5.2885e-17
6156.55 6.0507e-17
6158.075 5.9464e-17
6159.6 4.8808e-17
6161.125 5.5662e-17
6162.65 7.0805e-17
6164.175 6.7417e-17
6165.7 5.6237e-17
6167.225 5.8027e-17
6168.75 6.4109e-17
6170.275 5.9751e-17
6171.8 5.7016e-17
6173.325 6.145e-17
6174.85 6.0651e-17
6176.375 5.7123e-17
6177.9 5.873e-17
6179.425 6.0024e-17
6180.95 5.7313e-17
6182.475 5.4285e-17
6184.0 5.5086e-17
6185.525 5.7228e-17
6187.05 5.807e-17
6188.575 6.2818e-17
6190.1 6.6032e-17
6191.625 6.4524e-17
6193.15 6.318e-17
6194.675 5.891e-17
6196.2 5.8332e-17
6197.725 6.5847e-17
6199.25 6.3569e-17
6200.775 5.762e-17
6202.3 6.0747e-17
6203.825 6.1937e-17
6205.35 5.8365e-17
6206.875 5.4696e-17
6208.4 5.4008e-17
6209.925 5.6198e-17
6211.45 5.4073e-17
6212.975 5.4702e-17
6214.5 5.9882e-17
6216.025 6.3176e-17
6217.55 6.2264e-17
6219.075 5.611e-17
6220.6 5.2463e-17
6222.125 5.339e-17
6223.65 5.6956e-17
6225.175 6.2403e-17
6226.7 6.9165e-17
6228.225 6.9638e-17
6229.75 6.5899e-17
6231.275 6.6809e-17
6232.8 6.1689e-17
6234.325 5.5666e-17
6235.85 6.234e-17
6237.375 6.5629e-17
6238.9 5.9741e-17
6240.425 5.7312e-17
6241.95 6.1498e-17
6243.475 6.9217e-17
6245.0 6.4054e-17
6246.525 5.613e-17
6248.05 5.4296e-17
6249.575 4.9699e-17
6251.1 5.6023e-17
6252.625 6.356e-17
6254.15 5.5969e-17
6255.675 5.193e-17
6257.2 5.6625e-17
6258.725 6.3808e-17
6260.25 6.3538e-17
6261.775 5.4966e-17
6263.3 5.331e-17
6264.825 5.927e-17
6266.35 6.4819e-17
6267.875 6.5855e-17
6269.4 6.0447e-17
6270.925 5.7473e-17
6272.45 5.86e-17
6273.975 6.0252e-17
6275.5 6.1249e-17
6277.025 6.3438e-17
6278.55 5.9373e-17
6280.075 4.8915e-17
6281.6 5.0173e-17
6283.125 5.7944e-17
6284.65 6.6481e-17
6286.175 7.0425e-17
6287.7 6.1917e-17
6289.225 5.4124e-17
6290.75 5.3243e-17
6292.275 5.4371e-17
6293.8 5.9247e-17
6295.325 5.9545e-17
6296.85 6.0205e-17
6298.375 6.9462e-17
6299.9 6.3329e-17
6301.425 4.9962e-17
6302.95 5.1312e-17
6304.475 5.868e-17
6306.0 6.3088e-17
6307.525 6.4436e-17
6309.05 5.9624e-17
6310.575 5.9133e-17
6312.1 6.2815e-17
6313.625 6.0097e-17
6315.15 5.8886e-17
6316.675 5.9277e-17
6318.2 6.267e-17
6319.725 6.4754e-17
6321.25 6.0108e-17
6322.775 5.5419e-17
6324.3 5.1991e-17
6325.825 5.7351e-17
6327.35 5.7924e-17
6328.875 5.4144e-17
6330.4 5.7657e-17
6331.925 5.6783e-17
6333.45 5.9551e-17
6334.975 6.131e-17
6336.5 5.4753e-17
6338.025 5.263e-17
6339.55 6.2035e-17
6341.075 6.8175e-17
6342.6 6.5395e-17
6344.125 6.3974e-17
6345.65 6.3419e-17
6347.175 5.9545e-17
6348.7 5.6764e-17
6350.225 5.9688e-17
6351.75 5.5856e-17
6353.275 5.5664e-17
6354.8 6.398e-17
6356.325 6.4122e-17
6357.85 5.9829e-17
6359.375 5.5506e-17
6360.9 5.711e-17
6362.425 5.6354e-17
6363.95 5.9506e-17
6365.475 6.3598e-17
6367.0 5.1531e-17
6368.525 4.4879e-17
6370.05 5.2874e-17
6371.575 5.6817e-17
6373.1 5.0962e-17
6374.625 5.519e-17
6376.15 6.6699e-17
6377.675 6.5334e-17
6379.2 5.8503e-17
6380.725 5.797e-17
6382.25 6.1674e-17
6383.775 5.6349e-17
6385.3 5.0251e-17
6386.825 5.0199e-17
6388.35 4.6097e-17
6389.875 5.0196e-17
6391.4 5.9236e-17
6392.925 5.8751e-17
6394.45 6.155e-17
6395.975 6.2074e-17
6397.5 5.7882e-17
6399.025 5.4992e-17
6400.55 5.4916e-17
6402.075 6.0248e-17
6403.6 5.7669e-17
6405.125 5.3136e-17
6406.65 5.2179e-17
6408.175 5.4946e-17
6409.7 5.722e-17
6411.225 4.6446e-17
6412.75 3.9438e-17
6414.275 4.8169e-17
6415.8 5.5476e-17
6417.325 5.5905e-17
6418.85 5.2833e-17
6420.375 4.5427e-17
6421.9 4.2115e-17
6423.425 5.0406e-17
6424.95 5.6696e-17
6426.475 5.753e-17
6428.0 5.7332e-17
6429.525 5.2722e-17
6431.05 5.096e-17
6432.575 5.2472e-17
6434.1 5.43e-17
6435.625 5.6989e-17
6437.15 5.4638e-17
6438.675 5.5792e-17
6440.2 5.7943e-17
6441.725 5.9552e-17
6443.25 6.024e-17
6444.775 5.4151e-17
6446.3 5.373e-17
6447.825 5.9279e-17
6449.35 6.1006e-17
6450.875 5.6069e-17
6452.4 5.5064e-17
6453.925 5.446e-17
6455.45 5.2482e-17
6456.975 5.3675e-17
6458.5 5.3277e-17
6460.025 5.536e-17
6461.55 5.7773e-17
6463.075 5.0638e-17
6464.6 5.1705e-17
6466.125 5.8661e-17
6467.65 6.1936e-17
6469.175 5.6996e-17
6470.7 4.6807e-17
6472.225 4.8367e-17
6473.75 4.6051e-17
6475.275 4.5208e-17
6476.8 4.7952e-17
6478.325 4.9539e-17
6479.85 5.8332e-17
6481.375 6.1922e-17
6482.9 5.5072e-17
6484.425 4.7191e-17
6485.95 4.4393e-17
6487.475 4.796e-17
6489.0 5.0194e-17
6490.525 4.7569e-17
6492.05 4.8063e-17
6493.575 5.1972e-17
6495.1 5.4326e-17
6496.625 5.2008e-17
6498.15 4.5823e-17
6499.675 4.5666e-17
6501.2 5.3327e-17
6502.725 5.2662e-17
6504.25 5.0156e-17
6505.775 5.1665e-17
6507.3 5.2163e-17
6508.825 5.4375e-17
6510.35 5.1924e-17
6511.875 4.8482e-17
6513.4 5.0066e-17
6514.925 4.9114e-17
6516.45 4.844e-17
6517.975 5.215e-17
6519.5 5.0732e-17
6521.025 5.5095e-17
6522.55 5.7966e-17
6524.075 5.1449e-17
6525.6 5.3662e-17
6527.125 6.0423e-17
6528.65 5.9703e-17
6530.175 5.4463e-17
6531.7 5.5464e-17
6533.225 5.8769e-17
6534.75 4.9494e-17
6536.275 4.1232e-17
6537.8 4.8522e-17
6539.325 5.2763e-17
6540.85 4.7684e-17
6542.375 4.8201e-17
6543.9 5.428e-17
6545.425 5.4592e-17
6546.95 4.9463e-17
6548.475 5.1786e-17
6550.0 5.57e-17
6551.525 5.1634e-17
6553.05 5.5125e-17
6554.575 6.4969e-17
6556.1 6.359e-17
6557.625 5.2105e-17
6559.15 5.2369e-17
6560.675 6.4548e-17
6562.2 6.6469e-17
6563.725 5.7658e-17
6565.25 5.422e-17
6566.775 6.089e-17
6568.3 6.2225e-17
6569.825 5.6841e-17
6571.35 5.8256e-17
6572.875 6.0922e-17
6574.4 6.1679e-17
6575.925 5.9509e-17
6577.45 5.1454e-17
6578.975 5.1004e-17
6580.5 5.1065e-17
6582.025 5.0146e-17
6583.55 6.0053e-17
6585.075 6.1531e-17
6586.6 5.123e-17
6588.125 4.8481e-17
6589.65 5.1827e-17
6591.175 5.0947e-17
6592.7 5.0601e-17
6594.225 5.2325e-17
6595.75 5.1988e-17
6597.275 5.3386e-17
6598.8 5.4874e-17
6600.325 5.2301e-17
6601.85 5.0318e-17
6603.375 5.3356e-17
6604.9 5.6423e-17
6606.425 5.4398e-17
6607.95 5.251e-17
6609.475 5.4044e-17
6611.0 4.9318e-17
6612.525 4.4256e-17
6614.05 4.5856e-17
6615.575 4.5093e-17
6617.1 4.6055e-17
6618.625 4.9969e-17
6620.15 4.8146e-17
6621.675 4.4951e-17
6623.2 4.9641e-17
6624.725 5.3951e-17
6626.25 4.8688e-17
6627.775 4.652e-17
6629.3 5.2557e-17
6630.825 5.3612e-17
6632.35 5.1192e-17
6633.875 5.262e-17
6635.4 4.8082e-17
6636.925 4.5575e-17
6638.45 4.9066e-17
6639.975 4.9159e-17
6641.5 5.0922e-17
6643.025 5.0342e-17
6644.55 5.111e-17
6646.075 4.8465e-17
6647.6 4.615e-17
6649.125 5.2236e-17
6650.65 5.3273e-17
6652.175 5.1532e-17
6653.7 5.3002e-17
6655.225 4.8939e-17
6656.75 4.3124e-17
6658.275 4.807e-17
6659.8 5.0255e-17
6661.325 4.996e-17
6662.85 5.5049e-17
6664.375 5.1817e-17
6665.9 4.5392e-17
6667.425 4.4179e-17
6668.95 4.0167e-17
6670.475 4.4434e-17
6672.0 4.9953e-17
6673.525 4.5827e-17
6675.05 4.936e-17
6676.575 5.4328e-17
6678.1 5.4503e-17
6679.625 5.0194e-17
6681.15 4.4077e-17
6682.675 4.2461e-17
6684.2 4.6043e-17
6685.725 5.0299e-17
6687.25 5.1871e-17
6688.775 5.3801e-17
6690.3 4.8071e-17
6691.825 4.7404e-17
6693.35 4.8611e-17
6694.875 4.1647e-17
6696.4 4.4765e-17
6697.925 5.2327e-17
6699.45 5.1854e-17
6700.975 4.7163e-17
6702.5 5.0512e-17
6704.025 5.3628e-17
6705.55 5.2669e-17
6707.075 5.5472e-17
6708.6 5.7558e-17
6710.125 5.5507e-17
6711.65 5.686e-17
6713.175 5.5697e-17
6714.7 4.6971e-17
6716.225 4.5541e-17
6717.75 4.7481e-17
6719.275 5.4133e-17
6720.8 5.6811e-17
6722.325 4.7273e-17
6723.85 4.2487e-17
6725.375 4.1438e-17
6726.9 4.6138e-17
6728.425 5.3288e-17
6729.95 5.3038e-17
6731.475 5.2352e-17
6733.0 5.2041e-17
6734.525 4.2827e-17
6736.05 3.9537e-17
6737.575 4.5771e-17
6739.1 4.798e-17
6740.625 5.1672e-17
6742.15 5.505e-17
6743.675 5.4632e-17
6745.2 5.2555e-17
6746.725 5.1842e-17
6748.25 5.0279e-17
6749.775 4.7576e-17
6751.3 4.8569e-17
6752.825 5.4106e-17
6754.35 5.4346e-17
6755.875 4.9492e-17
6757.4 5.0454e-17
6758.925 4.9014e-17
6760.45 5.0622e-17
6761.975 5.4748e-17
6763.5 4.8161e-17
6765.025 4.845e-17
6766.55 5.131e-17
6768.075 4.6889e-17
6769.6 4.5375e-17
6771.125 5.0413e-17
6772.65 5.3726e-17
6774.175 5.0741e-17
6775.7 5.203e-17
6777.225 5.3805e-17
6778.75 5.0667e-17
6780.275 5.1201e-17
6781.8 5.1063e-17
6783.325 4.8287e-17
6784.85 4.9133e-17
6786.375 4.8748e-17
6787.9 4.9469e-17
6789.425 4.8077e-17
6790.95 4.7732e-17
6792.475 5.3206e-17
6794.0 5.7529e-17
6795.525 5.524e-17
6797.05 5.3813e-17
6798.575 5.7874e-17
6800.1 5.3786e-17
6801.625 4.4067e-17
6803.15 4.2781e-17
6804.675 4.8701e-17
6806.2 4.8878e-17
6807.725 4.6368e-17
6809.25 4.99e-17
6810.775 4.9915e-17
6812.3 4.7608e-17
6813.825 5.1907e-17
6815.35 5.4315e-17
6816.875 5.3974e-17
6818.4 5.5764e-17
6819.925 5.486e-17
6821.45 5.3432e-17
6822.975 5.4536e-17
6824.5 5.1365e-17
6826.025 5.0699e-17
6827.55 5.2727e-17
6829.075 4.7165e-17
6830.6 4.5341e-17
6832.125 4.8751e-17
6833.65 5.3383e-17
6835.175 5.6741e-17
6836.7 4.9612e-17
6838.225 4.3701e-17
6839.75 4.5676e-17
6841.275 4.7036e-17
6842.8 4.78e-17
6844.325 4.5721e-17
6845.85 4.1278e-17
6847.375 4.1613e-17
6848.9 4.5012e-17
6850.425 4.8096e-17
6851.95 5.5756e-17
6853.475 6.026e-17
6855.0 5.4942e-17
6856.525 5.2577e-17
6858.05 5.4451e-17
6859.575 5.2183e-17
6861.1 4.741e-17
6862.625 4.6427e-17
6864.15 4.6963e-17
6865.675 4.7345e-17
6867.2 4.8675e-17
6868.725 5.0155e-17
6870.25 4.9398e-17
6871.775 5.1544e-17
6873.3 6.0392e-17
6874.825 6.2797e-17
6876.35 5.303e-17
6877.875 5.0972e-17
6879.4 5.8457e-17
6880.925 6.0959e-17
6882.45 6.0437e-17
6883.975 5.4418e-17
6885.5 4.542e-17
6887.025 4.1561e-17
6888.55 4.3945e-17
6890.075 4.849e-17
6891.6 4.5856e-17
6893.125 3.8632e-17
6894.65 3.7981e-17
6896.175 4.5496e-17
6897.7 5.0315e-17
6899.225 4.8796e-17
6900.75 4.804e-17
6902.275 4.3678e-17
6903.8 4.2384e-17
6905.325 4.4862e-17
6906.85 4.375e-17
6908.375 4.9072e-17
6909.9 5.2282e-17
6911.425 4.4329e-17
6912.95 4.4753e-17
6914.475 5.3079e-17
6916.0 5.1287e-17
6917.525 4.6983e-17
6919.05 4.8509e-17
6920.575 4.7969e-17
6922.1 4.5801e-17
6923.625 4.5691e-17
6925.15 4.2367e-17
6926.675 3.9787e-17
6928.2 4.2008e-17
6929.725 4.3857e-17
6931.25 4.8005e-17
6932.775 4.8474e-17
6934.3 4.5512e-17
6935.825 4.3128e-17
6937.35 4.5021e-17
6938.875 4.3191e-17
6940.4 3.6763e-17
6941.925 3.9826e-17
6943.45 4.8433e-17
6944.975 5.3242e-17
6946.5 4.8424e-17
6948.025 4.3108e-17
6949.55 4.3666e-17
6951.075 4.6393e-17
6952.6 4.7284e-17
6954.125 4.6424e-17
6955.65 4.6528e-17
6957.175 4.4658e-17
6958.7 4.124e-17
6960.225 4.2103e-17
6961.75 4.829e-17
6963.275 4.7835e-17
6964.8 4.5607e-17
6966.325 4.7732e-17
6967.85 4.8572e-17
6969.375 4.3834e-17
6970.9 4.4672e-17
6972.425 4.8423e-17
6973.95 4.45e-17
6975.475 4.4109e-17
6977.0 4.6816e-17
6978.525 4.6286e-17
6980.05 4.3515e-17
6981.575 4.264e-17
6983.1 4.3913e-17
6984.625 4.3926e-17
6986.15 4.5382e-17
6987.675 4.4428e-17
6989.2 3.9269e-17
6990.725 4.0282e-17
6992.25 4.5705e-17
6993.775 4.7972e-17
6995.3 4.1996e-17
6996.825 4.1456e-17
6998.35 4.9117e-17
6999.875 4.8812e-17
7001.4 4.6149e-17
7002.925 4.4145e-17
7004.45 4.6663e-17
7005.975 4.9043e-17
7007.5 4.567e-17
7009.025 4.9882e-17
7010.55 5.228e-17
7012.075 4.3584e-17
7013.6 3.9193e-17
7015.125 4.2399e-17
7016.65 4.5851e-17
7018.175 4.8979e-17
7019.7 5.0809e-17
7021.225 5.1158e-17
7022.75 4.804e-17
7024.275 4.7125e-17
7025.8 4.9505e-17
7027.325 4.6356e-17
7028.85 4.5392e-17
7030.375 4.648e-17
7031.9 4.7409e-17
7033.425 4.9047e-17
7034.95 4.2438e-17
7036.475 3.7763e-17
7038.0 4.1831e-17
7039.525 4.5436e-17
7041.05 4.78e-17
7042.575 5.1785e-17
7044.1 5.5958e-17
7045.625 5.1258e-17
7047.15 4.3e-17
7048.675 4.6448e-17
7050.2 5.2337e-17
7051.725 4.9098e-17
7053.25 4.3541e-17
7054.775 4.2248e-17
7056.3 4.4477e-17
7057.825 4.7181e-17
7059.35 4.9026e-17
7060.875 5.0155e-17
7062.4 5.3372e-17
7063.925 5.374e-17
7065.45 4.9504e-17
7066.975 4.5989e-17
7068.5 4.3944e-17
7070.025 4.4462e-17
7071.55 4.6619e-17
7073.075 4.6642e-17
7074.6 4.5001e-17
7076.125 4.8037e-17
7077.65 4.7439e-17
7079.175 4.2082e-17
7080.7 4.5065e-17
7082.225 4.709e-17
7083.75 4.526e-17
7085.275 4.6032e-17
7086.8 4.7435e-17
7088.325 4.7486e-17
7089.85 4.6257e-17
7091.375 4.9279e-17
7092.9 5.1114e-17
7094.425 4.6111e-17
7095.95 4.4938e-17
7097.475 4.9124e-17
7099.0 5.4373e-17
7100.525 5.7855e-17
7102.05 5.3835e-17
7103.575 4.9026e-17
7105.1 4.9467e-17
7106.625 5.4293e-17
7108.15 5.2968e-17
7109.675 4.7942e-17
7111.2 4.6893e-17
7112.725 4.7523e-17
7114.25 4.7458e-17
7115.775 4.6755e-17
7117.3 4.9891e-17
7118.825 5.115e-17
7120.35 4.6884e-17
7121.875 4.5253e-17
7123.4 5.0599e-17
7124.925 5.9568e-17
7126.45 5.7673e-17
7127.975 5.1259e-17
7129.5 4.6486e-17
7131.025 4.6481e-17
7132.55 4.8798e-17
7134.075 4.9303e-17
7135.6 4.871e-17
7137.125 4.7851e-17
7138.65 4.669e-17
7140.175 4.2225e-17
7141.7 4.3256e-17
7143.225 4.5454e-17
7144.75 4.6043e-17
7146.275 4.6911e-17
7147.8 4.0473e-17
7149.325 3.9936e-17
7150.85 4.3537e-17
7152.375 4.4158e-17
7153.9 4.947e-17
7155.425 5.2365e-17
7156.95 5.0937e-17
7158.475 4.8527e-17
7160.0 4.7142e-17
7161.525 4.8215e-17
7163.05 4.9984e-17
7164.575 5.0397e-17
7166.1 5.0123e-17
7167.625 4.9493e-17
7169.15 4.9876e-17
7170.675 4.8351e-17
7172.2 4.4914e-17
7173.725 4.5614e-17
7175.25 4.5653e-17
7176.775 4.7674e-17
7178.3 5.335e-17
7179.825 5.1056e-17
7181.35 4.7459e-17
7182.875 4.8488e-17
7184.4 4.7736e-17
7185.925 4.9178e-17
7187.45 4.8211e-17
7188.975 4.5173e-17
7190.5 5.2358e-17
7192.025 5.6273e-17
7193.55 4.964e-17
7195.075 4.5204e-17
7196.6 4.3987e-17
7198.125 4.3215e-17
7199.65 4.5024e-17
7201.175 4.5463e-17
7202.7 4.2112e-17
7204.225 4.2876e-17
7205.75 5.0265e-17
7207.275 5.6005e-17
7208.8 5.2186e-17
7210.325 4.6374e-17
7211.85 5.042e-17
7213.375 5.3824e-17
7214.9 4.4396e-17
7216.425 3.8779e-17
7217.95 4.3883e-17
7219.475 4.7478e-17
7221.0 5.0705e-17
7222.525 4.8268e-17
7224.05 4.1777e-17
7225.575 4.3708e-17
7227.1 4.6523e-17
7228.625 4.5548e-17
7230.15 4.4533e-17
7231.675 4.0458e-17
7233.2 3.8727e-17
7234.725 4.4468e-17
7236.25 4.6968e-17
7237.775 5.27e-17
7239.3 6.0766e-17
7240.825 5.3158e-17
7242.35 4.749e-17
7243.875 5.3054e-17
7245.4 5.039e-17
7246.925 4.6682e-17
7248.45 4.4096e-17
7249.975 3.3468e-17
7251.5 3.6053e-17
7253.025 4.7562e-17
7254.55 4.7341e-17
7256.075 4.2797e-17
7257.6 4.2065e-17
7259.125 4.5079e-17
7260.65 4.642e-17
7262.175 4.7743e-17
7263.7 5.0653e-17
7265.225 5.1839e-17
7266.75 4.9716e-17
7268.275 5.7171e-17
7269.8 9.0406e-17
7271.325 9.4022e-17
7272.85 6.8606e-17
7274.375 5.5299e-17
7275.9 5.0015e-17
7277.425 5.3731e-17
7278.95 4.7636e-17
7280.475 4.3439e-17
7282.0 4.5286e-17
7283.525 4.4364e-17
7285.05 4.645e-17
7286.575 4.6276e-17
7288.1 4.0095e-17
7289.625 3.709e-17
7291.15 4.2506e-17
7292.675 4.5539e-17
7294.2 4.76e-17
7295.725 4.483e-17
7297.25 3.9818e-17
7298.775 4.2285e-17
7300.3 4.7166e-17
7301.825 5.0218e-17
7303.35 4.5888e-17
7304.875 4.1617e-17
7306.4 4.2355e-17
7307.925 4.4145e-17
7309.45 4.4031e-17
7310.975 4.3607e-17
7312.5 4.4474e-17
7314.025 4.8378e-17
7315.55 6.0536e-17
7317.075 5.6179e-17
7318.6 4.2888e-17
7320.125 3.981e-17
7321.65 3.8996e-17
7323.175 4.0492e-17
7324.7 4.1751e-17
7326.225 3.946e-17
7327.75 3.557e-17
7329.275 3.9581e-17
7330.8 4.4062e-17
7332.325 4.382e-17
7333.85 4.2556e-17
7335.375 3.9764e-17
7336.9 4.5512e-17
7338.425 5.3562e-17
7339.95 4.9798e-17
7341.475 4.3772e-17
7343.0 4.5151e-17
7344.525 4.479e-17
7346.05 4.3035e-17
7347.575 4.6576e-17
7349.1 4.7906e-17
7350.625 4.5383e-17
7352.15 4.6429e-17
7353.675 5.0174e-17
7355.2 4.702e-17
7356.725 4.1833e-17
7358.25 4.2803e-17
7359.775 4.5879e-17
7361.3 4.4016e-17
7362.825 3.857e-17
7364.35 3.9509e-17
7365.875 4.3544e-17
7367.4 3.9112e-17
7368.925 3.4653e-17
7370.45 3.878e-17
7371.975 4.0564e-17
7373.5 4.2769e-17
7375.025 4.362e-17
7376.55 3.7286e-17
7378.075 3.6799e-17
7379.6 4.1899e-17
7381.125 4.0685e-17
7382.65 3.7011e-17
7384.175 3.8088e-17
7385.7 3.8586e-17
7387.225 3.9011e-17
7388.75 4.4415e-17
7390.275 5.0563e-17
7391.8 4.9702e-17
7393.325 4.3114e-17
7394.85 4.0254e-17
7396.375 4.0046e-17
7397.9 3.7636e-17
7399.425 3.4767e-17
7400.95 3.7256e-17
7402.475 3.7863e-17
7404.0 3.6087e-17
7405.525 3.7544e-17
7407.05 3.9145e-17
7408.575 4.1982e-17
7410.1 4.2314e-17
7411.625 4.122e-17
7413.15 4.3115e-17
7414.675 4.2499e-17
7416.2 3.764e-17
7417.725 3.5494e-17
7419.25 3.7727e-17
7420.775 4.004e-17
7422.3 4.045e-17
7423.825 3.512e-17
7425.35 3.0612e-17
7426.875 3.5666e-17
7428.4 4.0004e-17
7429.925 3.7625e-17
7431.45 3.6316e-17
7432.975 3.9414e-17
7434.5 3.9498e-17
7436.025 3.9655e-17
7437.55 4.3439e-17
7439.075 4.1411e-17
7440.6 3.7106e-17
7442.125 3.4723e-17
7443.65 3.3304e-17
7445.175 3.6145e-17
7446.7 4.0358e-17
7448.225 4.0505e-17
7449.75 3.7696e-17
7451.275 3.6977e-17
7452.8 3.6328e-17
7454.325 3.4424e-17
7455.85 3.377e-17
7457.375 3.5518e-17
7458.9 3.1871e-17
7460.425 3.2167e-17
7461.95 4.3279e-17
7463.475 4.5195e-17
7465.0 4.0293e-17
7466.525 3.8921e-17
7468.05 3.9894e-17
7469.575 4.2563e-17
7471.1 4.3253e-17
7472.625 4.1548e-17
7474.15 4.3001e-17
7475.675 4.5204e-17
7477.2 4.5951e-17
7478.725 4.184e-17
7480.25 3.8254e-17
7481.775 3.5965e-17
7483.3 3.6415e-17
7484.825 4.239e-17
7486.35 4.5379e-17
7487.875 4.7823e-17
7489.4 4.4469e-17
7490.925 3.9028e-17
7492.45 3.9155e-17
7493.975 3.797e-17
7495.5 3.4983e-17
7497.025 3.6167e-17
7498.55 3.9088e-17
7500.075 3.4997e-17
7501.6 3.3325e-17
7503.125 3.732e-17
7504.65 3.7464e-17
7506.175 3.6931e-17
7507.7 3.8222e-17
7509.225 4.0142e-17
7510.75 3.9328e-17
7512.275 3.5366e-17
7513.8 3.664e-17
7515.325 4.3033e-17
7516.85 4.2598e-17
7518.375 3.5977e-17
7519.9 3.8019e-17
7521.425 4.5488e-17
7522.95 4.5911e-17
7524.475 4.3263e-17
7526.0 4.0559e-17
7527.525 3.5504e-17
7529.05 3.1604e-17
7530.575 3.5324e-17
7532.1 3.8776e-17
7533.625 3.8123e-17
7535.15 3.7345e-17
7536.675 3.5346e-17
7538.2 3.6206e-17
7539.725 4.0608e-17
7541.25 4.4055e-17
7542.775 4.3962e-17
7544.3 4.1765e-17
7545.825 3.9396e-17
7547.35 3.5832e-17
7548.875 3.5338e-17
7550.4 4.062e-17
7551.925 4.2858e-17
7553.45 4.1294e-17
7554.975 3.8433e-17
7556.5 3.0652e-17
7558.025 3.0394e-17
7559.55 4.0917e-17
7561.075 4.6063e-17
7562.6 4.5872e-17
7564.125 4.2979e-17
7565.65 4.0882e-17
7567.175 4.2361e-17
7568.7 4.8398e-17
7570.225 5.4778e-17
7571.75 4.9622e-17
7573.275 4.3837e-17
7574.8 4.7923e-17
7576.325 4.6222e-17
7577.85 3.8049e-17
7579.375 3.7829e-17
7580.9 3.9484e-17
7582.425 3.5137e-17
7583.95 3.7282e-17
7585.475 4.1891e-17
7587.0 4.4621e-17
7588.525 5.0161e-17
7590.05 5.0393e-17
7591.575 4.302e-17
7593.1 3.528e-17
7594.625 2.4778e-17
7596.15 1.6251e-17
7597.675 2.1106e-17
7599.2 2.4213e-17
7600.725 2.1255e-17
7602.25 2.6508e-17
7603.775 3.3624e-17
7605.3 4.1716e-17
7606.825 4.6032e-17
7608.35 4.9356e-17
7609.875 5.8074e-17
7611.4 6.3367e-17
7612.925 6.6037e-17
7614.45 6.6758e-17
7615.975 6.9618e-17
7617.5 6.4443e-17
7619.025 4.6069e-17
7620.55 3.1175e-17
7622.075 3.0233e-17
7623.6 3.3014e-17
7625.125 3.2958e-17
7626.65 4.0358e-17
7628.175 4.8836e-17
7629.7 5.1089e-17
7631.225 5.0167e-17
7632.75 4.6838e-17
7634.275 4.4454e-17
7635.8 4.5735e-17
7637.325 4.3716e-17
7638.85 4.1183e-17
7640.375 4.7291e-17
7641.9 5.2133e-17
7643.425 5.3368e-17
7644.95 5.5612e-17
7646.475 4.9227e-17
7648.0 4.7119e-17
7649.525 5.8045e-17
7651.05 5.67e-17
7652.575 4.9281e-17
7654.1 5.204e-17
7655.625 5.3559e-17
7657.15 4.8934e-17
7658.675 4.7111e-17
7660.2 4.8649e-17
7661.725 4.6793e-17
7663.25 4.5324e-17
7664.775 4.2275e-17
7666.3 3.8955e-17
7667.825 4.0964e-17
7669.35 4.4039e-17
7670.875 4.2831e-17
7672.4 4.5013e-17
7673.925 4.7716e-17
7675.45 4.3583e-17
7676.975 4.2708e-17
7678.5 4.9578e-17
7680.025 5.7123e-17
7681.55 5.2535e-17
7683.075 4.3275e-17
7684.6 4.6126e-17
7686.125 5.4304e-17
7687.65 5.3326e-17
7689.175 4.558e-17
7690.7 4.1818e-17
7692.225 4.5349e-17
7693.75 4.9108e-17
7695.275 5.0288e-17
7696.8 4.8421e-17
7698.325 4.6919e-17
7699.85 4.925e-17
7701.375 4.6879e-17
7702.9 4.507e-17
7704.425 4.9619e-17
7705.95 5.0535e-17
7707.475 4.6124e-17
7709.0 4.2857e-17
7710.525 4.3515e-17
7712.05 4.2043e-17
7713.575 4.9493e-17
7715.1 5.6377e-17
7716.625 5.246e-17
7718.15 5.0215e-17
7719.675 4.3818e-17
7721.2 3.8742e-17
7722.725 4.2381e-17
7724.25 4.4356e-17
7725.775 4.3535e-17
7727.3 4.8044e-17
7728.825 4.6851e-17
7730.35 4.5387e-17
7731.875 5.0559e-17
7733.4 4.8078e-17
7734.925 4.3796e-17
7736.45 4.0719e-17
7737.975 3.7347e-17
7739.5 4.1403e-17
7741.025 4.7778e-17
7742.55 4.6898e-17
7744.075 4.4986e-17
7745.6 4.083e-17
7747.125 3.8844e-17
7748.65 4.9535e-17
7750.175 5.5138e-17
7751.7 4.5367e-17
7753.225 4.1308e-17
7754.75 4.6387e-17
7756.275 4.7387e-17
7757.8 4.5632e-17
7759.325 4.8303e-17
7760.85 5.2154e-17
7762.375 4.6398e-17
7763.9 4.1544e-17
7765.425 4.615e-17
7766.95 5.4269e-17
7768.475 5.3962e-17
7770.0 4.6876e-17
7771.525 4.526e-17
7773.05 4.2484e-17
7774.575 4.0947e-17
7776.1 4.5991e-17
7777.625 4.8109e-17
7779.15 4.5244e-17
7780.675 4.2708e-17
7782.2 4.1571e-17
7783.725 4.3366e-17
7785.25 4.5657e-17
7786.775 4.5615e-17
7788.3 4.4259e-17
7789.825 4.4031e-17
7791.35 4.5723e-17
7792.875 4.5299e-17
7794.4 4.5416e-17
7795.925 4.2683e-17
7797.45 3.7532e-17
7798.975 3.2132e-17
7800.5 3.7107e-17
7802.025 4.9247e-17
7803.55 4.6303e-17
7805.075 4.232e-17
7806.6 4.8032e-17
7808.125 4.7938e-17
7809.65 3.9077e-17
7811.175 3.676e-17
7812.7 4.378e-17
7814.225 4.208e-17
7815.75 3.8161e-17
7817.275 4.5832e-17
7818.8 5.3919e-17
7820.325 4.8172e-17
7821.85 4.1295e-17
7823.375 4.2856e-17
7824.9 4.1088e-17
7826.425 4.0582e-17
7827.95 4.1865e-17
7829.475 4.0201e-17
7831.0 4.0453e-17
7832.525 4.0537e-17
7834.05 4.0022e-17
7835.575 3.9224e-17
7837.1 4.0739e-17
7838.625 4.7516e-17
7840.15 5.1334e-17
7841.675 5.0919e-17
7843.2 4.5337e-17
7844.725 3.9533e-17
7846.25 3.9255e-17
7847.775 3.6442e-17
7849.3 4.0728e-17
7850.825 4.7409e-17
7852.35 4.3424e-17
7853.875 4.0496e-17
7855.4 4.6218e-17
7856.925 4.4837e-17
7858.45 4.1564e-17
7859.975 4.3195e-17
7861.5 4.0944e-17
7863.025 4.3198e-17
7864.55 4.4149e-17
7866.075 4.8741e-17
7867.6 5.3706e-17
7869.125 5.0372e-17
7870.65 4.6059e-17
7872.175 4.4214e-17
7873.7 4.2662e-17
7875.225 4.4202e-17
7876.75 4.8108e-17
7878.275 4.4142e-17
7879.8 4.3156e-17
7881.325 4.4979e-17
7882.85 4.2548e-17
7884.375 3.8385e-17
7885.9 3.4008e-17
7887.425 4.0688e-17
7888.95 4.6999e-17
7890.475 4.3678e-17
7892.0 4.2574e-17
7893.525 3.9467e-17
7895.05 3.9251e-17
7896.575 4.6159e-17
7898.1 4.6345e-17
7899.625 4.3535e-17
7901.15 4.8151e-17
7902.675 5.0946e-17
7904.2 4.6398e-17
7905.725 4.2457e-17
7907.25 3.8593e-17
7908.775 4.0599e-17
7910.3 5.3521e-17
7911.825 5.9694e-17
7913.35 5.382e-17
7914.875 4.6948e-17
7916.4 4.2827e-17
7917.925 3.9095e-17
7919.45 3.8726e-17
7920.975 4.1578e-17
7922.5 4.3021e-17
7924.025 4.3195e-17
7925.55 4.3484e-17
7927.075 4.9596e-17
7928.6 5.3391e-17
7930.125 4.5761e-17
7931.65 4.0007e-17
7933.175 4.3085e-17
7934.7 3.9184e-17
7936.225 3.5238e-17
7937.75 3.9807e-17
7939.275 4.455e-17
7940.8 4.2697e-17
7942.325 3.6875e-17
7943.85 4.0224e-17
7945.375 4.6945e-17
7946.9 4.837e-17
7948.425 4.5782e-17
7949.95 4.2986e-17
7951.475 4.4396e-17
7953.0 4.2899e-17
7954.525 4.1928e-17
7956.05 4.4934e-17
7957.575 4.9923e-17
7959.1 4.911e-17
7960.625 5.2387e-17
7962.15 5.9305e-17
7963.675 5.7146e-17
7965.2 5.2987e-17
7966.725 5.5497e-17
7968.25 5.5133e-17
7969.775 4.7416e-17
7971.3 4.6691e-17
7972.825 4.6683e-17
7974.35 4.2867e-17
7975.875 3.9487e-17
7977.4 4.015e-17
7978.925 4.0511e-17
7980.45 4.1846e-17
7981.975 4.5246e-17
7983.5 4.1951e-17
7985.025 3.9282e-17
7986.55 3.929e-17
7988.075 4.6656e-17
7989.6 5.2122e-17
7991.125 5.0781e-17
7992.65 5.2244e-17
7994.175 5.4927e-17
7995.7 5.6039e-17
7997.225 4.7347e-17
7998.75 4.0547e-17
8000.275 4.5303e-17
8001.8 4.8728e-17
8003.325 4.6332e-17
8004.85 4.4337e-17
8006.375 4.4828e-17
8007.9 4.5748e-17
8009.425 4.6026e-17
8010.95 4.7507e-17
8012.475 4.5587e-17
8014.0 3.9171e-17
8015.525 4.0176e-17
8017.05 4.235e-17
8018.575 4.0728e-17
8020.1 4.6387e-17
8021.625 5.2508e-17
8023.15 5.222e-17
8024.675 5.101e-17
8026.2 5.3593e-17
8027.725 5.7981e-17
8029.25 5.3875e-17
8030.775 4.4716e-17
8032.3 4.3392e-17
8033.825 4.432e-17
8035.35 4.1196e-17
8036.875 4.0334e-17
8038.4 4.2662e-17
8039.925 4.7735e-17
8041.45 4.8768e-17
8042.975 4.3263e-17
8044.5 3.9335e-17
8046.025 4.2179e-17
8047.55 4.9532e-17
8049.075 4.7872e-17
8050.6 4.5496e-17
8052.125 4.5318e-17
8053.65 4.5725e-17
8055.175 4.7604e-17
8056.7 4.904e-17
8058.225 4.3398e-17
8059.75 3.3917e-17
8061.275 3.2481e-17
8062.8 3.9994e-17
8064.325 4.4157e-17
8065.85 4.5181e-17
8067.375 4.4371e-17
8068.9 3.9559e-17
8070.425 3.8553e-17
8071.95 3.6137e-17
8073.475 3.6091e-17
8075.0 3.5814e-17
8076.525 3.7635e-17
8078.05 4.5485e-17
8079.575 4.5974e-17
8081.1 4.5073e-17
8082.625 4.2696e-17
8084.15 3.7263e-17
8085.675 3.6643e-17
8087.2 3.8806e-17
8088.725 4.609e-17
8090.25 4.7884e-17
8091.775 4.4271e-17
8093.3 4.3173e-17
8094.825 4.2015e-17
8096.35 3.9258e-17
8097.875 3.8867e-17
8099.4 3.8072e-17
8100.925 4.3255e-17
8102.45 5.3574e-17
8103.975 5.0422e-17
8105.5 4.0378e-17
8107.025 3.7923e-17
8108.55 4.091e-17
8110.075 4.1401e-17
8111.6 4.0787e-17
8113.125 4.1002e-17
8114.65 3.8473e-17
8116.175 3.5756e-17
8117.7 3.7301e-17
8119.225 3.8574e-17
8120.75 3.9667e-17
8122.275 4.1405e-17
8123.8 4.2118e-17
8125.325 4.0954e-17
8126.85 3.6658e-17
8128.375 3.5744e-17
8129.9 3.7491e-17
8131.425 3.9144e-17
8132.95 3.8247e-17
8134.475 3.3527e-17
8136.0 3.4341e-17
8137.525 3.5717e-17
8139.05 3.1869e-17
8140.575 3.0703e-17
8142.1 3.5658e-17
8143.625 4.2998e-17
8145.15 4.6104e-17
8146.675 4.4685e-17
8148.2 4.4583e-17
8149.725 4.7458e-17
8151.25 4.5242e-17
8152.775 4.1426e-17
8154.3 4.2556e-17
8155.825 4.0271e-17
8157.35 4.2537e-17
8158.875 4.5687e-17
8160.4 4.064e-17
8161.925 3.8252e-17
8163.45 3.9186e-17
8164.975 4.5344e-17
8166.5 4.7566e-17
8168.025 4.1101e-17
8169.55 4.046e-17
8171.075 4.4006e-17
8172.6 4.7743e-17
8174.125 4.5663e-17
8175.65 3.8043e-17
8177.175 3.4315e-17
8178.7 3.6856e-17
8180.225 4.1431e-17
8181.75 4.7599e-17
8183.275 5.517e-17
8184.8 5.2791e-17
8186.325 4.2438e-17
8187.85 3.7445e-17
8189.375 3.7942e-17
8190.9 3.9137e-17
8192.425 3.8719e-17
8193.95 3.5904e-17
8195.475 3.4387e-17
8197.0 3.4402e-17
8198.525 3.6962e-17
8200.05 4.1719e-17
8201.575 4.4029e-17
8203.1 4.3428e-17
8204.625 4.0334e-17
8206.15 3.8315e-17
8207.675 3.6715e-17
8209.2 3.3437e-17
8210.725 3.4357e-17
8212.25 3.7867e-17
8213.775 3.9453e-17
8215.3 3.6583e-17
8216.825 3.7016e-17
8218.35 3.9822e-17
8219.875 3.7479e-17
8221.4 3.5898e-17
8222.925 3.2496e-17
8224.45 2.8082e-17
8225.975 3.1383e-17
8227.5 3.5799e-17
8229.025 4.0871e-17
8230.55 4.6824e-17
8232.075 4.5108e-17
8233.6 4.3956e-17
8235.125 4.5621e-17
8236.65 4.6655e-17
8238.175 4.8564e-17
8239.7 4.8024e-17
8241.225 4.3849e-17
8242.75 4.112e-17
8244.275 3.401e-17
8245.8 2.723e-17
8247.325 3.7919e-17
8248.85 4.3594e-17
8250.375 3.5433e-17
8251.9 3.6337e-17
8253.425 4.0268e-17
8254.95 3.6335e-17
8256.475 3.4847e-17
8258.0 4.2542e-17
8259.525 4.6039e-17
8261.05 3.8726e-17
8262.575 3.697e-17
8264.1 4.4777e-17
8265.625 4.372e-17
8267.15 3.9095e-17
8268.675 4.1342e-17
8270.2 3.7982e-17
8271.725 3.571e-17
8273.25 3.6862e-17
8274.775 3.6891e-17
8276.3 4.0096e-17
8277.825 3.9817e-17
8279.35 4.1367e-17
8280.875 3.7285e-17
8282.4 3.1049e-17
8283.925 4.2781e-17
8285.45 5.231e-17
8286.975 4.5244e-17
8288.5 4.0696e-17
8290.025 4.1214e-17
8291.55 4.0814e-17
8293.075 4.3171e-17
8294.6 4.6501e-17
8296.125 4.5481e-17
8297.65 4.318e-17
8299.175 3.7332e-17
8300.7 3.177e-17
8302.225 3.485e-17
8303.75 3.6691e-17
8305.275 3.5946e-17
8306.8 4.4203e-17
8308.325 4.891e-17
8309.85 4.2054e-17
8311.375 3.9448e-17
8312.9 3.7282e-17
8314.425 3.3519e-17
8315.95 3.4707e-17
8317.475 3.2018e-17
8319.0 3.3517e-17
8320.525 3.9707e-17
8322.05 3.8791e-17
8323.575 3.4022e-17
8325.1 3.3144e-17
8326.625 3.4002e-17
8328.15 3.6879e-17
8329.675 4.1047e-17
8331.2 4.4214e-17
8332.725 4.2861e-17
8334.25 3.7248e-17
8335.775 3.7946e-17
8337.3 4.348e-17
8338.825 4.7182e-17
8340.35 4.248e-17
8341.875 3.0855e-17
8343.4 3.3677e-17
8344.925 4.5918e-17
8346.45 4.7824e-17
8347.975 3.0303e-17
8349.5 2.644e-17
8351.025 4.2933e-17
8352.55 3.988e-17
8354.075 3.3162e-17
8355.6 3.5197e-17
8357.125 3.4022e-17
8358.65 3.2882e-17
8360.175 3.7441e-17
8361.7 4.0591e-17
8363.225 3.9465e-17
8364.75 4.2137e-17
8366.275 4.3586e-17
8367.8 3.9327e-17
8369.325 3.8666e-17
8370.85 4.1517e-17
8372.375 3.8189e-17
8373.9 3.61e-17
8375.425 3.7216e-17
8376.95 3.5955e-17
8378.475 4.2956e-17
8380.0 4.5552e-17
8381.525 3.835e-17
8383.05 4.1826e-17
8384.575 4.6743e-17
8386.1 4.1802e-17
8387.625 3.3917e-17
8389.15 3.3101e-17
8390.675 3.7346e-17
8392.2 2.9788e-17
8393.725 2.8462e-17
8395.25 3.922e-17
8396.775 5.0325e-17
8398.3 5.7129e-17
8399.825 5.4898e-17
8401.35 4.8458e-17
8402.875 3.5335e-17
8404.4 3.1393e-17
8405.925 3.6803e-17
8407.45 3.3991e-17
8408.975 3.1821e-17
8410.5 3.1562e-17
8412.025 2.7777e-17
8413.55 3.0937e-17
8415.075 3.3394e-17
8416.6 3.6768e-17
8418.125 3.5038e-17
8419.65 3.1323e-17
8421.175 3.352e-17
8422.7 3.0707e-17
8424.225 2.876e-17
8425.75 3.9863e-17
8427.275 4.7585e-17
8428.8 4.3259e-17
8430.325 3.9955e-17
8431.85 4.3138e-17
8433.375 3.9613e-17
8434.9 3.0903e-17
8436.425 3.1553e-17
8437.95 3.6486e-17
8439.475 3.9766e-17
8441.0 3.7627e-17
8442.525 3.7722e-17
8444.05 3.4584e-17
8445.575 3.0371e-17
8447.1 3.3075e-17
8448.625 3.8225e-17
8450.15 3.5931e-17
8451.675 2.9527e-17
8453.2 3.023e-17
8454.725 3.0474e-17
8456.25 3.1015e-17
8457.775 3.5584e-17
8459.3 3.46e-17
8460.825 3.3e-17
8462.35 3.6676e-17
8463.875 4.0206e-17
8465.4 4.5189e-17
8466.925 4.6434e-17
8468.45 3.8014e-17
8469.975 3.1124e-17
8471.5 3.381e-17
8473.025 3.492e-17
8474.55 3.3494e-17
8476.075 3.7384e-17
8477.6 3.5963e-17
8479.125 3.1015e-17
8480.65 3.3053e-17
8482.175 3.6369e-17
8483.7 3.3859e-17
8485.225 2.8493e-17
8486.75 3.0446e-17
8488.275 3.2688e-17
8489.8 3.4002e-17
8491.325 3.6809e-17
8492.85 4.3209e-17
8494.375 4.9265e-17
8495.9 3.772e-17
8497.425 2.5257e-17
8498.95 3.1034e-17
8500.475 4.5344e-17
8502.0 5.0341e-17
8503.525 4.24e-17
8505.05 4.5031e-17
8506.575 5.2512e-17
8508.1 4.5991e-17
8509.625 3.76e-17
8511.15 3.6464e-17
8512.675 3.7902e-17
8514.2 3.5415e-17
8515.725 3.2756e-17
8517.25 3.6292e-17
8518.775 3.6136e-17
8520.3 3.5532e-17
8521.825 3.8397e-17
8523.35 3.4168e-17
8524.875 2.9596e-17
8526.4 3.1135e-17
8527.925 3.4126e-17
8529.45 3.6478e-17
8530.975 3.584e-17
8532.5 2.8766e-17
8534.025 2.9998e-17
8535.55 3.9761e-17
8537.075 4.337e-17
8538.6 4.4257e-17
8540.125 3.7992e-17
8541.65 2.8779e-17
8543.175 2.7337e-17
8544.7 3.2185e-17
8546.225 4.191e-17
8547.75 4.6246e-17
8549.275 4.1865e-17
8550.8 3.5262e-17
8552.325 2.7893e-17
8553.85 2.4863e-17
8555.375 3.1702e-17
8556.9 3.9728e-17
8558.425 4.0561e-17
8559.95 3.5677e-17
8561.475 3.3357e-17
8563.0 3.7544e-17
8564.525 3.9164e-17
8566.05 3.5913e-17
8567.575 3.4139e-17
8569.1 3.1235e-17
8570.625 3.0257e-17
8572.15 3.4459e-17
8573.675 3.8825e-17
8575.2 4.0429e-17
8576.725 3.8475e-17
8578.25 3.4365e-17
8579.775 3.1448e-17
8581.3 3.2322e-17
8582.825 3.1104e-17
8584.35 2.7272e-17
8585.875 2.9764e-17
8587.4 3.5579e-17
8588.925 3.3855e-17
8590.45 2.8988e-17
8591.975 2.934e-17
8593.5 3.0773e-17
8595.025 2.8789e-17
8596.55 3.0481e-17
8598.075 3.5691e-17
8599.6 3.5099e-17
8601.125 3.3728e-17
8602.65 3.3193e-17
8604.175 3.5122e-17
8605.7 3.8183e-17
8607.225 3.5653e-17
8608.75 3.6144e-17
8610.275 3.4311e-17
8611.8 2.9895e-17
8613.325 3.2255e-17
8614.85 3.0577e-17
8616.375 2.7583e-17
8617.9 3.3483e-17
8619.425 3.359e-17
8620.95 3.2957e-17
8622.475 3.4862e-17
8624.0 3.2219e-17
8625.525 3.7923e-17
8627.05 3.5387e-17
8628.575 2.8835e-17
8630.1 3.6083e-17
8631.625 3.8963e-17
8633.15 3.7891e-17
8634.675 3.5934e-17
8636.2 3.3392e-17
8637.725 3.2927e-17
8639.25 3.5616e-17
8640.775 3.4883e-17
8642.3 3.511e-17
8643.825 3.5334e-17
8645.35 2.8851e-17
8646.875 3.1554e-17
8648.4 3.473e-17
8649.925 3.4042e-17
8651.45 3.7275e-17
8652.975 3.8289e-17
8654.5 3.373e-17
8656.025 2.8573e-17
8657.55 3.0333e-17
8659.075 3.4292e-17
8660.6 3.187e-17
8662.125 3.0138e-17
8663.65 3.6628e-17
8665.175 4.1074e-17
8666.7 4.0491e-17
8668.225 3.9354e-17
8669.75 3.2481e-17
8671.275 2.8908e-17
8672.8 3.6037e-17
8674.325 4.0696e-17
8675.85 3.8658e-17
8677.375 3.7955e-17
8678.9 3.9648e-17
8680.425 3.7962e-17
8681.95 3.3368e-17
8683.475 3.2839e-17
8685.0 3.3394e-17
8686.525 3.0309e-17
8688.05 3.1618e-17
8689.575 3.4615e-17
8691.1 3.5352e-17
8692.625 4.0988e-17
8694.15 4.3989e-17
8695.675 4.0453e-17
8697.2 3.5594e-17
8698.725 3.1285e-17
8700.25 3.3866e-17
8701.775 3.5122e-17
8703.3 3.0787e-17
8704.825 3.5342e-17
8706.35 4.2513e-17
8707.875 3.679e-17
8709.4 2.8382e-17
8710.925 2.957e-17
8712.45 3.2744e-17
8713.975 3.3061e-17
8715.5 3.3038e-17
8717.025 3.4996e-17
8718.55 3.7631e-17
8720.075 4.1295e-17
8721.6 4.1192e-17
8723.125 3.7924e-17
8724.65 3.9043e-17
8726.175 3.733e-17
8727.7 3.5786e-17
8729.225 3.702e-17
8730.75 3.3869e-17
8732.275 3.0416e-17
8733.8 3.3624e-17
8735.325 3.9776e-17
8736.85 4.1975e-17
8738.375 3.9623e-17
8739.9 3.8518e-17
8741.425 3.6506e-17
8742.95 4.0616e-17
8744.475 4.4001e-17
8746.0 3.7183e-17
8747.525 3.42e-17
8749.05 3.225e-17
8750.575 3.5485e-17
8752.1 4.1563e-17
8753.625 4.6119e-17
8755.15 5.0161e-17
8756.675 5.2741e-17
8758.2 4.5204e-17
8759.725 3.1483e-17
8761.25 3.9305e-17
8762.775 4.8273e-17
8764.3 3.7653e-17
8765.825 2.2589e-17
8767.35 2.3533e-17
8768.875 3.4656e-17
8770.4 3.5996e-17
8771.925 2.8244e-17
8773.45 3.3239e-17
8774.975 4.5533e-17
8776.5 4.0171e-17
8778.025 3.1194e-17
8779.55 3.0686e-17
8781.075 2.9996e-17
8782.6 2.7489e-17
8784.125 2.618e-17
8785.65 3.0279e-17
8787.175 3.3798e-17
8788.7 2.9629e-17
8790.225 3.0505e-17
8791.75 3.8667e-17
8793.275 3.8923e-17
8794.8 3.3007e-17
8796.325 3.3855e-17
8797.85 3.4879e-17
8799.375 3.1741e-17
8800.9 3.2433e-17
8802.425 3.4694e-17
8803.95 3.5235e-17
8805.475 3.1848e-17
8807.0 2.7623e-17
8808.525 2.8322e-17
8810.05 2.8465e-17
8811.575 3.0237e-17
8813.1 3.3171e-17
8814.625 3.2642e-17
8816.15 3.6213e-17
8817.675 3.9308e-17
8819.2 3.3804e-17
8820.725 1.2126e-17
8822.25 2.6195e-17
8823.775 1.02e-16
8825.3 8.6986e-17
8826.825 3.9608e-17
8828.35 5.5581e-17
8829.875 3.3167e-17
8831.4 1.0177e-17
8832.925 3.147e-17
8834.45 4.3926e-17
8835.975 4.1595e-17
8837.5 3.8577e-17
8839.025 3.1303e-17
8840.55 3.0496e-17
8842.075 2.99e-17
8843.6 2.9353e-17
8845.125 3.1466e-17
8846.65 3.4083e-17
8848.175 3.3742e-17
8849.7 3.8355e-17
8851.225 3.7239e-17
8852.75 2.8714e-17
8854.275 3.2364e-17
8855.8 3.7556e-17
8857.325 3.8501e-17
8858.85 3.6977e-17
8860.375 3.3483e-17
8861.9 2.9158e-17
8863.425 3.4894e-17
8864.95 4.0712e-17
8866.475 3.9454e-17
8868.0 3.9311e-17
8869.525 4.011e-17
8871.05 3.6859e-17
8872.575 3.6262e-17
8874.1 3.8469e-17
8875.625 3.6452e-17
8877.15 3.5999e-17
8878.675 2.9751e-17
8880.2 2.2529e-17
8881.725 3.3858e-17
8883.25 5.6841e-17
8884.775 5.5174e-17
8886.3 5.7553e-17
8887.825 5.3539e-17
8889.35 2.3783e-17
8890.875 2.272e-17
8892.4 3.1873e-17
8893.925 3.287e-17
8895.45 3.3741e-17
8896.975 2.741e-17
8898.5 3.6708e-17
8900.025 4.625e-17
8901.55 3.4973e-17
8903.075 3.7246e-17
8904.6 4.3738e-17
8906.125 3.7172e-17
8907.65 3.2209e-17
8909.175 2.9475e-17
8910.7 3.0952e-17
8912.225 2.9778e-17
8913.75 4.0224e-17
8915.275 6.1967e-17
8916.8 5.2835e-17
8918.325 3.9275e-17
8919.85 4.8216e-17
8921.375 5.0699e-17
8922.9 3.6e-17
8924.425 2.7782e-17
8925.95 2.7868e-17
8927.475 2.8066e-17
8929.0 3.2441e-17
8930.525 3.2938e-17
8932.05 3.3255e-17
8933.575 3.6859e-17
8935.1 3.6138e-17
8936.625 3.6339e-17
8938.15 4.2169e-17
8939.675 4.7391e-17
8941.2 5.0066e-17
8942.725 4.5039e-17
8944.25 4.0869e-17
8945.775 3.0299e-17
8947.3 2.6659e-17
8948.825 3.4529e-17
8950.35 3.431e-17
8951.875 2.9478e-17
8953.4 3.3356e-17
8954.925 3.7269e-17
8956.45 2.9922e-17
8957.975 3.5178e-17
8959.5 3.5349e-17
8961.025 1.8193e-17
8962.55 2.0307e-17
8964.075 3.8034e-17
8965.6 4.3105e-17
8967.125 3.9138e-17
8968.65 3.4551e-17
8970.175 3.1235e-17
8971.7 3.1939e-17
8973.225 2.9138e-17
8974.75 2.7993e-17
8976.275 3.4704e-17
8977.8 3.9041e-17
8979.325 3.798e-17
8980.85 3.535e-17
8982.375 3.3156e-17
8983.9 3.4726e-17
8985.425 3.0355e-17
8986.95 3.2359e-17
8988.475 3.3974e-17
8990.0 2.5527e-17
8991.525 2.9889e-17
8993.05 3.3015e-17
8994.575 3.1983e-17
8996.1 3.3363e-17
8997.625 3.292e-17
8999.15 3.592e-17
9000.675 4.3655e-17
9002.2 4.4381e-17
9003.725 3.5046e-17
9005.25 2.8291e-17
9006.775 2.791e-17
9008.3 3.1546e-17
9009.825 3.3087e-17
9011.35 3.0177e-17
9012.875 2.4896e-17
9014.4 2.4229e-17
9015.925 3.2064e-17
9017.45 3.7062e-17
9018.975 3.638e-17
9020.5 3.2836e-17
9022.025 2.6721e-17
9023.55 2.7337e-17
9025.075 3.7109e-17
9026.6 3.9009e-17
9028.125 3.1072e-17
9029.65 3.2772e-17
9031.175 3.7928e-17
9032.7 3.3969e-17
9034.225 3.2992e-17
9035.75 3.6417e-17
9037.275 3.5559e-17
9038.8 3.0011e-17
9040.325 2.543e-17
9041.85 2.9279e-17
9043.375 2.9939e-17
9044.9 3.3477e-17
9046.425 4.1377e-17
9047.95 3.883e-17
9049.475 3.5253e-17
9051.0 3.8389e-17
9052.525 3.4232e-17
9054.05 3.2151e-17
9055.575 3.9747e-17
9057.1 3.3924e-17
9058.625 2.7305e-17
9060.15 2.8333e-17
9061.675 3.1443e-17
9063.2 3.7488e-17
9064.725 3.533e-17
9066.25 3.0744e-17
9067.775 2.7666e-17
9069.3 2.4301e-17
9070.825 2.5873e-17
9072.35 3.1367e-17
9073.875 3.757e-17
9075.4 3.7688e-17
9076.925 3.2238e-17
9078.45 2.7997e-17
9079.975 2.8196e-17
9081.5 3.2618e-17
9083.025 4.0287e-17
9084.55 3.8208e-17
9086.075 3.0956e-17
9087.6 2.9615e-17
9089.125 2.9026e-17
9090.65 2.9383e-17
9092.175 2.9904e-17
9093.7 2.7748e-17
9095.225 2.9333e-17
9096.75 2.7391e-17
9098.275 2.6402e-17
9099.8 3.4433e-17
9101.325 3.5003e-17
9102.85 2.9625e-17
9104.375 2.4932e-17
9105.9 2.3515e-17
9107.425 2.6193e-17
9108.95 2.9815e-17
9110.475 3.4254e-17
9112.0 3.1068e-17
9113.525 2.2982e-17
9115.05 2.4652e-17
9116.575 2.5508e-17
9118.1 2.2844e-17
9119.625 2.9764e-17
9121.15 3.4293e-17
9122.675 3.0809e-17
9124.2 2.8602e-17
9125.725 2.7705e-17
9127.25 2.4504e-17
9128.775 1.9924e-17
9130.3 2.1918e-17
9131.825 2.6199e-17
9133.35 2.7385e-17
9134.875 3.2976e-17
9136.4 3.4991e-17
9137.925 3.2466e-17
9139.45 3.1384e-17
9140.975 2.7098e-17
9142.5 2.3503e-17
9144.025 2.8781e-17
9145.55 3.193e-17
9147.075 2.7824e-17
9148.6 2.5991e-17
9150.125 2.5154e-17
9151.65 2.6884e-17
9153.175 2.7938e-17
9154.7 2.564e-17
9156.225 2.6331e-17
9157.75 2.7474e-17
9159.275 2.6915e-17
9160.8 2.8566e-17
9162.325 2.8069e-17
9163.85 2.5265e-17
9165.375 2.545e-17
9166.9 2.931e-17
9168.425 2.8713e-17
9169.95 2.7524e-17
9171.475 3.2227e-17
9173.0 3.1695e-17
9174.525 2.76e-17
9176.05 3.2353e-17
9177.575 3.136e-17
9179.1 2.826e-17
9180.625 3.1264e-17
9182.15 2.6527e-17
9183.675 2.3238e-17
9185.2 2.7661e-17
9186.725 3.3097e-17
9188.25 3.5509e-17
9189.775 3.7524e-17
9191.3 3.6423e-17
9192.825 3.1022e-17
9194.35 2.8244e-17
9195.875 2.8717e-17
9197.4 3.1128e-17
9198.925 3.3539e-17
9200.45 3.467e-17
9201.975 3.2325e-17
9203.5 2.6898e-17
9205.025 2.6449e-17
9206.55 3.0094e-17
9208.075 3.2331e-17
9209.6 3.126e-17
9211.125 2.877e-17
9212.65 2.7675e-17
9214.175 2.1602e-17
9215.7 1.9465e-17
9217.225 2.8168e-17
9218.75 3.3315e-17
9220.275 3.0467e-17
9221.8 2.7978e-17
9223.325 3.3307e-17
9224.85 3.706e-17
9226.375 3.3699e-17
9227.9 3.1566e-17
9229.425 3.0621e-17
9230.95 3.0971e-17
9232.475 3.1451e-17
9234.0 3.1466e-17
9235.525 3.1441e-17
9237.05 2.7938e-17
9238.575 2.7807e-17
9240.1 3.2311e-17
9241.625 3.138e-17
9243.15 3.2664e-17
9244.675 3.4243e-17
9246.2 2.9868e-17
9247.725 3.2638e-17
9249.25 3.6308e-17
9250.775 3.1184e-17
9252.3 2.642e-17
9253.825 2.5024e-17
9255.35 2.7702e-17
9256.875 3.0254e-17
9258.4 3.0998e-17
9259.925 3.0287e-17
9261.45 3.114e-17
9262.975 3.4609e-17
9264.5 3.4213e-17
9266.025 3.169e-17
9267.55 3.4574e-17
9269.075 3.4696e-17
9270.6 3.1064e-17
9272.125 2.864e-17
9273.65 2.4928e-17
9275.175 2.4038e-17
9276.7 2.8467e-17
9278.225 3.2296e-17
9279.75 3.462e-17
9281.275 3.4974e-17
9282.8 2.8001e-17
9284.325 2.5694e-17
9285.85 3.123e-17
9287.375 3.3335e-17
9288.9 3.2599e-17
9290.425 2.9496e-17
9291.95 3.0443e-17
9293.475 3.6524e-17
9295.0 3.3373e-17
9296.525 3.0686e-17
9298.05 3.2231e-17
9299.575 2.9181e-17
9301.1 2.6706e-17
9302.625 3.5174e-17
9304.15 4.6655e-17
9305.675 3.5274e-17
9307.2 2.1783e-17
9308.725 3.1186e-17
9310.25 4.2259e-17
9311.775 2.7073e-17
9313.3 5.5621e-17
9314.825 7.6077e-17
9316.35 1.9052e-17
9317.875 5.3243e-18
9319.4 4.8212e-17
9320.925 6.0953e-17
9322.45 5.381e-17
9323.975 5.1269e-17
9325.5 2.7743e-17
9327.025 2.3838e-17
9328.55 3.8514e-17
9330.075 2.9861e-17
9331.6 2.1031e-17
9333.125 2.6607e-17
9334.65 4.462e-17
9336.175 6.0506e-17
9337.7 5.3471e-17
9339.225 3.5505e-17
9340.75 2.8374e-17
9342.275 3.0003e-17
9343.8 3.7274e-17
9345.325 5.9095e-17
9346.85 6.9573e-17
9348.375 5.371e-17
9349.9 3.5569e-17
9351.425 2.1878e-17
9352.95 1.8263e-17
9354.475 2.9623e-17
9356.0 3.8993e-17
9357.525 4.5942e-17
9359.05 5.1397e-17
9360.575 4.355e-17
9362.1 3.6019e-17
9363.625 2.7313e-17
9365.15 2.5419e-17
9366.675 3.5699e-17
9368.2 3.1561e-17
9369.725 1.361e-17
9371.25 1.5744e-17
9372.775 3.9419e-17
9374.3 3.8855e-17
9375.825 5.9962e-17
9377.35 1.5192e-16
9378.875 1.2208e-16
9380.4 3.5301e-17
9381.925 4.0777e-17
9383.45 4.9578e-17
9384.975 4.3651e-17
9386.5 3.3334e-17
9388.025 2.7666e-17
9389.55 3.3759e-17
9391.075 3.7997e-17
9392.6 3.3707e-17
9394.125 3.216e-17
9395.65 3.4208e-17
9397.175 3.1307e-17
9398.7 2.8199e-17
9400.225 4.0708e-17
9401.75 3.7966e-17
9403.275 3.0185e-17
9404.8 3.5343e-17
9406.325 3.2956e-17
9407.85 2.9534e-17
9409.375 2.7248e-17
9410.9 2.9569e-17
9412.425 2.966e-17
9413.95 3.3474e-17
9415.475 4.0542e-17
9417.0 3.1766e-17
9418.525 2.7651e-17
9420.05 3.732e-17
9421.575 3.6931e-17
9423.1 2.8336e-17
9424.625 2.3451e-17
9426.15 2.1301e-17
9427.675 2.694e-17
9429.2 3.8707e-17
9430.725 4.798e-17
9432.25 4.3126e-17
9433.775 2.7826e-17
9435.3 3.674e-17
9436.825 5.3835e-17
9438.35 4.4222e-17
9439.875 2.7816e-17
9441.4 -2.4844e-18
9442.925 -2.2188e-17
9444.45 1.6562e-17
9445.975 5.1308e-17
9447.5 4.4537e-17
9449.025 4.1173e-17
9450.55 3.1154e-17
9452.075 1.5551e-17
9453.6 3.1888e-17
9455.125 5.3642e-17
9456.65 3.7739e-17
9458.175 2.9739e-17
9459.7 4.606e-17
9461.225 3.6955e-17
9462.75 3.0824e-17
9464.275 3.409e-17
9465.8 2.7231e-17
9467.325 2.653e-17
9468.85 3.0553e-17
9470.375 2.2125e-17
9471.9 1.1337e-17
9473.425 1.9339e-17
9474.95 4.2441e-17
9476.475 6.753e-17
9478.0 7.1843e-17
9479.525 3.5341e-17
9481.05 1.8502e-17
9482.575 4.2103e-17
9484.1 4.9607e-17
9485.625 4.1584e-17
9487.15 3.8914e-17
9488.675 3.4698e-17
9490.2 2.2296e-17
9491.725 2.2395e-17
9493.25 2.9556e-17
9494.775 3.0532e-17
9496.3 3.3046e-17
9497.825 5.0825e-17
9499.35 5.5716e-17
9500.875 4.5872e-17
9502.4 4.2527e-17
9503.925 4.3502e-17
9505.45 3.7193e-17
9506.975 2.7397e-17
9508.5 2.6298e-17
9510.025 2.8954e-17
9511.55 3.257e-17
9513.075 3.0045e-17
9514.6 3.4897e-17
9516.125 5.0677e-17
9517.65 5.8503e-17
9519.175 4.294e-17
9520.7 2.4806e-17
9522.225 2.445e-17
9523.75 3.492e-17
9525.275 3.6476e-17
9526.8 2.7607e-17
9528.325 3.3715e-17
9529.85 4.2595e-17
9531.375 3.5537e-17
9532.9 2.8309e-17
9534.425 3.0688e-17
9535.95 3.2307e-17
9537.475 2.9634e-17
9539.0 3.0128e-17
9540.525 3.0275e-17
9542.05 3.1599e-17
9543.575 3.6767e-17
9545.1 3.6729e-17
9546.625 3.6532e-17
9548.15 4.3219e-17
9549.675 4.9798e-17
9551.2 4.3169e-17
9552.725 3.6487e-17
9554.25 3.8461e-17
9555.775 2.7653e-17
9557.3 3.3121e-17
9558.825 4.9197e-17
9560.35 3.7362e-17
9561.875 3.4764e-17
9563.4 4.3689e-17
9564.925 4.0031e-17
9566.45 4.1449e-17
9567.975 3.5594e-17
9569.5 1.7608e-17
9571.025 2.1386e-17
9572.55 3.3316e-17
9574.075 3.3236e-17
9575.6 3.1117e-17
9577.125 2.8881e-17
9578.65 2.9474e-17
9580.175 2.9302e-17
9581.7 3.0787e-17
9583.225 3.0545e-17
9584.75 2.4138e-17
9586.275 2.5373e-17
9587.8 2.9315e-17
9589.325 3.3341e-17
9590.85 3.4152e-17
9592.375 3.8039e-17
9593.9 3.5342e-17
9595.425 2.8452e-17
9596.95 3.1688e-17
9598.475 3.2333e-17
9600.0 3.2874e-17
9601.525 2.6824e-17
9603.05 2.1935e-17
9604.575 3.1672e-17
9606.1 4.5345e-17
9607.625 5.3272e-17
9609.15 4.3913e-17
9610.675 3.349e-17
9612.2 3.3156e-17
9613.725 3.0283e-17
9615.25 2.3911e-17
9616.775 1.6072e-17
9618.3 2.2054e-17
9619.825 3.0283e-17
9621.35 4.1404e-17
9622.875 4.7364e-17
9624.4 3.9476e-17
9625.925 3.4706e-17
9627.45 3.0597e-17
9628.975 3.4367e-17
9630.5 3.8298e-17
9632.025 3.1957e-17
9633.55 2.612e-17
9635.075 2.2191e-17
9636.6 2.1902e-17
9638.125 2.5103e-17
9639.65 2.5862e-17
9641.175 3.2781e-17
9642.7 3.6129e-17
9644.225 2.7448e-17
9645.75 2.8031e-17
9647.275 3.2671e-17
9648.8 2.7481e-17
9650.325 2.7416e-17
9651.85 3.2004e-17
9653.375 3.049e-17
9654.9 2.9325e-17
9656.425 2.7009e-17
9657.95 2.571e-17
9659.475 3.0344e-17
9661.0 2.9435e-17
9662.525 2.1666e-17
9664.05 2.7485e-17
9665.575 4.6596e-17
9667.1 4.34e-17
9668.625 2.8104e-17
9670.15 2.7713e-17
9671.675 3.9437e-17
9673.2 4.1597e-17
9674.725 2.3781e-17
9676.25 1.7147e-17
9677.775 2.8874e-17
9679.3 3.6818e-17
9680.825 4.0983e-17
9682.35 4.0928e-17
9683.875 3.7277e-17
9685.4 2.5674e-17
9686.925 2.1452e-17
9688.45 3.2283e-17
9689.975 3.9886e-17
9691.5 3.5999e-17
9693.025 2.6982e-17
9694.55 3.6748e-17
9696.075 5.054e-17
9697.6 3.2125e-17
9699.125 1.4543e-17
9700.65 2.7339e-17
9702.175 2.5115e-17
9703.7 1.8985e-17
9705.225 2.6872e-17
9706.75 3.0383e-17
9708.275 3.471e-17
9709.8 3.3228e-17
9711.325 2.2196e-17
9712.85 1.6046e-17
9714.375 2.7134e-17
9715.9 5.0279e-17
9717.425 4.6225e-17
9718.95 3.1448e-17
9720.475 3.4814e-17
9722.0 2.5062e-17
9723.525 1.9182e-17
9725.05 2.589e-17
9726.575 2.2643e-17
9728.1 2.0107e-17
9729.625 2.7773e-17
9731.15 2.7377e-17
9732.675 1.9028e-17
9734.2 2.761e-17
9735.725 4.0655e-17
9737.25 4.041e-17
9738.775 4.6305e-17
9740.3 3.9576e-17
9741.825 2.5956e-17
9743.35 2.7979e-17
9744.875 2.768e-17
9746.4 2.0125e-17
9747.925 1.7284e-17
9749.45 2.1243e-17
9750.975 2.6331e-17
9752.5 3.0767e-17
9754.025 2.9048e-17
9755.55 2.9363e-17
9757.075 3.0177e-17
9758.6 2.4115e-17
9760.125 2.5286e-17
9761.65 3.2397e-17
9763.175 3.0119e-17
9764.7 2.0532e-17
9766.225 2.3049e-17
9767.75 3.2989e-17
9769.275 2.8842e-17
9770.8 2.3728e-17
9772.325 2.848e-17
9773.85 3.3315e-17
9775.375 3.2327e-17
9776.9 3.0273e-17
9778.425 2.3426e-17
9779.95 2.177e-17
9781.475 3.0291e-17
9783.0 2.6626e-17
9784.525 8.1291e-18
9786.05 5.0962e-18
9787.575 4.0844e-17
9789.1 6.0933e-17
9790.625 4.5793e-17
9792.15 2.6104e-17
9793.675 1.4079e-17
9795.2 7.0449e-18
9796.725 9.2752e-18
9798.25 2.7336e-17
9799.775 4.4504e-17
9801.3 4.0618e-17
9802.825 2.5615e-17
9804.35 2.6462e-17
9805.875 2.6343e-17
9807.4 2.7853e-17
9808.925 3.1961e-17
9810.45 2.8337e-17
9811.975 2.097e-17
9813.5 9.7628e-18
9815.025 1.4954e-17
9816.55 2.2788e-17
9818.075 2.4986e-17
9819.6 3.0705e-17
9821.125 3.2109e-17
9822.65 3.4756e-17
9824.175 4.1458e-17
9825.7 3.3546e-17
9827.225 2.375e-17
9828.75 2.7809e-17
9830.275 3.5803e-17
9831.8 3.5626e-17
9833.325 2.0794e-17
9834.85 2.1981e-17
9836.375 3.5875e-17
9837.9 3.3934e-17
9839.425 2.9764e-17
9840.95 2.9214e-17
9842.475 2.9561e-17
9844.0 3.7754e-17
9845.525 4.2293e-17
9847.05 3.0549e-17
9848.575 1.6482e-17
9850.1 1.2729e-17
9851.625 1.9616e-17
9853.15 3.0911e-17
9854.675 3.3102e-17
9856.2 2.6889e-17
9857.725 2.4134e-17
9859.25 2.4198e-17
9860.775 2.6902e-17
9862.3 3.7677e-17
9863.825 3.9298e-17
9865.35 2.3868e-17
9866.875 2.5195e-17
9868.4 3.2448e-17
9869.925 1.849e-17
9871.45 9.6397e-18
9872.975 3.7273e-17
9874.5 5.1331e-17
9876.025 2.7674e-17
9877.55 2.4325e-17
9879.075 2.8315e-17
9880.6 2.4324e-17
9882.125 2.419e-17
9883.65 2.5972e-17
9885.175 2.5158e-17
9886.7 2.2108e-17
9888.225 2.248e-17
9889.75 2.5696e-17
9891.275 4.9554e-17
9892.8 5.3745e-17
9894.325 2.1046e-17
9895.85 1.8753e-17
9897.375 2.9387e-17
9898.9 2.3488e-17
9900.425 2.4362e-17
9901.95 3.5067e-17
9903.475 3.8779e-17
9905.0 2.9638e-17
9906.525 2.5516e-17
9908.05 2.8086e-17
9909.575 3.7567e-17
9911.1 5.9734e-17
9912.625 4.963e-17
9914.15 4.0499e-17
9915.675 6.3944e-17
9917.2 3.9752e-17
9918.725 1.1323e-17
9920.25 2.7292e-17
9921.775 3.3843e-17
9923.3 2.6184e-17
9924.825 2.7758e-17
9926.35 3.0094e-17
9927.875 2.8147e-17
9929.4 2.6759e-17
9930.925 2.5181e-17
9932.45 1.7518e-17
9933.975 1.26e-17
9935.5 1.9427e-17
9937.025 2.6974e-17
9938.55 2.134e-17
9940.075 1.2115e-17
9941.6 2.0684e-17
9943.125 3.8826e-17
9944.65 4.1701e-17
9946.175 4.3384e-17
9947.7 3.5246e-17
9949.225 2.2472e-17
9950.75 8.3307e-18
9952.275 6.6097e-18
9953.8 1.3458e-17
9955.325 -2.2552e-18
9956.85 2.0847e-17
9958.375 3.5603e-17
9959.9 2.5111e-18
9961.425 1.2659e-18
9962.95 2.1994e-17
9964.475 2.5297e-17
9966.0 2.4001e-17
9967.525 2.2388e-17
9969.05 3.8942e-17
9970.575 4.1887e-17
9972.1 2.0184e-17
9973.625 2.159e-17
9975.15 2.9167e-17
9976.675 2.891e-17
9978.2 2.9466e-17
9979.725 2.5818e-17
9981.25 2.3772e-17
9982.775 2.831e-17
9984.3 2.7423e-17
9985.825 3.0543e-17
9987.35 3.6269e-17
9988.875 2.0734e-17
9990.4 9.3233e-18
9991.925 2.2047e-17
9993.45 2.5909e-17
9994.975 1.7327e-17
9996.5 1.8944e-17
9998.025 2.358e-17
9999.55 2.4561e-17
