 texplosion  fnickel    Pspin  log(Bfield)      Mns  thetaPB   mejecta    kappa  kappagamma     vejecta  temperature    alpha  cutoff_wavelength  log(nhhost)      A_V         MJD0  kenergy  mnickel           TSD   log(L0)  Peak_mag     Peak_MJD  log(E_rad)  log(Peak_lum)  Rise_Time    E_fold  tau_1  delta_m15     r_peak     frac 
   -6.62192  0.00297  0.92674     14.36467  1.49776  1.04173  10.63367  0.05028     0.23712  5234.44582   4808.57409   0.1702         4770.13064     16.11408    1e-05  58728.61636  1.73801  0.03154   22275.35541  48.16255  19.14036  58775.20619     51.0776       44.49905   12.98584  32.42063   37.0     0.2585  -20.54673   0.9999 
   -5.57358  0.02243  0.88383     14.51456   1.9751  1.30488   5.48114  0.09723     0.10311  5435.65284   9915.27143  0.17864           2946.377     18.87168  0.00413   58729.6647  0.96605  0.12292    13397.2689  48.54469  19.08959  58775.20619    51.12982       44.57842   12.98584  30.70583   30.0    0.23586  -20.70307  0.99985 
   -6.29043  0.00326  1.32673     14.39947  1.91445  1.54996     7.362  0.06343     0.01314  5287.43462   8146.26143  0.11125         2957.04165     18.60388  0.00223  58728.94785  1.22776    0.024   49714.22736  47.60884  19.11202  58775.29611    51.05302       44.49905   17.35449  29.55788   35.0      0.267  -20.62246  0.99985 
   -5.33316  0.00474  1.11834     14.44482  1.69142  0.97664  12.19569  0.04343     0.02595  5935.48488   9849.88876  0.03993         3126.02635     16.07849    1e-05  58729.90513  2.56298  0.05775   25327.19976  47.99636  19.13746  58777.11357    51.07236       44.49917   12.98584  34.02499   29.0    0.29304  -20.66567  0.99974 
    -6.0593  0.07618  1.04252     14.38255  1.69485  1.43793    3.3342  0.18986     0.01284  6019.06316   9033.71798  0.06679         2596.52127     16.76906    3e-05  58729.17898  0.72057    0.254   29377.28743   47.9938  19.12448  58774.52237    51.15212       44.60855   12.98584  29.88694   28.5     0.3073  -20.72283  0.99912 
   -5.37411  0.03644  1.01764     14.54574  1.99651  1.31358   4.76696  0.17551     0.01028  6456.96515   4666.41796  0.30459          2399.5547     16.28759    1e-05  58729.86418  1.18556  0.17371   15552.23677  48.36214   19.1107  58775.29611    51.09717       44.54961   12.39075  32.61681   31.5     0.2749   -20.6667  0.99969 
   -5.32352  0.00303    0.771     14.45882  1.82313  1.37746   5.68781  0.09339     0.07038  5346.02115    3741.1484  0.19096         3667.51763     17.67641  0.00026  58729.91476  0.96969  0.01725   12164.76082  48.67046  19.12725  58774.52237    51.15049       44.59204   12.39075  31.21975   36.0     0.2749  -20.60446  0.99998 
   -4.43764  0.01401  0.82827     14.33494  1.57569  1.50785   3.32792  0.19635     0.02284  6106.09805   3696.79374  0.36612          2664.9156     20.21315  0.09076  58730.80064  0.74016  0.04663   21466.19326  48.29822  19.13989  58775.29611    51.13525       44.57533   11.56689  32.12477   34.0    0.26344  -20.73955  0.99991 
   -6.25996  0.00643  0.95127     14.27342  1.47155  1.49172   5.19194  0.10234     0.09065  5646.73952    7864.8755  0.11316         2745.61552     18.07058  0.00065  58728.97832  0.98753  0.03336   35104.29915  47.93466  19.12096  58775.29611    51.05204       44.48817    14.0256  33.11675   34.0    0.27447  -20.63438  0.99987 
   -6.53123   0.0106  2.29661     14.14124  1.42175  1.19161   3.49681  0.15947     0.01186  6296.28966   8813.69187  0.35235         2389.41302     20.00347    0.056  58728.70705  0.82693  0.03708  363352.95528  46.13916  19.09457  58774.52237    51.13452       44.58257   12.39075  31.30091   30.5    0.28539  -20.77239  0.99862 
   -5.72557   0.0048  1.01434     14.34886   1.6672  1.24078   8.56349  0.05599      0.0147     5608.54   9865.15905  0.03046         3884.46104     19.81795  0.03653  58729.51271  1.60686  0.04108   31948.16536  47.97402  19.12996  58774.26953    51.12618       44.59104   12.98584  29.88694   29.5    0.28783  -20.68908  0.99985 
   -5.29407   0.0085  1.14212     14.58061  1.99562  0.97327     6.977  0.07931     0.01197  5643.30287   4434.65399  0.25583         3363.51358     19.46098  0.01606  58729.94421  1.32545   0.0593   16675.96939  48.23141  19.13758  58775.29611    51.15537       44.60393   12.98584  30.54743   35.0    0.28219  -20.65788  0.99982 
   -5.49648  0.00228  0.72858      14.4381  1.73751  1.52469   4.21222   0.1378     0.01008  5559.89434   9961.24797  0.21037         3675.68567      16.0602    1e-05   58729.7418  0.77673  0.00961   11389.19418  48.72733  19.12305  58775.20619    51.03882       44.48936   14.02653  32.88584   27.0    0.27246   -20.9252  0.99999 
   -5.32162  0.00195  0.75979     14.47236  1.75471  1.24232   8.06338   0.0714      0.4554  5503.04268    6363.2222  0.18927         4012.30993     16.11503    1e-05  58729.91666  1.45663   0.0157   10682.58853  48.72299  19.11557  58775.29611     51.0904       44.52261   14.02653  31.37994   35.0    0.27918   -20.5932  0.99999 
   -5.60322  0.00255  0.89016     14.46457  1.67792  0.92088   5.82386  0.08197     0.01294  5101.63554   6468.81122  0.17614         4117.93376     16.75743    3e-05  58729.63506  0.90419  0.01482   14533.79029   48.4323  19.08759  58775.29611    51.04878       44.48181   16.49717  30.51366   34.5    0.25995   -20.6637  0.99997 
   -6.47492   0.0061  0.77027     14.56942  1.83097   0.8323   7.83656  0.06707     0.09035  5649.85934   4113.10409  0.01764         5119.00814     18.72367  0.00294  58728.76336   1.4922  0.04783    7327.13891  48.89331  19.13355  58774.52237    51.09234       44.53578   12.98584  30.70583   35.0     0.2739  -20.57073  0.99995 
   -5.42887  0.00266  1.20427     14.40163  1.62265   1.0417  10.13543  0.05495     0.06354   5912.4576   7323.78467  0.18277         2726.82605     16.34077    1e-05  58729.80941  2.11352  0.02695    34373.1391   47.7814  19.11478  58775.20619    51.14425       44.59236   12.98584  30.70583   34.5    0.27294  -20.65462  0.99983 
    -5.0966  0.00317  0.82228     14.37927  1.46499  0.96055    7.5738   0.0792     0.10159  6207.58693   9665.40089  0.13452         2056.35466     19.70819  0.02837  58730.14169  1.74095  0.02403   16037.80947   48.3995  19.10969  58774.26953    50.94809       44.38561   20.59545  29.54388   28.0    0.26652  -20.76787  0.99995 
   -5.25686   0.0023  0.95522      14.4192  1.83421  1.17601  20.00531  0.02493      0.0377  5823.91939   6993.97402    0.148         2002.78485     20.23752  0.09599  58729.98142  4.04765  0.04606   22546.65583  48.21901  19.08439  58775.29611    51.23901       44.69161   12.39075  30.48203   35.5    0.29031  -20.75668  0.99989 
   -5.51323  0.00159  1.25349     14.24962  1.57197  1.31129   4.53292  0.11124     0.01007  5760.81361   8260.16394  0.09934           3416.068     20.19419  0.08688  58729.72505  0.89737  0.00722   72654.83536  47.40778  19.08994  58775.29611    51.06499        44.5009   12.98584  33.92653   31.5    0.29119   -20.7893  0.99994 
    -6.1814  0.02219  0.88107     14.54378  1.95335  1.04654   4.39746  0.12364     0.01043  5587.72358   4156.26094   0.0926         4060.46255     16.37475    1e-05  58729.05688  0.81903   0.0976   11509.33021  48.60856  19.10815  58775.29611    51.03727       44.44616    14.0256  33.11675   31.5    0.29395  -20.66789  0.99987 
   -6.51243  0.00717  1.11187     14.42208  1.78452  1.19518   8.96747  0.05847     0.01448  5674.04777   9949.46432   0.0254         4335.85709      18.4682  0.00163  58728.72585   1.7222  0.06427   29327.51631  47.96098  19.11457  58774.52237    51.13681       44.59458   12.39075  30.48203   29.0    0.27085  -20.60384  0.99974 
   -6.81079  0.02147  1.95382     14.28778  1.69983  1.41044   3.33827  0.15917     0.01078  5654.11027   5421.94371  0.11854         2613.87141     18.10256   0.0007  58728.42749  0.63662  0.07167  160111.99996  46.71306  19.11604  58774.52237    51.15332       44.61357   12.39075  29.64678   33.5    0.29491  -20.62799  0.99857 
   -6.63673  0.03484  0.88997     14.64198  2.09477  0.84624   8.55644  0.06592     0.23988  5706.57146   9962.63622  0.07176         2113.33174     19.77386  0.03301  58728.60155  1.66215  0.29811    8011.91921  48.78749  19.12702  58775.29611    51.08935       44.52756   12.39075  32.61681   29.5    0.26417  -20.58203  0.99966 
   -5.92496  0.00109  1.04268     14.38674  1.72405  1.10602  23.57829  0.01747      0.0121  5108.90691   5692.45846  0.14826         2331.69117     16.47431    2e-05  58729.31332  3.67109  0.02569    29321.8381   48.0019  19.13923  58775.20703    51.17963       44.63221   14.02653  28.84625   38.0    0.26333  -20.57993   0.9999 
   -5.41686  0.00348  1.00515     14.43064   1.8142  1.33717  18.52612  0.02857     0.06108  6011.80731   4210.90736  0.02605         4431.27854      19.4633  0.01614  58729.82142  3.99413  0.06455   23424.81416  48.15339  19.14653  58775.20619    51.04412       44.46211   15.12062  32.02172   34.5    0.27829  -20.67447  0.99983 
   -5.52791  0.01058  1.37772      14.5145   2.0259  1.19842   4.19481  0.17324     0.01201  6560.63096   6913.90277  0.02306         4897.83604      19.5089  0.01793  58729.71037  1.07704  0.04439   33401.15305  47.77338  19.10349  58775.29611     50.9488       44.35994   19.39018  32.02172   30.5    0.31556  -20.79114  0.99975 
    -6.4567  0.00614  1.31763     14.42755  1.91595  1.41565   4.26924  0.13018     0.01059  5525.77998   9087.21484  0.12292         3601.71207     19.17137  0.00824  58728.78158  0.77761   0.0262   43121.27092  47.67695  19.12593  58775.29611    51.11739       44.56601   12.39075  32.61681   29.5    0.26918  -20.63074  0.99985 
   -6.23959  0.01846  1.42211     14.41285  1.89832  1.32704   6.74393  0.07033     0.15802  5677.21167    7534.0179   0.0634         4468.32683     19.23676  0.00958  58728.99869  1.29661   0.1245   53255.12742  47.51499  19.13033  58777.11357    51.05175       44.48346   15.73056  32.88678   36.0     0.2793  -20.68434  0.99906 
   -5.79295   0.0108  1.27634     14.43059  1.57275  0.82859   8.81147  0.05788      0.0229  5825.99763   9447.11381  0.05429         4577.96954     16.74405    3e-05  58729.44533  1.78409  0.09512    32751.6356  47.73834  19.15507  58775.29611     51.1294       44.56218   12.98584  32.02172   30.5    0.28436  -20.66624  0.99924 
   -4.73671  0.00172  0.86268     14.45465  1.77564  1.43823  27.15842   0.0195     0.11568  5560.92823   7509.58174   0.2919         3512.88552      17.2179    9e-05  58730.50157  5.00987  0.04684   15120.22484  48.46695  19.09632  58775.29611    51.11734       44.55894   14.02653  31.26897   33.5    0.28977  -20.64875  0.99994 
   -5.68002  0.00176   1.1326     14.30133  1.57408  1.55512  10.23514  0.04796     0.02282  5460.11076   9466.97153  0.08111         5613.59917      17.6847  0.00027  58729.55826  1.82022  0.01796   46809.39366  47.68739  19.11992  58775.29611    51.19947       44.66119   12.39075  29.64678   30.5    0.27854  -20.65896   0.9999 
   -5.75092  0.00265  0.78856     14.40756  1.82449  1.43888   9.72592  0.04849      0.0105  5750.24998   3135.12511  0.04878         2273.45875      20.0992  0.06981  58729.48736  1.91837  0.02577   16125.13233  48.52881  19.13861  58775.29611    51.06444       44.50104   15.12062  31.79175   33.5    0.30327  -20.71499  0.99997 
   -6.00689  0.00231  0.87234     14.42076  1.88535  1.32823   6.45811  0.06166     0.01108  5082.24377    3948.2106  0.05393         5177.05929     16.62034    2e-05  58729.23139  0.99505  0.01491   19189.53905   48.3798  19.09763  58775.20619    51.11556       44.56185   12.98584  32.02172   34.0    0.29547  -20.71825  0.99998 
   -6.12897  0.00463   1.4545     14.31118  1.66266  1.43472   5.52645  0.09456     0.01158  5363.82433   9639.15352  0.18801         3026.27443     18.54937  0.00197  58729.10932  0.94847   0.0256   77926.36082  47.27254  19.13702  58775.29611    51.11332       44.55854   14.09571  32.61681   30.5    0.25133  -20.63615  0.99974 
   -6.40683  0.00571  0.72597     14.58018  1.74034  0.70085  20.02779  0.02441     0.49882   5289.2195   3791.37264   0.0159         4398.34565     16.14302    1e-05  58728.83145  3.34228  0.11442    5887.36249  49.01772  19.14266  58774.52237    51.13053       44.58333   12.98584  30.54743   36.5    0.26865  -20.54799  0.99989 
   -5.56207  0.00342   0.8858     14.59813  2.17788   1.2832   7.07412  0.08884     0.20544  5857.81483   4665.39967  0.14229         4495.08411     19.48271  0.01688  58729.67621  1.44801  0.02421    10098.6208  48.70794  19.11813  58775.20619    51.09121       44.54104   12.39075  31.30091   34.5    0.30711  -20.82669  0.99998 
   -6.53423  0.00191   1.0098     14.28574  1.57619  1.55215  11.77085  0.03646     0.07795  5216.52309   9987.34769  0.05531         3989.70173     18.68947  0.00272  58728.70405  1.91072  0.02253   40032.57922  47.85557  19.09156  58775.29611    51.00758        44.4415    17.2554    31.324   30.5     0.2739  -20.56381  0.99991 
   -6.37731  0.00314  1.37158     14.48955  1.86638      1.0   4.55141  0.13073     0.01047  5909.63884   3482.62554  0.07034         3352.76492     17.76289  0.00032  58728.86097  0.94819  0.01429   34210.99726  47.73124  19.12979  58775.29611    51.09463       44.53801   12.39075  33.01572   32.0    0.29253   -20.6553   0.9999 
   -4.41793  0.08455  1.24071      14.5227  2.03177  1.33273    8.5052  0.06039     0.11254  5905.23954   8965.08985  0.35638         2117.95902     18.01326  0.00057  58730.82035  1.76924  0.71914   26159.36052  47.97175  19.11232  58774.52237    51.25014       44.72098   11.56689  29.17111   33.5    0.26886  -20.64405   0.9973 
   -5.31281  0.01303  0.70918     14.62378  1.73943  0.71385   6.03254  0.09555     0.05015  6038.41867   4034.96476  0.08123         2806.06026     16.77338    3e-05  58729.92547  1.31212  0.07861    4593.73804  49.14558  19.11243  58774.52237    51.12991       44.58368    14.0256  29.66607   34.0    0.30103  -20.63978  0.99995 
   -6.11754  0.00495  0.94166     14.11858  1.20604  1.38771   5.53549  0.07847     0.07217   5103.5562   8913.67622  0.13111         4262.62332     18.05952  0.00064  58729.12075  0.86006  0.02741   57516.87282  47.64263  19.10872  58774.52237    51.10125       44.56998   12.98584  30.70583   33.5    0.26241  -20.61785  0.99983 
   -6.31171  0.00122  0.70912     14.36824     1.75   1.5513   8.30042  0.05092     0.01168  5089.63733   9724.90957  0.04612         3087.29465     18.43706  0.00152  58728.92657  1.28263  0.01012   14990.25752  48.63463  19.12296  58775.20619    51.22599       44.70252   11.56689  29.17111   30.5    0.26715  -20.57586  0.99999 
   -6.44336  0.00343  1.05246     14.31807  1.57367  1.26877    4.7878  0.10689     0.02385  5507.18499    7808.5951   0.0393         5126.31358     16.29413    1e-05  58728.79492  0.86621  0.01642    37411.1113  47.84835  19.09726  58774.52237    51.13445       44.58945   12.39075  30.48203   34.0    0.27086  -20.60991  0.99992 
   -6.98778  0.00323    0.988      14.2522  1.43298   1.3835  17.86324  0.02978     0.01194  5594.50609   9059.58169  0.07127         2697.44093     17.93744  0.00048   58728.2505  3.33512  0.05773   40659.60447  47.82641  19.11612  58775.29611    51.03428        44.4645   13.47401  34.15651   32.0    0.26409  -20.54394  0.99973 
   -5.29238  0.00156  0.85928     14.44932  1.70772  1.11705  23.29338  0.02447     0.01676  5893.04101   8925.08075  0.06922         2755.84223      17.5533   0.0002   58729.9459  4.82546  0.03634   14786.16403  48.46314  19.15106  58775.29611    51.14488       44.58857   12.39075  31.30091   29.5    0.30059   -20.6442  0.99994 
   -6.50757  0.05953  1.24391     14.29631  1.51152  1.19393   4.77914  0.11003     0.01095   5780.7471   9795.53217  0.05564         2343.50538     16.95086    5e-05  58728.73072  0.95268  0.28452    55485.4482   47.5145  19.12471  58775.29611    51.18459       44.65174   12.39075  29.64678   28.0    0.27365  -20.62731  0.99769 
   -5.67346  0.02585  1.10373     14.52253  1.81813  0.91686   6.83986  0.07571     0.47731  5509.29027   9791.41203  0.17811         3159.69451     18.44488  0.00155  58729.56482  1.23841   0.1768   18540.04018  48.17463  19.09875  58775.29611    51.04954       44.49385   16.49798  30.64436   30.0    0.26913  -20.64963  0.99938 
   -5.79134  0.01655  0.87493     14.35519  1.60464  1.52571   3.91026  0.14777     0.01206  5781.12763     7514.373  0.07731         4995.84177     17.63757  0.00024  58729.44694  0.77957  0.06472   22220.81957  48.24352  19.13966  58774.26953    51.10704       44.55943    14.0256  30.98197   30.0      0.304  -20.66657  0.99986 
   -6.05605   0.0035  0.98392     14.36776  1.64426   1.3051   5.28954  0.09761     0.08137    5622.832     9536.859  0.06674          2465.4704     17.94348  0.00049  58729.18223   0.9976   0.0185   27175.81106  48.06472  19.16006  58775.29611     51.1144       44.53361   15.73056  31.27124   29.0    0.27765  -20.66233  0.99994 
   -5.41632  0.00179  0.84028     14.46934  1.78478  1.51682   5.02234  0.13318     0.48091  6133.20704   5656.92698  0.18238         3519.68661     17.71523  0.00029  58729.82196  1.12696  0.00897   13476.31882  48.54201  19.10363  58774.52237    51.15459       44.61502    14.0256  28.76104   34.5    0.26281  -20.62603  0.99999 
   -6.35903   0.0067  1.67721     14.23099  1.53325  1.45446   3.42363  0.14937     0.01061  5667.45776   4020.39025  0.13918         2909.33823     16.49988    2e-05  58728.87925  0.65598  0.02293  138237.51326  46.86466  19.12712  58775.29611    51.12381       44.57006   12.98584  32.02172   33.0    0.28611   -20.6522  0.99961 
     -6.062  0.00439  1.12751     14.40335  1.75392    1.272   4.16316  0.14784     0.01035  5881.74557   6999.16869  0.04454         2751.68228     17.62344  0.00023  58729.17629  0.85914  0.01826    32311.8782  47.89925  19.11523  58775.29611    51.04752       44.48057   16.82558  31.89021   31.5    0.28977  -20.70175  0.99992 
    -4.9751  0.00156  0.96333     14.48312   1.5831  0.77558   4.25881  0.12069     0.47757  5349.38087   3538.45338  0.20429         3172.67618      18.2705  0.00104  58730.26318  0.72698  0.00663   14744.85282  48.33216  19.10325  58775.29611    50.98089       44.40122   21.34782  29.93262   35.0    0.25469  -20.70213  0.99998 
   -5.87203  0.00545  0.81726     14.72342  2.09214  0.71453    8.8824   0.0597     0.01588  5465.66255   3700.49221  0.12022         3344.93005     17.50625  0.00018  58729.36625  1.58286  0.04844    4637.47932  49.09843  19.11526  58775.20619    51.20494       44.67055   12.39075  29.64678   35.0    0.25408  -20.58383  0.99996 
   -5.56212  0.00609  0.92886     14.37239  1.68582  1.37539   7.11406  0.06737     0.12587  5224.93982   4767.76965  0.15963          5224.3332     19.42819  0.01489  58729.67616  1.15853   0.0433   24308.12255  48.17401  19.10653  58775.20619    51.10602       44.54686   12.98584  32.02172   35.0    0.23626  -20.72773  0.99989 
   -7.13951  0.02211  1.13708     14.34319  1.52376  1.01126  11.63159  0.04227     0.35331  5418.41396   9339.94639  0.07757          3287.5301     17.33118  0.00012  58728.09877  2.03709  0.25713   37664.33407  47.76425  19.13065  58775.20703    51.13439       44.59597   12.98584  30.70583   33.0    0.26029  -20.53579  0.99839 
   -4.50587  0.00116  0.72713     14.39696  1.52934  1.07436  11.73618  0.05166     0.02543  5870.88998   9855.19099   0.3106         2696.98897     19.51162  0.01804  58730.73241  2.41303  0.01364   12067.80228   48.6485  19.09837  58775.29611    51.01453        44.4193   12.98584  35.59356   29.0    0.26236  -20.88229  0.99998 
   -6.22739  0.00327  0.92371     14.40506  1.70179  1.20629   3.91595   0.1474     0.01068  5707.73063    3405.7157  0.06971         3131.59516     16.71041    3e-05  58729.01089  0.76101  0.01279   20877.20158  48.24901  19.14016  58774.52237    51.06268       44.49166   13.47401  31.79175   31.5    0.29592  -20.65349  0.99997 
   -6.56984  0.00879  0.78322      14.2705  1.35702  1.08386   8.74465  0.05673     0.09132  5411.31294   9600.16522  0.02205         3442.91058     18.74038  0.00306  58728.66844  1.52748  0.07686   22241.78486   48.2665  19.09955  58774.26953     51.0118       44.45446   13.47401  32.02172   30.5    0.27802  -20.54448  0.99981 
   -6.06953  0.05574  1.81047     14.31688  1.68619  1.37568   4.06202  0.12866     0.01038  5625.20132   7496.16261  0.14481         3536.29803     18.00426  0.00056  58729.16875  0.76674  0.22643  119275.72505  46.90361    19.098  58775.29611    51.05979       44.48781   12.98584  33.92653   33.5    0.29225  -20.65007  0.99618 
   -6.29762  0.00284  0.87992     14.38007  1.77171  1.56864   8.15867  0.05702     0.02113   5450.7349   7954.37732  0.00798         4775.47415     18.82315   0.0037  58728.94066  1.44596  0.02318   22128.89924  48.28339  19.10817  58775.29611    51.05096       44.49523   15.12062  31.79175   33.5    0.26884  -20.61876  0.99996 
   -6.64403  0.01798  1.70204      14.4758  1.83895  0.93517   4.24085  0.13228     0.01322  5875.39251   3837.82582   0.0342         3927.55924     16.41475    1e-05  58728.59425  0.87328  0.07625   55300.00575  47.32875  19.10646  58775.29611    51.06987       44.50044    14.0256  31.38087   34.0    0.27652  -20.62824  0.99905 
   -6.59222  0.01585  1.16846     14.63361   1.8417  0.61998  10.07486  0.05018      0.0722  5571.93467   8074.38533  0.00064         5465.91281     19.17287  0.00827  58728.64606  1.86586  0.15972   12619.75372  48.29779  19.12072  58775.20619     51.1473       44.60025   12.91744  30.70583   35.0    0.26837  -20.59012  0.99929 
   -6.01608  0.00462  0.98799     14.28733  1.44345  0.94135  14.60773  0.02685     0.46801  5103.83755   9151.02863  0.10215          3472.6631     19.81785  0.03652   58729.2222  2.26988  0.06746   34839.80092  47.89666  19.15485  58774.52237    51.15442       44.59659   12.39075  31.14251   33.5    0.27477  -20.66823  0.99966 
   -6.99578   0.0358  1.21974     14.53674  1.93207  0.91698   9.90632  0.04972     0.05992  5624.92446   8039.55413  0.00802         3533.79408      18.1538  0.00079   58728.2425   1.8697  0.35465     22536.763  48.02944  19.10374  58775.29611    51.10891       44.56205   12.98584  32.02172   36.5    0.26044  -20.55424  0.99842 
   -5.10087  0.09344   1.1467     14.37796  1.67665  1.11526   4.11823   0.1147     0.01237  5758.55613   5174.94438  0.05727         4205.40854     19.62288  0.02331  58730.13741  0.81464  0.38482   35912.09012  47.81915  19.08748  58775.20619    51.13787       44.58643   12.39075  31.30091   33.0    0.28741  -20.72469  0.99798 
   -5.42466  0.00589  0.89855      14.2548   1.3597  1.14319   9.79327  0.06135     0.07177  5899.95332   4509.53918  0.15943         4143.45708     20.26891  0.10319  58729.81363  2.03354  0.05767   31531.59269  47.99646  19.12158  58775.29611    51.12631       44.57699   12.39075  31.30091   36.0    0.25409  -20.74396  0.99978 
   -4.44192  0.30464  2.40388     14.51212  1.71977  0.76024   3.05295  0.20061     0.01279   6178.6991   9921.83488  0.66414         2645.40562      18.3948  0.00138  58730.79636  0.69525  0.93005   87270.43979  46.80162  19.11856  58775.29611    51.10227       44.54742   15.73056   31.2699   28.5     0.2623  -20.67869  0.97292 
   -6.27117  0.00468  0.75691     14.66941  2.03661  0.77794   6.34065  0.08621     0.02106  5692.36396   7122.26007  0.00773         3525.69174     18.41155  0.00143  58728.96712  1.22559  0.02969    4965.85648  49.12367  19.08566  58775.29611    51.08098       44.50713   12.39075  33.01572   33.5    0.27521  -20.61503  0.99998 
   -5.92313  0.00552  0.72667     14.52098  1.85057  1.02589   8.64374  0.06293     0.27036  5568.48358   9997.56565  0.02657         4439.97858     17.46675  0.00016  58729.31515  1.59883  0.04771    8238.17984  48.89764  19.11882  58775.29611    51.12893       44.56512    14.0256  30.98197   29.0     0.2684  -20.58354  0.99997 
   -6.82756  0.00823  0.99615     14.49652  2.04245  1.45917  10.93128   0.0497     0.17607  5643.94031    4326.2088  0.00744         4011.58516     19.28023  0.01059  58728.41072  2.07713  0.08993   19123.85358  48.30078  19.11562  58775.29611    51.04011       44.47582   14.02653   32.9843   37.0    0.26265  -20.53825  0.99983 
   -5.49122  0.00783  1.51011     14.53977  1.64471  0.68519   6.65827  0.08234     0.09482  5799.35039   9318.23597  0.22715         3805.76898     19.28458   0.0107  58729.74706  1.33582  0.05213   28999.43946  47.66453  19.12522  58774.52237    51.11599       44.55202   15.12062  29.88694   31.5    0.26933   -20.6807  0.99942 
   -5.91946  0.00755  0.79021     14.61935  1.76821  0.66182  15.50479  0.03188      0.0102  5672.79724   4114.30299  0.00196         5381.85528     16.94333    5e-05  58729.31882  2.97637  0.11703     5917.3484  48.94877  19.10357  58775.29611    51.10632       44.54027   14.02653  31.37994   35.0    0.29471     -20.61  0.99986 
    -6.3193  0.00116  0.72663     14.38768  1.41555  0.74375  14.92853  0.02871     0.03851  4916.43437   7881.45876  0.09547         5762.25091     19.52771  0.01873  58728.91898  2.15251  0.01731   11641.47481  48.63114  19.13348  58775.29611    51.21271        44.6723   12.39075  29.64678   36.0    0.27562    -20.613  0.99997 
   -6.42509  0.07638  1.16356     14.33051  1.64104  1.51446   7.27302  0.06871     0.01016  5390.14894   3049.21417  0.10701         5830.97065     17.67994  0.00027  58728.81319   1.2605  0.55554   45029.18578  47.69889  19.11051  58775.20619    51.15853       44.62619   12.39075  29.64678   38.5    0.26237  -20.64852   0.9969 
    -6.3495  0.00482  0.75826      14.2776  1.38744    1.017   6.54365   0.0683     0.10218  5336.84074   9826.61622  0.00737         5068.47536     18.05343  0.00063  58728.88878  1.11177  0.03152   20628.82351  48.33695  19.10087  58775.20619    51.10649       44.56399   12.39075  31.30091   30.0    0.27813  -20.60669  0.99993 
    -6.5415  0.02065  1.08268      14.6053  2.07946  0.94328   4.44544  0.14803     0.01087  6084.92012   4656.99143  0.01341         5770.25877     19.27433  0.01045  58728.69678  0.98186  0.09181   13936.66402  48.37364   19.1204  58775.29611    51.11123       44.55798   12.98584  32.02172   31.5    0.28858  -20.63605  0.99979 
   -6.71647  0.00186  1.22732     14.53447  1.97468  1.11335  11.26156  0.06034       0.058  6213.77245   9953.91583  0.03237         3863.56621     17.68538  0.00027  58728.52181   2.5938    0.021   23565.70439  48.01414  19.12934  58775.29611    51.02955        44.4621    17.2554    31.324   28.0    0.27383  -20.60365  0.99992 
   -5.83993  0.00339  0.71988     14.48748   1.5975  0.81829   7.44493  0.07078     0.03237   5715.9741   5277.68287  0.09431         2221.63331     19.10269  0.00704  58729.39835    1.451  0.02523    8143.47083  48.84696  19.12054  58775.29611    51.15464       44.58471   12.39075  32.61681   35.0    0.28813  -20.62928  0.99997 
   -6.00229  0.00144   0.8751     14.75436  1.64849  0.40521  12.29167  0.03987     0.33525  5706.38432    3301.4589    6e-05         3153.53798     18.35028  0.00124  58729.23599  2.38759  0.01765    3633.24108  49.04152  19.14716  58774.52237    51.19145       44.65997   12.98584  29.05169   33.5    0.28552  -20.74039  0.99996 
   -6.60337  0.01525  0.70067     14.27464  1.37393  1.30869   6.12076  0.09765     0.02038  5854.70738   9650.81571  0.02273         2239.12825     18.44196  0.00154  58728.63491  1.25153  0.09336   17681.74936  48.46826  19.08757  58774.52237    51.12594        44.5795   12.98584  30.62466   28.5    0.27966  -20.55512  0.99987 
    -6.3774  0.00257  1.27103     14.35415  1.52128  0.82618   9.60812  0.04258     0.15357   5215.1291   8282.75831  0.03821         3436.46899     17.42096  0.00015  58728.86088  1.55882  0.02466    44671.5533  47.59271  19.06084  58777.11357    51.01793       44.44499   15.12062  33.52048   37.0    0.26478  -20.60169  0.99978 
   -5.20821  0.00163  1.22104     14.48586  1.95835  1.55528   12.1275  0.04598     0.37218  5416.57251   7655.29357  0.29918         3403.91039     17.04017    6e-05  58730.03007   2.1225  0.01972   28936.99092  47.92582  19.11595  58775.29611    51.07754        44.5156   14.02653  32.88584   34.5    0.25094  -20.63184  0.99992 
   -6.04662  0.00199  2.07049     14.34455  1.53434  0.88424    3.8095  0.16313     0.01183  6061.38686   7498.00688  0.35444          2720.4338     17.56471   0.0002  58729.19166  0.83491  0.00759  124963.97105  46.72584  19.08597  58774.52237    51.13746        44.5818    14.0256  29.66607   33.0    0.27486  -20.68946   0.9998 
       -6.1  0.00423  0.80811     14.52827  2.04804   1.3483   6.36561  0.08762     0.01052  5503.48275   4337.87533  0.08111         4132.50194     19.36928    0.013  58729.13829  1.15012  0.02693   10903.04486   48.7277  19.10591  58775.20619     51.0844       44.52759   14.02653  30.98103   33.0    0.24742  -20.71397  0.99998 
   -7.11362  0.01545  1.16569     14.36366  1.64822  1.22323   3.48824  0.17633     0.01385   5826.7657   5883.43516  0.01257         3048.83936     17.34253  0.00012  58728.12466  0.70646  0.05391   38966.22603    47.762   19.1105  58773.28051    51.06759       44.51374   11.33923  32.02172   33.0    0.28901  -20.55665   0.9997 
   -6.83131   0.0014  0.94337     14.32402  1.59508  1.40594  23.06176  0.02282     0.33119   5465.8647   5610.19846   0.0041         4041.83088     17.32656  0.00012  58728.40697  4.10996  0.03235   29642.15522  48.05036  19.12543  58775.29611     51.1038       44.54804   14.02653  30.98103   37.5     0.2746  -20.52392   0.9999 
   -5.19142  0.00184  0.84168     14.19419  1.30452  1.48873   7.98347  0.06079     0.14498   5241.5323   9640.56591  0.17092          4995.0668     18.70692  0.00283  58730.04686  1.30838  0.01469   35090.49592  47.98881   19.1144  58774.26953    51.20649        44.6907   11.56689  29.17111   30.5    0.25547  -20.67872  0.99995 
   -6.40153  0.00598  0.91964     14.54412  1.91144  0.85314  13.89812  0.03352     0.01878  5361.85564   9496.85232  0.00762         4740.16765     19.29877  0.01105  58728.83675  2.38349  0.08318   12250.98968   48.5348  19.11614  58774.26953    51.22456       44.71581   11.56689  28.76456   31.0    0.28072  -20.60277  0.99984 
     -5.977  0.00258  1.55087     14.30339  1.63557   1.3758   6.86545  0.07388     0.01162  5617.45369   9178.65265  0.10863         2950.46914     18.65635  0.00252  58729.26128  1.29234  0.01769   90336.11725   47.1455  19.13874  58777.11357    51.06966       44.49676   15.12062  33.45878   31.5    0.27904  -20.64507  0.99978 
    -5.2917  0.00199   0.7847     14.43039  1.72976  1.28286  11.00783  0.04984     0.38463  5760.44923   9542.42045  0.13926         2921.14227     17.41459  0.00014  58729.94658  2.17892  0.02186    13628.2756  48.58298  19.08038  58775.29611    51.15655       44.61454   15.12062  30.28585   30.0    0.29915  -20.65078  0.99998 
   -6.14523   0.0022   0.7492     14.44748  1.83999  1.05651  11.79507  0.04525     0.07406  5785.75306   8711.40607  0.02997         4576.89964     20.30771  0.11283  58729.09306  2.35531  0.02595   12214.43165  48.69759  19.14359  58775.29611    51.18116       44.63154   11.56689  31.24871   31.5    0.27199  -20.82137  0.99997 
   -4.89339  0.00662  3.02578     14.32016  1.87513  1.35273   3.11505  0.15335     0.01072  5858.05648   7400.64725  0.91299         2067.07075     16.68705    3e-05  58730.34489  0.63767  0.02062  364924.33217    46.018  19.10951  58775.20619    51.20353       44.66353   12.98584  30.54743   34.0     0.2771  -20.66099  0.99912 
   -6.00523  0.00277  0.84273     14.38186  1.52806  0.96464  12.50603  0.03899     0.06246  5346.42079   7791.15894  0.08468          4786.5095     16.25807    1e-05  58729.23305  2.13242  0.03462   17362.77443  48.36199  19.10503  58775.20619    51.06629       44.49766   15.12062  31.79175   34.0    0.27055  -20.72735  0.99992 
   -6.38897   0.0133  0.78662     14.53552  2.08882  1.44166   5.69703  0.09451     0.08203  5352.39529   6550.95064  0.06941         4165.72286     17.84627  0.00039  58728.84932  0.97358  0.07578   10190.55407  48.78902   19.1493  58775.29611    51.10865       44.54676   12.98584  32.02172   36.0    0.26441  -20.54721  0.99995 
   -6.09865  0.00433  0.82275     14.42309  1.41947  0.74037   7.89554  0.06801      0.0561  5866.50418   5974.07751  0.01728         2798.48003     16.61933    2e-05  58729.13963  1.62094  0.03417   12714.23286  48.48615  19.12735  58775.29611    51.14127       44.59106    14.0256  30.98197   34.5     0.2844  -20.71312  0.99991 
   -6.57473  0.00101  2.44938     14.46982  1.76664  0.66695   4.50617  0.09394     0.01047   5620.7315    4908.7285  0.07898          3394.0508     16.29981    1e-05  58728.66355  0.84922  0.00453  113092.58832  46.68445  19.10066  58775.29611    51.09997       44.54838   14.02653  30.98103   37.0    0.26918  -20.65284  0.99986 
   -6.64615  0.05186  0.86535     14.37472   1.6564  1.45824   4.80353   0.1287     0.01096  5631.22393   3653.23298  0.03238         4892.45288     16.96116    5e-05  58728.59213  0.90864  0.24912   20507.81497   48.3017  19.10218  58775.29611    51.05049       44.48695   14.02653  32.88584   34.0    0.25396  -20.54852  0.99953 
   -5.59028  0.00119  0.80347     14.35871  1.58041  1.18849  18.30613  0.02552     0.06291  5261.63578    4964.1964  0.12511         3897.86305      17.0042    6e-05    58729.648  3.02319  0.02172   18159.47074  48.39857  19.10101  58777.11357    50.96895       44.37451   15.12062  35.85685   34.5    0.26356  -20.68176  0.99996 
   -5.89435  0.00148  0.73149     14.43892  1.78988  1.43677   4.12982  0.14274     0.01039  5699.09869   9148.15712  0.11611         2608.60171      17.4745  0.00017  58729.34393  0.80015  0.00613   11782.27228  48.72202  19.12328  58775.29611    51.10869       44.55135   12.98584  32.02172   28.5    0.27456  -20.60743      1.0 
   -6.58764  0.01323   0.9665      14.7492  2.19647  0.67488  10.35243  0.04757     0.21365  5186.74628   9708.13513  0.17367         3329.55754     16.83011    4e-05  58728.65064  1.66134  0.13695    6046.96182  48.85863  19.09455  58775.29611    51.08328       44.51615   13.47401  33.45878   31.0    0.25526  -20.53171  0.99981 
   -5.68033  0.00588  0.70833      14.3195  1.49147  1.51628   3.78612   0.1747     0.01008  5828.35989   9454.44996  0.20681         2234.89741     16.22699    1e-05  58729.55795  0.76721  0.02224   15955.14129  48.53909  19.12334  58775.20619     51.1056       44.54352   12.98584  32.02172   26.5    0.29147  -20.67977  0.99997 
   -6.03874  0.00113  0.98543     14.31484  1.52909  1.42213  21.71829  0.02452     0.05645  5847.44961   3530.82646  0.11115         2028.92444     17.55522   0.0002  58729.19954  4.42982  0.02456   32345.54317  47.95622  19.07366  58775.20619    50.98865       44.41096   19.78987  30.42609   34.0    0.26517  -20.68373  0.99991 
   -6.14999  0.00564  0.85646      14.6638  2.02306   0.7626   8.71791  0.05837     0.03378  5308.94832   6115.43338  0.13056          5163.5264     16.88115    4e-05  58729.08829  1.46574  0.04913     6480.9568   48.8978  19.11871  58775.29611    51.16484       44.62702   12.98584  30.54743   34.5    0.26205  -20.68654  0.99995 
   -5.40421  0.00153  0.75589     14.29309  1.45384  1.38723    6.7946  0.07093     0.02978  5479.88964   4413.63234  0.14922         3026.78753     17.52122  0.00018  58729.83407  1.21712   0.0104   20001.77477  48.37337  19.11942  58774.52237    51.05763       44.50078   14.02653  31.37994   34.5    0.26415  -20.59194  0.99998 
   -5.83322  0.00774   0.9267     14.49343  1.85438  1.02647  10.88409  0.04477     0.30672  5393.85719   9732.00596  0.06918         3267.01134     18.83938  0.00384  58729.40506  1.88894  0.08428   15241.89547  48.42013  19.11726  58774.52237    51.05812       44.50871   12.98584  32.42063   30.5    0.27906  -20.60921  0.99984 
   -5.05549  0.00297  1.04372      14.5509  1.64519  0.71701    4.3067  0.13028     0.01056  5681.34785   4086.61616  0.22874         3212.90001      18.4568  0.00159  58730.18279  0.82923  0.01278   13164.06031   48.3285  19.13968  58775.29611    51.06412       44.49394   12.98584  32.42063   32.0    0.24348  -20.69761  0.99995 
   -5.32418  0.00563  1.11803     14.49001  1.87107   1.0931   5.64358   0.0984     0.14094  5716.13293   9790.52638  0.21331         2507.84019     18.51794  0.00183   58729.9141  1.09998  0.03178   22740.40575  48.08723  19.13267  58775.20619    51.12044       44.57479   12.98584  32.02172   30.0    0.26916  -20.64696  0.99989 
   -5.26218  0.00804  1.68349     14.44556  1.81785  1.04375   9.69841  0.05721     0.01881  6211.35021   9964.10299  0.08941         2463.30315     17.70447  0.00028   58729.9761  2.23203    0.078   61471.90585  47.28731  19.11376  58774.52237    51.14673       44.60078   11.56689  31.21975   28.5    0.28225  -20.69852  0.99904 
   -7.21924  0.00156  0.85033     14.37135  1.65829     1.29   4.73749  0.11517     0.01214  5373.15919   6434.81118  0.04434         5552.09205     18.11187  0.00072  58728.01904   0.8159  0.00738   20135.04331  48.32538  19.09385  58775.29611    51.09412       44.53438    14.0256  31.38087   34.5    0.26562  -20.48331  0.99999 
   -5.62911  0.00417  0.87904     14.42059  1.68882  1.13378   8.39313  0.05967     0.20245  5583.24701   9747.92549  0.16988         2000.09357     18.88376  0.00425  58729.60917  1.56072  0.03498   17467.74193  48.36618   19.1465  58775.29611    51.11127       44.56106   12.98584  32.02172   28.5    0.28761  -20.65933  0.99993 
   -6.12503  0.00869  0.71237     14.41688  1.70127  1.50361   7.64998  0.07597     0.01243  5841.75333    5887.6437  0.03681         4373.98288     16.64855    2e-05  58729.11325  1.55731  0.06651   11755.35459  48.72397  19.08745  58775.29611    51.07611       44.50056   12.98584  33.92653   32.5    0.26157  -20.69609  0.99995 
   -5.86098  0.00913  1.78365     14.40093  1.64203  0.90046   3.68484    0.148     0.01167  5757.98846   5834.97054  0.18446         3945.19665     16.39921    1e-05  58729.37731  0.72877  0.03364   76550.58212  47.09766  19.10451  58775.29611    51.04721       44.48569   15.12062  31.79175   33.5    0.29431  -20.68267  0.99943 
   -5.77374  0.01436  0.80235     14.53455  1.77464  1.05214   9.84353  0.07687      0.0836  6527.77447   7597.42045  0.05198         4427.22022     18.42003  0.00146  58729.46454  2.50212  0.14131    9048.17403  48.75266  19.10977  58775.29611    51.08815       44.53785   12.98584    32.311   32.0    0.25955  -20.68918  0.99986 
   -4.60928   0.0091  1.15282      14.5671  1.54224  0.59236  12.63465  0.04133     0.19852   5607.0561   9874.21851  0.41253         2449.70429      18.4871  0.00171    58730.629  2.36952  0.11492   13972.93537  48.18819  19.15429  58775.29611    51.14506       44.59095   12.39075  31.14251   30.0    0.25154  -20.64696  0.99932 
   -4.21979  0.01127  1.14098     14.42153  1.73195  1.48071   3.33155    0.162     0.02069  5505.03121    4137.4691  0.35651          3977.6102     18.19174  0.00086   58731.0185  0.60227  0.03755   30050.47239  47.91498  19.12893  58775.29611    51.02399       44.45642   16.49798  32.08142   34.0    0.28501  -20.67282  0.99985 
   -5.63229  0.00648  0.86713     14.44022  1.69358  1.19765   4.68424  0.13713      0.1161  6190.43398   3478.80326  0.05155         3518.52915     16.91131    5e-05    58729.606   1.0708  0.03035   15572.01467  48.42913  19.11613  58775.20619    51.18333       44.65211   12.39075  29.64678   33.5    0.26387  -20.73168  0.99995 
   -6.37231  0.00268  1.69353     14.35672   1.7975  1.47873   4.48069  0.11758     0.01084  5795.12656   4188.68289  0.09632         3131.53196     17.94288  0.00049  58728.86597  0.89763  0.01202   92604.28914   47.0993  19.12741  58775.29611     51.0352       44.46841   15.12062  32.02172   33.5    0.28195  -20.65748  0.99984 
   -5.37683  0.00114   0.8556      14.3889   1.5463  1.10974   5.89259  0.10515     0.43187  6162.05045    5162.6689  0.04111         3006.47623     18.81286  0.00361  58729.86145   1.3347  0.00673   17532.77307  48.34975  19.13703  58775.29611    51.14007       44.57751   12.98584  30.70583   34.5    0.27942  -20.65501  0.99999 
    -4.9029   0.0103  0.90966     14.43966  1.86944  1.45264   9.92214  0.04819     0.06001  5274.11895   8966.64084  0.23117         3061.99217     19.38232   0.0134  58730.33538  1.64639  0.10216   18965.15995  48.34484  19.13518  58774.52237    51.22705       44.69315   12.98584  29.05169   32.5    0.27419  -20.61141  0.99982 
   -6.26738  0.01148  0.84925     14.40959  1.69402  1.15623   18.3824  0.02483      0.4535  4973.24897    9535.9734  0.16002         3997.24792     18.31427  0.00115   58728.9709  2.71213   0.2111   17204.16289  48.40406  19.12663  58774.52237    51.13932       44.57963   12.98584  30.54743   32.0    0.26611  -20.57293  0.99963 
   -5.89215  0.00366   0.7796     14.33957  1.59017    1.515   4.89772  0.11531      0.0103  5698.89993   7609.75516  0.05986         3086.46761     17.26035   0.0001  58729.34613  0.94886   0.0179    18787.6653  48.41267  19.08129  58775.20619    51.13757       44.60883   14.02653  29.66513   31.5    0.27999  -20.63228  0.99997 
   -5.63809   0.0013   0.8141     14.49643   1.8928  1.17473  17.34479  0.03153     0.10599  5796.91956   7848.63664  0.05572         4766.76224     19.49957  0.01755  58729.60019  3.47689  0.02249   11841.80989  48.65118  19.12407  58775.29611    51.10387       44.52361   15.12062  32.02172   31.5    0.28033  -20.74003  0.99998 
   -5.84635  0.00609  0.77835     14.40293  1.71937  1.48835   5.87027    0.092     0.06608  5728.79117   9701.93598  0.03329          2653.9998     17.39854  0.00014  58729.39193  1.14924  0.03575   15124.33209  48.54219  19.11012  58775.20619    50.90958       44.31422   19.02548  31.97231   28.5    0.29146  -20.61799  0.99996 
   -7.22478  0.00139  1.52537     14.62195  2.03639  0.71408    4.6392  0.11261     0.01246  5620.54275   4768.76676  0.00693         2368.47203     16.74865    3e-05   58728.0135  0.87423  0.00647   25091.09437  47.81144  19.11345  58775.29611    51.13967       44.59633   11.56689  31.96637   35.0    0.27082  -20.57701  0.99995 
   -5.81272  0.00779  0.70324      14.6687   1.8805  0.74423   17.2433  0.03868     0.38308  6304.88478   4920.24133  0.03106         2089.72934     17.54264  0.00019  58729.42556  4.08886  0.13425     3970.8966  49.25002  19.12623  58775.29611    51.14049       44.58391   12.39075  31.30091   33.0    0.29249  -20.66071  0.99993 
   -5.75427  0.00146  0.84569       14.322  1.40994  0.98399   23.1393  0.02276      0.1143  5561.64961    6141.8389  0.13827         3046.83038      19.5196  0.01838  58729.48401  4.26957  0.03368   21254.40525  48.23617  19.13251  58775.29611    51.13492       44.57285   12.39075  31.30091   35.5     0.2757  -20.66754   0.9999 
   -6.06017  0.00606  1.14446     14.48053  1.91421  1.28442   4.19572  0.14411     0.01111  5710.82029   3723.07183  0.12958         4100.94893     18.06274  0.00064  58729.17811  0.81626  0.02542   25465.34812  48.02769  19.12063  58774.52237    51.02246       44.44126   15.12062  32.02172   32.0    0.26499  -20.70506  0.99991 
   -5.92354  0.00593  1.08398      14.3778   1.7764   1.5549   7.12155  0.07082     0.01088   5742.8288   9756.84073  0.04313         2421.88748     19.83002  0.03756  58729.31474  1.40105  0.04226   34025.16306  47.91655  19.09346  58775.29611    51.07821       44.51398   12.37899  32.88678   28.5    0.29615  -20.65867  0.99984 
   -5.30179  0.03038  1.65834     14.55581   2.0314  0.91257   15.6066  0.02822     0.04681  5440.45386   7268.42755  0.17384         3282.47402     16.62419    2e-05  58729.93649  2.75553  0.47417   40117.07338  47.53397  19.14615  58774.52237    51.17396        44.6351   12.39075  29.64678   40.0    0.27604  -20.63269  0.99543 
   -5.93749  0.00415  0.84327     14.47034  1.57118  0.83242  17.02224  0.03344     0.07091   6000.8847   3680.66551    0.017         2725.36493     19.00762  0.00565  58729.30079  3.65658  0.07057   11893.02242  48.53784  19.14391  58775.20619    51.12404       44.55061    14.6908  32.02172   34.5    0.28313  -20.63951  0.99986 
   -7.48692  0.02105   2.4067     14.14701  1.45795  1.33273   2.96176  0.17867     0.01611    6198.044   4437.85977  0.07121         2126.98461     19.30008  0.01109  58727.75136  0.67871  0.06234   398450.3725  46.06937   19.1321  58775.20619    51.11936       44.57088   12.39075  31.30091   35.0    0.29097  -20.68614  0.99755 
   -6.20787  0.00359  0.82927     14.52203  2.04001   1.4963   5.46935    0.104     0.01054  5429.82529   9663.07422  0.08483         5353.86964     17.94387  0.00049  58729.03042  0.96191  0.01962    11770.2729   48.6703  19.10157  58774.52237    51.10296       44.53227   13.47401  30.28585   28.5    0.28129  -20.63367  0.99998 
    -6.5454   0.0057  0.74432     14.46294  1.75919  0.91014  12.31943  0.03788       0.267  5592.77163   6268.32551  0.01055         2734.09044     20.15303  0.07902  58728.69289  2.29865  0.07024   10734.06576  48.73988  19.10076  58774.52237    51.09369        44.5467   12.39075  31.30091   36.5    0.28097  -20.64794  0.99992 
   -5.12818  0.01099  0.71673     14.15154  1.20541  1.47168   5.70103  0.09252     0.07297   5872.9952   4746.20296  0.24979         2162.11849     19.91812  0.04601   58730.1101  1.17301  0.06265   28613.11472  48.18271  19.14382  58774.52237     51.1362       44.58606    14.0256  29.66607   35.0    0.27475  -20.73538  0.99985 
   -5.02394  0.00169  0.87853     14.44139  1.81353  1.43275   5.43867  0.09375     0.01134  5591.94197   9436.81167  0.17331         3200.01266     18.15793   0.0008  58730.21435  1.01448  0.00919   17024.28649  48.40879  19.12859  58774.52237    51.23216       44.71531   11.56689  29.17111   29.5    0.31416  -20.76877  0.99999 
   -5.82723  0.00338  0.82778     14.40369  1.85345  1.55779    7.3966  0.05763      0.1219  5263.11677   9243.44145  0.02531         2516.24756     18.54284  0.00194  58729.41105  1.22221  0.02501   18375.91143  48.43675  19.12414  58775.29611    51.11525       44.56004    14.0256  30.98197   31.0    0.30266  -20.60959  0.99997 
   -5.69178  0.00988  0.83216     14.54746  1.75145  0.81505   5.34199   0.0974     0.31961  5788.31656   7892.38209  0.08044         2909.30099     18.52432  0.00186   58729.5465  1.06766  0.05279    9051.34218  48.71512  19.13541  58775.20619    51.10302       44.53976   12.98584  32.02172   32.5    0.26824  -20.68613  0.99993 
   -4.38848  0.00359  1.00796     14.39978  1.57118  1.02632   4.53762   0.1348     0.01065   5649.2797   9623.10125  0.45254         2647.88678     19.44934  0.01563   58730.8498  0.86386   0.0163   23515.99278  48.08682  19.11804  58775.29611    51.09168       44.53511   12.98584  32.02172   29.5    0.25755  -20.65133  0.99994 
    -6.8194  0.00746  0.79777     14.32678  1.56324  1.32514    8.2768  0.06258     0.04346  5408.84006    4752.4125   0.0137          2034.6482     17.25069   0.0001  58728.41889  1.44443  0.06178   20513.87066  48.34707  19.11958  58775.29611    51.07828       44.52439   14.02653  31.37994   37.0    0.26225  -20.50519  0.99989 
   -6.59763  0.00254  0.97917     14.44754  1.72938  0.90729   5.93639  0.07637     0.01706  5322.43426   7890.99174  0.00736         3585.20346     18.09414  0.00069  58728.64065  1.00316  0.01505   19603.97478  48.23267  19.13403  58775.20619    51.09953       44.53028    14.0256   31.2699   35.0    0.26682  -20.57247  0.99995 
   -6.23835  0.00616  1.87121     14.24387  1.60643  1.49888   3.77531  0.13072     0.01107  5729.11123   9172.42751  0.12806         2849.11151     18.12541  0.00074  58728.99993  0.73919  0.02325   169898.6344  46.70027  19.09899  58775.29611    51.06967       44.51953   12.98584  32.42063   29.5    0.29317  -20.67278  0.99954 
   -5.00729  0.00103  0.90673     14.38234  1.42856  0.84791  10.29707   0.0455      0.0218  5193.13962   6467.45236  0.29027         3444.13059     19.63376  0.02391  58730.23099  1.65654  0.01061    18749.3175   48.2358  19.14946  58775.20619    51.10796       44.55409   12.98584  30.70583   36.0     0.2874  -20.69893  0.99996 
   -7.16599  0.01677  0.99057       14.159  1.27221  1.45188  14.12333  0.03575     0.30591  5344.55755    4590.6084  0.09195         3121.11695      16.1159    1e-05  58728.07229  2.40651  0.23687   55736.62902  47.63549  19.10442  58774.52237    51.02608       44.44573    14.0256  33.11675   40.0    0.25731  -20.51727  0.99854 
   -5.65027  0.00141   1.2304      14.5919  1.89221  0.71969  11.35551  0.04023     0.24307  5633.77628   7398.99287  0.05495         3423.12063     19.05355  0.00628  58729.58801  2.14997    0.016   17421.38523  48.12464  19.11249  58775.29611    51.04319       44.48814   16.49717   30.4152   35.0    0.28794  -20.67604  0.99992 
   -6.17482  0.00966  0.89835     14.55248  1.76704  0.78598  12.45278  0.04334      0.0102  5651.06931   9809.82383  0.00868          3569.3723     18.08567  0.00068  58729.06346  2.37222  0.12029    10398.9034  48.59222  19.11041  58777.11357    51.05997       44.49827   14.02653  32.88584   29.0    0.26806   -20.6519  0.99977 
   -7.10317  0.00821  1.24516     14.23241  1.40951  1.26187   4.48541  0.13262     0.01098   5917.7347   7063.06249  0.00354         2726.44835     16.62639    2e-05  58728.13511    0.937   0.0368   69584.81661  47.38495  19.14341  58775.29611    51.09899       44.53433   14.00621  31.37994   32.5    0.27755  -20.60214  0.99965 
   -5.96297  0.00387  0.74318     14.31348  1.44131  1.15682    5.9408  0.08421     0.01035  5119.36136   9243.26076  0.16563         3963.08686     16.80781    4e-05  58729.27531  0.92876  0.02297   17449.86316  48.44363  19.10558  58775.20619    51.13395       44.57977   12.98584  30.70583   31.0    0.27013  -20.56174  0.99996 
   -6.23831  0.00151  0.74925     14.42717   1.6946  1.11049  15.28046   0.0343     0.02574  5266.51429   7936.29489   0.1158         3335.50527     17.31577  0.00011  58728.99997  2.52819  0.02304   12353.55667  48.65687  19.13694  58775.29611    51.14095       44.58076   12.39075  32.61681   34.0    0.25751  -20.60345  0.99997 
