# Wavelength Flux
# STATUS = PUBLIC
# OBJECT = 2019gam
# TELESCOPE = P200
# INSTRUMENT =
# DATE-OBS = 2019.0704
# MJD =
# EXPTIME =
# SLIT =
# DISPERSER =
# SOURCE = 2023ApJ...943...41C
# FILTER =
# FLUX_STANDARD =
# EXTINCTION_CORRECTED = False
# PHOTOMETRY_CALIBRATED =
# FLUX_UNITS = erg/s/cm^2/Angstroms
# QUALITY =
# MIN_WAVE =
# MAX_WAVE =
# COMMENT =
3400.0 8.3216e-17
3401.525 8.5342e-17
3403.05 5.2578e-17
3404.575 6.0709e-17
3406.1 7.2497e-17
3407.625 6.8085e-17
3409.15 5.9206e-17
3410.675 1.9506e-17
3412.2 7.4312e-18
3413.725 4.7959e-18
3415.25 1.562e-17
3416.775 1.0102e-16
3418.3 5.5525e-17
3419.825 8.3804e-17
3421.35 1.951e-17
3422.875 2.5825e-17
3424.4 -7.2928e-19
3425.925 3.7572e-17
3427.45 4.186e-17
3428.975 -5.8898e-18
3430.5 1.5038e-17
3432.025 7.8e-17
3433.55 4.5545e-18
3435.075 2.9659e-17
3436.6 -2.8635e-18
3438.125 1.7696e-18
3439.65 2.2679e-17
3441.175 5.4675e-17
3442.7 7.8671e-17
3444.225 2.5973e-17
3445.75 2.3411e-17
3447.275 2.7362e-17
3448.8 5.1606e-17
3450.325 3.202e-17
3451.85 5.8025e-17
3453.375 6.4725e-17
3454.9 5.3371e-17
3456.425 4.0651e-17
3457.95 3.5465e-17
3459.475 1.3181e-17
3461.0 3.731e-17
3462.525 5.6124e-17
3464.05 6.5204e-17
3465.575 7.1517e-17
3467.1 8.0416e-17
3468.625 4.9262e-17
3470.15 5.991e-17
3471.675 9.0304e-17
3473.2 5.6693e-17
3474.725 3.0543e-17
3476.25 4.0951e-17
3477.775 3.074e-17
3479.3 8.6059e-18
3480.825 3.6494e-17
3482.35 5.6644e-17
3483.875 1.1441e-17
3485.4 6.0329e-18
3486.925 5.3919e-17
3488.45 2.5389e-17
3489.975 1.7022e-17
3491.5 3.2351e-17
3493.025 6.3125e-17
3494.55 7.8893e-17
3496.075 2.4584e-17
3497.6 -4.6149e-18
3499.125 8.6021e-17
3500.65 1.0326e-16
3502.175 5.5897e-17
3503.7 4.026e-17
3505.225 4.3885e-17
3506.75 2e-17
3508.275 2.4359e-17
3509.8 1.1723e-17
3511.325 4.7279e-17
3512.85 -1.3106e-18
3514.375 9.9075e-18
3515.9 6.566e-17
3517.425 4.0994e-17
3518.95 3.0472e-17
3520.475 8.7105e-17
3522.0 5.5927e-17
3523.525 5.1657e-17
3525.05 4.6124e-17
3526.575 4.666e-17
3528.1 4.6174e-17
3529.625 2.5923e-17
3531.15 3.2259e-17
3532.675 5.7836e-17
3534.2 3.4373e-17
3535.725 4.4876e-17
3537.25 3.9055e-17
3538.775 9.2461e-17
3540.3 9.9125e-17
3541.825 4.8262e-17
3543.35 5.7475e-17
3544.875 4.5114e-17
3546.4 4.823e-17
3547.925 1.8862e-17
3549.45 6.6008e-19
3550.975 4.6544e-17
3552.5 5.84e-17
3554.025 6.2066e-17
3555.55 3.0841e-17
3557.075 1.6645e-17
3558.6 1.4059e-17
3560.125 3.2881e-17
3561.65 5.7448e-18
3563.175 -1.0717e-18
3564.7 6.5251e-17
3566.225 3.2989e-17
3567.75 2.9424e-17
3569.275 3.7819e-17
3570.8 4.2998e-17
3572.325 5.2315e-17
3573.85 6.2829e-17
3575.375 6.4389e-17
3576.9 2.2302e-17
3578.425 1.4928e-17
3579.95 4.8933e-17
3581.475 4.7738e-17
3583.0 3.7518e-17
3584.525 3.1121e-17
3586.05 4.0737e-17
3587.575 5.3369e-17
3589.1 5.1912e-17
3590.625 1.1201e-17
3592.15 3.3573e-17
3593.675 5.6107e-17
3595.2 1.8688e-17
3596.725 7.9981e-17
3598.25 7.7137e-17
3599.775 3.8954e-17
3601.3 5.2539e-17
3602.825 3.8257e-17
3604.35 1.1615e-17
3605.875 1.1231e-17
3607.4 4.2498e-17
3608.925 2.2922e-17
3610.45 2.7742e-17
3611.975 5.3685e-17
3613.5 5.1959e-17
3615.025 1.3048e-17
3616.55 2.3241e-17
3618.075 3.8827e-17
3619.6 3.7525e-17
3621.125 3.9287e-17
3622.65 3.4603e-17
3624.175 3.2356e-17
3625.7 3.7093e-17
3627.225 3.162e-17
3628.75 4.486e-17
3630.275 5.7737e-17
3631.8 4.9729e-17
3633.325 3.4891e-17
3634.85 2.6988e-17
3636.375 7.1629e-17
3637.9 4.409e-17
3639.425 2.5088e-17
3640.95 6.031e-17
3642.475 8.2007e-17
3644.0 6.6718e-17
3645.525 3.934e-17
3647.05 3.6095e-17
3648.575 3.4307e-17
3650.1 2.9793e-17
3651.625 4.6976e-17
3653.15 5.9457e-17
3654.675 4.9243e-17
3656.2 1.7564e-17
3657.725 2.8763e-17
3659.25 1.9046e-17
3660.775 1.7466e-17
3662.3 2.677e-17
3663.825 6.2039e-17
3665.35 6.7941e-17
3666.875 2.0502e-17
3668.4 5.3449e-17
3669.925 4.4774e-17
3671.45 3.6589e-17
3672.975 4.4773e-17
3674.5 4.2498e-17
3676.025 4.8982e-17
3677.55 3.4208e-17
3679.075 3.876e-17
3680.6 5.0979e-17
3682.125 4.8236e-17
3683.65 4.283e-17
3685.175 4.331e-17
3686.7 3.7639e-17
3688.225 5.1495e-17
3689.75 4.9607e-17
3691.275 5.9989e-17
3692.8 1.384e-17
3694.325 3.5502e-17
3695.85 4.6189e-17
3697.375 5.7003e-17
3698.9 5.5309e-17
3700.425 2.0958e-17
3701.95 5.1897e-17
3703.475 8.6003e-17
3705.0 6.013e-17
3706.525 4.7879e-17
3708.05 5.9167e-17
3709.575 2.4238e-17
3711.1 3.7538e-17
3712.625 6.1712e-17
3714.15 5.2649e-17
3715.675 4.7236e-17
3717.2 4.0222e-17
3718.725 2.9878e-17
3720.25 2.4156e-17
3721.775 2.0948e-17
3723.3 1.4185e-18
3724.825 3.5446e-17
3726.35 2.3373e-17
3727.875 1.3296e-17
3729.4 5.668e-17
3730.925 4.106e-17
3732.45 2.3723e-17
3733.975 6.3896e-17
3735.5 5.5217e-17
3737.025 3.2191e-17
3738.55 2.2632e-17
3740.075 1.514e-17
3741.6 4.2928e-17
3743.125 6.711e-17
3744.65 3.8636e-17
3746.175 3.5894e-17
3747.7 3.6851e-17
3749.225 2.3978e-17
3750.75 3.8193e-17
3752.275 3.7894e-17
3753.8 6.2797e-17
3755.325 4.0375e-17
3756.85 3.2098e-17
3758.375 2.6675e-17
3759.9 6.4764e-17
3761.425 6.4527e-17
3762.95 5.5851e-17
3764.475 5.0233e-17
3766.0 4.3995e-17
3767.525 4.3834e-17
3769.05 4.275e-17
3770.575 5.2868e-17
3772.1 4.7685e-17
3773.625 3.3185e-17
3775.15 3.7611e-17
3776.675 5.1782e-17
3778.2 5.2881e-17
3779.725 4.1706e-17
3781.25 4.762e-17
3782.775 6.2545e-17
3784.3 5.0256e-17
3785.825 5.1746e-17
3787.35 3.6113e-17
3788.875 2.4096e-17
3790.4 4.3041e-17
3791.925 3.623e-17
3793.45 2.8555e-17
3794.975 5.1049e-17
3796.5 3.3397e-17
3798.025 3.7531e-17
3799.55 3.0501e-17
3801.075 3.8892e-17
3802.6 4.243e-17
3804.125 4.7068e-17
3805.65 4.1053e-17
3807.175 5.4075e-17
3808.7 6.2048e-17
3810.225 4.0642e-17
3811.75 3.722e-17
3813.275 6.271e-17
3814.8 4.4933e-17
3816.325 3.5287e-17
3817.85 5.2873e-17
3819.375 4.346e-17
3820.9 2.8744e-17
3822.425 2.8671e-17
3823.95 2.8005e-17
3825.475 2.8448e-17
3827.0 3.689e-17
3828.525 3.4265e-17
3830.05 4.1728e-17
3831.575 2.6056e-17
3833.1 4.4484e-17
3834.625 4.8535e-17
3836.15 3.5648e-17
3837.675 2.7101e-17
3839.2 2.6255e-17
3840.725 3.0656e-17
3842.25 4.1978e-17
3843.775 3.7355e-17
3845.3 1.7894e-17
3846.825 3.1989e-17
3848.35 6.3204e-17
3849.875 3.2444e-17
3851.4 5.1654e-17
3852.925 5.6559e-17
3854.45 4.8762e-17
3855.975 3.8386e-17
3857.5 3.5437e-17
3859.025 3.7141e-17
3860.55 3.4577e-17
3862.075 4.4368e-17
3863.6 3.9809e-17
3865.125 3.7283e-17
3866.65 6.6484e-17
3868.175 3.6988e-17
3869.7 2.3429e-17
3871.225 5.5278e-17
3872.75 3.026e-17
3874.275 2.955e-17
3875.8 3.9341e-17
3877.325 4.5102e-17
3878.85 4.5708e-17
3880.375 5.2633e-17
3881.9 6.0601e-17
3883.425 6.2666e-17
3884.95 3.9143e-17
3886.475 6.6578e-17
3888.0 6.967e-17
3889.525 4.2863e-17
3891.05 4.8317e-17
3892.575 5.1359e-17
3894.1 4.2736e-17
3895.625 7.1847e-17
3897.15 9.1041e-17
3898.675 6.537e-17
3900.2 5.8172e-17
3901.725 8.5322e-17
3903.25 6.9087e-17
3904.775 6.7049e-17
3906.3 6.2059e-17
3907.825 9.1169e-17
3909.35 8.0852e-17
3910.875 5.2361e-17
3912.4 5.8501e-17
3913.925 8.6456e-17
3915.45 8.151e-17
3916.975 5.4024e-17
3918.5 4.7395e-17
3920.025 6.6418e-17
3921.55 6.3554e-17
3923.075 5.8004e-17
3924.6 7.4619e-17
3926.125 6.2474e-17
3927.65 7.8666e-17
3929.175 8.2363e-17
3930.7 7.5605e-17
3932.225 7.7373e-17
3933.75 7.3982e-17
3935.275 6.709e-17
3936.8 6.1718e-17
3938.325 5.6853e-17
3939.85 6.8051e-17
3941.375 6.1386e-17
3942.9 5.3632e-17
3944.425 6.5106e-17
3945.95 6.9209e-17
3947.475 7.4765e-17
3949.0 7.9958e-17
3950.525 7.5317e-17
3952.05 6.8905e-17
3953.575 6.8342e-17
3955.1 5.643e-17
3956.625 7.1214e-17
3958.15 6.5285e-17
3959.675 5.3386e-17
3961.2 7.2985e-17
3962.725 7.1322e-17
3964.25 7.6976e-17
3965.775 7.3575e-17
3967.3 6.1617e-17
3968.825 6.2243e-17
3970.35 5.6499e-17
3971.875 6.1202e-17
3973.4 7.5084e-17
3974.925 6.1808e-17
3976.45 7.9226e-17
3977.975 6.8653e-17
3979.5 7.3042e-17
3981.025 6.6313e-17
3982.55 4.955e-17
3984.075 6.3871e-17
3985.6 7.2967e-17
3987.125 8.3289e-17
3988.65 8.1104e-17
3990.175 7.277e-17
3991.7 5.8225e-17
3993.225 4.9024e-17
3994.75 5.1306e-17
3996.275 5.7809e-17
3997.8 4.2075e-17
3999.325 8.3129e-17
4000.85 8.5139e-17
4002.375 7.3815e-17
4003.9 6.2916e-17
4005.425 7.6804e-17
4006.95 6.9169e-17
4008.475 7.5112e-17
4010.0 9.1331e-17
4011.525 7.8568e-17
4013.05 7.4964e-17
4014.575 5.8648e-17
4016.1 8.4734e-17
4017.625 6.7137e-17
4019.15 7.431e-17
4020.675 8.1914e-17
4022.2 7.2177e-17
4023.725 7.4715e-17
4025.25 7.836e-17
4026.775 9.0072e-17
4028.3 9.2095e-17
4029.825 6.5055e-17
4031.35 8.4672e-17
4032.875 1.0802e-16
4034.4 8.8066e-17
4035.925 7.8581e-17
4037.45 6.8119e-17
4038.975 7.9946e-17
4040.5 9.8117e-17
4042.025 8.3544e-17
4043.55 6.758e-17
4045.075 6.1932e-17
4046.6 1.0261e-16
4048.125 1.1327e-16
4049.65 1.0248e-16
4051.175 8.4834e-17
4052.7 1.0596e-16
4054.225 8.7305e-17
4055.75 8.0609e-17
4057.275 8.0079e-17
4058.8 9.4261e-17
4060.325 1.1835e-16
4061.85 9.0758e-17
4063.375 9.7654e-17
4064.9 9.8347e-17
4066.425 8.2001e-17
4067.95 9.3477e-17
4069.475 1.1979e-16
4071.0 9.2446e-17
4072.525 1.0363e-16
4074.05 1.0487e-16
4075.575 9.1684e-17
4077.1 7.5834e-17
4078.625 1.0392e-16
4080.15 1.2106e-16
4081.675 1.1633e-16
4083.2 7.0983e-17
4084.725 9.0464e-17
4086.25 1.1204e-16
4087.775 1.0093e-16
4089.3 9.8982e-17
4090.825 9.1736e-17
4092.35 8.7212e-17
4093.875 9.4572e-17
4095.4 9.1546e-17
4096.925 6.88e-17
4098.45 7.6153e-17
4099.975 8.8764e-17
4101.5 7.3429e-17
4103.025 7.3026e-17
4104.55 7.3527e-17
4106.075 9.346e-17
4107.6 1.0591e-16
4109.125 8.6435e-17
4110.65 7.5901e-17
4112.175 8.3675e-17
4113.7 8.9739e-17
4115.225 1.0272e-16
4116.75 1.026e-16
4118.275 8.0057e-17
4119.8 6.8121e-17
4121.325 7.8741e-17
4122.85 8.7024e-17
4124.375 8.7599e-17
4125.9 9.3152e-17
4127.425 8.7188e-17
4128.95 8.6981e-17
4130.475 9.0867e-17
4132.0 7.7958e-17
4133.525 8.6145e-17
4135.05 1.082e-16
4136.575 7.2266e-17
4138.1 6.2949e-17
4139.625 8.0777e-17
4141.15 9.4764e-17
4142.675 9.5709e-17
4144.2 9.1543e-17
4145.725 9.0957e-17
4147.25 7.4018e-17
4148.775 7.4913e-17
4150.3 8.4991e-17
4151.825 7.4335e-17
4153.35 7.5458e-17
4154.875 6.7792e-17
4156.4 6.4202e-17
4157.925 7.9355e-17
4159.45 5.0361e-17
4160.975 7.0164e-17
4162.5 9.4131e-17
4164.025 7.7221e-17
4165.55 7.116e-17
4167.075 8.9976e-17
4168.6 6.5513e-17
4170.125 6.744e-17
4171.65 7.0557e-17
4173.175 7.2169e-17
4174.7 8.4563e-17
4176.225 7.6051e-17
4177.75 8.1214e-17
4179.275 8.4318e-17
4180.8 6.1552e-17
4182.325 6.1132e-17
4183.85 6.7295e-17
4185.375 6.3278e-17
4186.9 6.8165e-17
4188.425 8.0459e-17
4189.95 6.604e-17
4191.475 8.3257e-17
4193.0 8.7818e-17
4194.525 8.445e-17
4196.05 5.4778e-17
4197.575 5.0492e-17
4199.1 6.6514e-17
4200.625 5.214e-17
4202.15 5.3078e-17
4203.675 6.1428e-17
4205.2 9.0272e-17
4206.725 6.9731e-17
4208.25 5.3179e-17
4209.775 5.924e-17
4211.3 8.398e-17
4212.825 1.0647e-16
4214.35 8.7754e-17
4215.875 7.2367e-17
4217.4 8.7673e-17
4218.925 6.7952e-17
4220.45 6.637e-17
4221.975 8.5959e-17
4223.5 8.6359e-17
4225.025 9.4672e-17
4226.55 6.1653e-17
4228.075 5.4857e-17
4229.6 9.2503e-17
4231.125 8.2146e-17
4232.65 6.5852e-17
4234.175 7.1809e-17
4235.7 8.9906e-17
4237.225 8.4227e-17
4238.75 7.496e-17
4240.275 8.0263e-17
4241.8 8.8475e-17
4243.325 9.4496e-17
4244.85 9.6568e-17
4246.375 9.6025e-17
4247.9 1.1377e-16
4249.425 7.602e-17
4250.95 6.4992e-17
4252.475 7.1877e-17
4254.0 8.0826e-17
4255.525 1.065e-16
4257.05 1.073e-16
4258.575 1.1361e-16
4260.1 1.0497e-16
4261.625 8.9031e-17
4263.15 9.259e-17
4264.675 1.0593e-16
4266.2 1.0194e-16
4267.725 8.8788e-17
4269.25 7.3377e-17
4270.775 7.2763e-17
4272.3 6.2105e-17
4273.825 7.9897e-17
4275.35 1.0678e-16
4276.875 9.4849e-17
4278.4 1.1576e-16
4279.925 1.2576e-16
4281.45 1.2096e-16
4282.975 9.3832e-17
4284.5 8.8507e-17
4286.025 9.5663e-17
4287.55 8.6171e-17
4289.075 9.1911e-17
4290.6 9.2189e-17
4292.125 9.7548e-17
4293.65 1.0879e-16
4295.175 9.8422e-17
4296.7 1.0313e-16
4298.225 9.9241e-17
4299.75 9.0973e-17
4301.275 8.1889e-17
4302.8 1.0133e-16
4304.325 9.9947e-17
4305.85 8.7757e-17
4307.375 8.0136e-17
4308.9 8.1999e-17
4310.425 8.5264e-17
4311.95 9.9175e-17
4313.475 9.7471e-17
4315.0 7.3759e-17
4316.525 8.5937e-17
4318.05 1.0922e-16
4319.575 1.1545e-16
4321.1 1.2262e-16
4322.625 9.8879e-17
4324.15 1.008e-16
4325.675 1.018e-16
4327.2 9.0345e-17
4328.725 1.026e-16
4330.25 1.0521e-16
4331.775 8.9059e-17
4333.3 1.0399e-16
4334.825 1.0577e-16
4336.35 8.8277e-17
4337.875 8.8025e-17
4339.4 8.3248e-17
4340.925 9.2261e-17
4342.45 8.061e-17
4343.975 8.1647e-17
4345.5 9.6429e-17
4347.025 9.3784e-17
4348.55 1.0462e-16
4350.075 9.6801e-17
4351.6 9.7e-17
4353.125 8.4981e-17
4354.65 9.0661e-17
4356.175 8.691e-17
4357.7 1.2447e-16
4359.225 1.5077e-16
4360.75 1.2368e-16
4362.275 9.5565e-17
4363.8 8.8648e-17
4365.325 1.0327e-16
4366.85 8.7898e-17
4368.375 1.0013e-16
4369.9 1.0364e-16
4371.425 1.0776e-16
4372.95 1.2293e-16
4374.475 1.1669e-16
4376.0 9.6262e-17
4377.525 8.9719e-17
4379.05 9.92e-17
4380.575 1.201e-16
4382.1 8.8505e-17
4383.625 9.4547e-17
4385.15 1.2384e-16
4386.675 1.1443e-16
4388.2 9.6253e-17
4389.725 8.5009e-17
4391.25 7.0627e-17
4392.775 1.0244e-16
4394.3 1.2086e-16
4395.825 9.554e-17
4397.35 8.9025e-17
4398.875 8.8625e-17
4400.4 7.6713e-17
4401.925 1.0097e-16
4403.45 1.0111e-16
4404.975 7.1856e-17
4406.5 9.922e-17
4408.025 9.9555e-17
4409.55 8.979e-17
4411.075 9.8064e-17
4412.6 9.6506e-17
4414.125 1.0378e-16
4415.65 1.0742e-16
4417.175 1.0077e-16
4418.7 1.0884e-16
4420.225 1.0017e-16
4421.75 8.4594e-17
4423.275 9.5168e-17
4424.8 1.1173e-16
4426.325 8.3386e-17
4427.85 8.9657e-17
4429.375 1.0494e-16
4430.9 1.0184e-16
4432.425 9.1164e-17
4433.95 9.1764e-17
4435.475 8.0839e-17
4437.0 8.0084e-17
4438.525 9.964e-17
4440.05 9.0694e-17
4441.575 9.1184e-17
4443.1 8.7452e-17
4444.625 7.1551e-17
4446.15 9.4569e-17
4447.675 8.8164e-17
4449.2 9.8071e-17
4450.725 1.2505e-16
4452.25 1.0821e-16
4453.775 9.1045e-17
4455.3 9.9761e-17
4456.825 9.5194e-17
4458.35 1.1187e-16
4459.875 1.0224e-16
4461.4 1.071e-16
4462.925 9.5021e-17
4464.45 8.8714e-17
4465.975 1.1637e-16
4467.5 1.0681e-16
4469.025 1.0348e-16
4470.55 1.0116e-16
4472.075 8.1411e-17
4473.6 7.7416e-17
4475.125 9.2706e-17
4476.65 1.0486e-16
4478.175 1.009e-16
4479.7 8.3693e-17
4481.225 8.5481e-17
4482.75 1.1314e-16
4484.275 9.6195e-17
4485.8 1.2209e-16
4487.325 1.1274e-16
4488.85 9.8663e-17
4490.375 9.7957e-17
4491.9 8.3499e-17
4493.425 8.8294e-17
4494.95 9.1279e-17
4496.475 8.6009e-17
4498.0 1.017e-16
4499.525 9.5597e-17
4501.05 7.0735e-17
4502.575 9.6311e-17
4504.1 9.6134e-17
4505.625 8.3878e-17
4507.15 8.5064e-17
4508.675 1.1022e-16
4510.2 1.2091e-16
4511.725 1.0797e-16
4513.25 9.2356e-17
4514.775 1.0158e-16
4516.3 1.0112e-16
4517.825 1.1177e-16
4519.35 1.1698e-16
4520.875 1.0795e-16
4522.4 8.7209e-17
4523.925 1.0774e-16
4525.45 1.1568e-16
4526.975 9.4816e-17
4528.5 8.9049e-17
4530.025 9.4362e-17
4531.55 8.8018e-17
4533.075 1.0319e-16
4534.6 9.7134e-17
4536.125 8.6861e-17
4537.65 1.0371e-16
4539.175 1.1023e-16
4540.7 1.0018e-16
4542.225 9.2192e-17
4543.75 1.0415e-16
4545.275 1.0368e-16
4546.8 9.5149e-17
4548.325 9.4399e-17
4549.85 1.0532e-16
4551.375 8.5561e-17
4552.9 8.533e-17
4554.425 9.5422e-17
4555.95 7.9026e-17
4557.475 7.5723e-17
4559.0 8.2064e-17
4560.525 9.1433e-17
4562.05 9.0599e-17
4563.575 8.1901e-17
4565.1 8.8013e-17
4566.625 8.9494e-17
4568.15 9.8642e-17
4569.675 9.2056e-17
4571.2 9.0353e-17
4572.725 8.4737e-17
4574.25 9.9185e-17
4575.775 1.2415e-16
4577.3 1.028e-16
4578.825 8.4442e-17
4580.35 8.1739e-17
4581.875 6.4321e-17
4583.4 7.8777e-17
4584.925 9.2902e-17
4586.45 9.2525e-17
4587.975 7.7611e-17
4589.5 1.0501e-16
4591.025 9.3152e-17
4592.55 8.7025e-17
4594.075 9.0615e-17
4595.6 9.8993e-17
4597.125 9.2403e-17
4598.65 8.0967e-17
4600.175 8.3744e-17
4601.7 7.5638e-17
4603.225 9.0998e-17
4604.75 1.0178e-16
4606.275 8.3244e-17
4607.8 7.8594e-17
4609.325 9.7874e-17
4610.85 9.1005e-17
4612.375 8.8525e-17
4613.9 9.2661e-17
4615.425 8.7781e-17
4616.95 7.9987e-17
4618.475 7.4933e-17
4620.0 6.5726e-17
4621.525 9.0852e-17
4623.05 8.6134e-17
4624.575 7.866e-17
4626.1 9.3475e-17
4627.625 8.2453e-17
4629.15 8.8972e-17
4630.675 9.8101e-17
4632.2 1.0273e-16
4633.725 9.8899e-17
4635.25 9.5065e-17
4636.775 9.7733e-17
4638.3 8.0769e-17
4639.825 7.8007e-17
4641.35 7.8254e-17
4642.875 7.1579e-17
4644.4 8.8518e-17
4645.925 8.6481e-17
4647.45 8.6081e-17
4648.975 8.8164e-17
4650.5 9.4954e-17
4652.025 9.4562e-17
4653.55 6.9025e-17
4655.075 7.5406e-17
4656.6 8.9139e-17
4658.125 8.2847e-17
4659.65 8.46e-17
4661.175 7.3261e-17
4662.7 8.4923e-17
4664.225 1.0322e-16
4665.75 8.7312e-17
4667.275 8.5029e-17
4668.8 8.2529e-17
4670.325 7.3417e-17
4671.85 7.7837e-17
4673.375 7.247e-17
4674.9 8.2208e-17
4676.425 9.0855e-17
4677.95 7.9508e-17
4679.475 6.8006e-17
4681.0 7.0494e-17
4682.525 9.3547e-17
4684.05 9.4473e-17
4685.575 8.9081e-17
4687.1 8.9854e-17
4688.625 9.6903e-17
4690.15 9.2167e-17
4691.675 6.1272e-17
4693.2 8.5905e-17
4694.725 9.6534e-17
4696.25 8.9844e-17
4697.775 7.7397e-17
4699.3 8.458e-17
4700.825 1.0123e-16
4702.35 9.4124e-17
4703.875 8.367e-17
4705.4 8.561e-17
4706.925 7.872e-17
4708.45 1.0098e-16
4709.975 9.8991e-17
4711.5 8.7044e-17
4713.025 9.3973e-17
4714.55 9.7e-17
4716.075 8.8513e-17
4717.6 1.0634e-16
4719.125 9.9985e-17
4720.65 1.0139e-16
4722.175 7.2092e-17
4723.7 7.1179e-17
4725.225 9.3474e-17
4726.75 1.04e-16
4728.275 9.5122e-17
4729.8 9.0202e-17
4731.325 8.5629e-17
4732.85 8.9892e-17
4734.375 7.91e-17
4735.9 7.8234e-17
4737.425 8.4523e-17
4738.95 1.0407e-16
4740.475 1.0171e-16
4742.0 9.3373e-17
4743.525 8.9006e-17
4745.05 8.6926e-17
4746.575 1.0161e-16
4748.1 1.0507e-16
4749.625 8.9372e-17
4751.15 9.92e-17
4752.675 9.4663e-17
4754.2 7.4057e-17
4755.725 7.1271e-17
4757.25 7.5906e-17
4758.775 9.577e-17
4760.3 9.1277e-17
4761.825 9.3439e-17
4763.35 9.3057e-17
4764.875 8.3195e-17
4766.4 7.154e-17
4767.925 8.2613e-17
4769.45 7.8189e-17
4770.975 6.9386e-17
4772.5 8.6729e-17
4774.025 6.8291e-17
4775.55 6.9066e-17
4777.075 7.8167e-17
4778.6 8.8467e-17
4780.125 9.2515e-17
4781.65 9.3086e-17
4783.175 6.915e-17
4784.7 7.3063e-17
4786.225 7.7249e-17
4787.75 8.8726e-17
4789.275 7.1885e-17
4790.8 7.4112e-17
4792.325 8.1328e-17
4793.85 6.3293e-17
4795.375 6.9126e-17
4796.9 7.4661e-17
4798.425 6.4994e-17
4799.95 8.4648e-17
4801.475 7.6835e-17
4803.0 6.5855e-17
4804.525 7.2701e-17
4806.05 7.4047e-17
4807.575 6.4974e-17
4809.1 7.6755e-17
4810.625 7.3089e-17
4812.15 7.1393e-17
4813.675 5.7797e-17
4815.2 6.8378e-17
4816.725 8.9043e-17
4818.25 8.7241e-17
4819.775 6.972e-17
4821.3 8.2256e-17
4822.825 7.9322e-17
4824.35 5.9278e-17
4825.875 5.9485e-17
4827.4 6.4303e-17
4828.925 6.0738e-17
4830.45 5.9781e-17
4831.975 6.2581e-17
4833.5 6.7853e-17
4835.025 6.986e-17
4836.55 6.7148e-17
4838.075 5.6605e-17
4839.6 6.2935e-17
4841.125 6.193e-17
4842.65 7.0976e-17
4844.175 6.6991e-17
4845.7 7.7005e-17
4847.225 8.3158e-17
4848.75 7.6341e-17
4850.275 7.517e-17
4851.8 8.6131e-17
4853.325 8.0812e-17
4854.85 5.7865e-17
4856.375 7.3687e-17
4857.9 8.4777e-17
4859.425 5.9603e-17
4860.95 6.9856e-17
4862.475 7.186e-17
4864.0 5.9448e-17
4865.525 6.2766e-17
4867.05 5.7698e-17
4868.575 4.8452e-17
4870.1 4.685e-17
4871.625 6.9438e-17
4873.15 6.8719e-17
4874.675 7.4762e-17
4876.2 7.8155e-17
4877.725 7.7665e-17
4879.25 7.357e-17
4880.775 7.9274e-17
4882.3 8.5599e-17
4883.825 8.0696e-17
4885.35 7.2875e-17
4886.875 5.3153e-17
4888.4 5.9677e-17
4889.925 6.6651e-17
4891.45 5.7411e-17
4892.975 6.8126e-17
4894.5 7.165e-17
4896.025 6.9832e-17
4897.55 8.0336e-17
4899.075 6.6122e-17
4900.6 7.5137e-17
4902.125 6.4848e-17
4903.65 5.3764e-17
4905.175 8.486e-17
4906.7 1.0086e-16
4908.225 8.358e-17
4909.75 7.5498e-17
4911.275 6.5738e-17
4912.8 7.4176e-17
4914.325 8.3985e-17
4915.85 7.965e-17
4917.375 7.575e-17
4918.9 8.6428e-17
4920.425 8.3636e-17
4921.95 8.7751e-17
4923.475 8.8118e-17
4925.0 7.4355e-17
4926.525 7.6591e-17
4928.05 5.9321e-17
4929.575 6.6217e-17
4931.1 8.1147e-17
4932.625 7.8254e-17
4934.15 8.6184e-17
4935.675 9.8884e-17
4937.2 7.9499e-17
4938.725 8.6139e-17
4940.25 6.7998e-17
4941.775 7.7354e-17
4943.3 9.1934e-17
4944.825 8.2622e-17
4946.35 7.9923e-17
4947.875 7.343e-17
4949.4 8.5396e-17
4950.925 8.3446e-17
4952.45 6.7525e-17
4953.975 6.9525e-17
4955.5 7.4971e-17
4957.025 6.6859e-17
4958.55 7.2862e-17
4960.075 9.3447e-17
4961.6 7.6516e-17
4963.125 8.0715e-17
4964.65 8.5081e-17
4966.175 7.3692e-17
4967.7 6.6769e-17
4969.225 7.2779e-17
4970.75 7.167e-17
4972.275 7.4534e-17
4973.8 7.2445e-17
4975.325 8.3188e-17
4976.85 7.9415e-17
4978.375 1.0714e-16
4979.9 9.2836e-17
4981.425 9.2788e-17
4982.95 8.8561e-17
4984.475 8.1634e-17
4986.0 9.117e-17
4987.525 8.7654e-17
4989.05 8.1067e-17
4990.575 8.4676e-17
4992.1 8.9701e-17
4993.625 9.0706e-17
4995.15 9.0824e-17
4996.675 8.1472e-17
4998.2 8.5904e-17
4999.725 8.5155e-17
5001.25 9.9262e-17
5002.775 9.7577e-17
5004.3 9.4785e-17
5005.825 8.5737e-17
5007.35 8.1072e-17
5008.875 8.6104e-17
5010.4 8.0665e-17
5011.925 1.018e-16
5013.45 1.14e-16
5014.975 9.6882e-17
5016.5 8.6692e-17
5018.025 1.0393e-16
5019.55 1.0709e-16
5021.075 1.1214e-16
5022.6 9.7139e-17
5024.125 9.2013e-17
5025.65 9.3136e-17
5027.175 9.9345e-17
5028.7 9.1404e-17
5030.225 7.769e-17
5031.75 9.6708e-17
5033.275 1.0537e-16
5034.8 1.0982e-16
5036.325 9.9761e-17
5037.85 1.1781e-16
5039.375 1.1175e-16
5040.9 9.6038e-17
5042.425 8.9113e-17
5043.95 9.6244e-17
5045.475 1.1179e-16
5047.0 1.0848e-16
5048.525 1.2345e-16
5050.05 1.0357e-16
5051.575 1.1756e-16
5053.1 1.1178e-16
5054.625 1.1047e-16
5056.15 1.0297e-16
5057.675 1.0581e-16
5059.2 1.1853e-16
5060.725 1.3282e-16
5062.25 1.158e-16
5063.775 1.15e-16
5065.3 1.0274e-16
5066.825 1.0574e-16
5068.35 1.1269e-16
5069.875 1.1464e-16
5071.4 1.3555e-16
5072.925 1.225e-16
5074.45 1.1671e-16
5075.975 1.0032e-16
5077.5 1.0353e-16
5079.025 1.1723e-16
5080.55 1.1302e-16
5082.075 1.0223e-16
5083.6 1.0765e-16
5085.125 1.1883e-16
5086.65 1.3997e-16
5088.175 1.3125e-16
5089.7 1.161e-16
5091.225 1.188e-16
5092.75 1.2177e-16
5094.275 1.3067e-16
5095.8 1.152e-16
5097.325 1.1388e-16
5098.85 1.2182e-16
5100.375 1.1235e-16
5101.9 1.1263e-16
5103.425 1.1224e-16
5104.95 1.0627e-16
5106.475 1.036e-16
5108.0 1.2439e-16
5109.525 1.1356e-16
5111.05 1.102e-16
5112.575 1.4048e-16
5114.1 1.3681e-16
5115.625 1.2447e-16
5117.15 1.277e-16
5118.675 1.2369e-16
5120.2 1.3685e-16
5121.725 1.5106e-16
5123.25 1.3496e-16
5124.775 1.2344e-16
5126.3 1.2138e-16
5127.825 1.2652e-16
5129.35 1.2582e-16
5130.875 1.2178e-16
5132.4 1.2251e-16
5133.925 1.2418e-16
5135.45 1.1874e-16
5136.975 1.3605e-16
5138.5 1.3408e-16
5140.025 1.3367e-16
5141.55 1.3297e-16
5143.075 1.338e-16
5144.6 1.2245e-16
5146.125 1.0743e-16
5147.65 1.171e-16
5149.175 1.2067e-16
5150.7 1.1575e-16
5152.225 1.2232e-16
5153.75 1.3509e-16
5155.275 1.2716e-16
5156.8 1.2701e-16
5158.325 1.2707e-16
5159.85 1.2777e-16
5161.375 1.2145e-16
5162.9 1.2746e-16
5164.425 1.2162e-16
5165.95 1.3355e-16
5167.475 1.1349e-16
5169.0 1.127e-16
5170.525 1.2715e-16
5172.05 1.1893e-16
5173.575 1.101e-16
5175.1 1.2919e-16
5176.625 1.2604e-16
5178.15 1.1355e-16
5179.675 9.9067e-17
5181.2 1.0727e-16
5182.725 1.1518e-16
5184.25 1.0765e-16
5185.775 1.1313e-16
5187.3 1.1328e-16
5188.825 1.0866e-16
5190.35 1.0461e-16
5191.875 1.1925e-16
5193.4 1.1475e-16
5194.925 1.071e-16
5196.45 1.1674e-16
5197.975 1.1094e-16
5199.5 1.1124e-16
5201.025 1.0385e-16
5202.55 1.0998e-16
5204.075 1.1809e-16
5205.6 1.2372e-16
5207.125 1.0935e-16
5208.65 8.7366e-17
5210.175 8.9319e-17
5211.7 1.1176e-16
5213.225 1.0968e-16
5214.75 1.0938e-16
5216.275 1.114e-16
5217.8 9.41e-17
5219.325 1.0377e-16
5220.85 8.8617e-17
5222.375 8.9654e-17
5223.9 8.4449e-17
5225.425 7.9289e-17
5226.95 8.8363e-17
5228.475 9.145e-17
5230.0 8.4373e-17
5231.525 9.7104e-17
5233.05 9.7843e-17
5234.575 1.0376e-16
5236.1 1.1145e-16
5237.625 1.1224e-16
5239.15 1.0434e-16
5240.675 1.0418e-16
5242.2 1.054e-16
5243.725 9.3426e-17
5245.25 1.0649e-16
5246.775 1.1953e-16
5248.3 8.9695e-17
5249.825 7.3724e-17
5251.35 8.7256e-17
5252.875 1.0143e-16
5254.4 9.3272e-17
5255.925 9.409e-17
5257.45 8.6295e-17
5258.975 6.0541e-17
5260.5 7.7051e-17
5262.025 9.0197e-17
5263.55 7.8086e-17
5265.075 8.1875e-17
5266.6 6.8584e-17
5268.125 8.0023e-17
5269.65 8.8604e-17
5271.175 1.0506e-16
5272.7 1.0969e-16
5274.225 7.6123e-17
5275.75 7.9281e-17
5277.275 6.4271e-17
5278.8 6.7224e-17
5280.325 8.14e-17
5281.85 9.5906e-17
5283.375 7.6722e-17
5284.9 7.3906e-17
5286.425 8.1419e-17
5287.95 8.2423e-17
5289.475 9.1864e-17
5291.0 7.9856e-17
5292.525 8.5884e-17
5294.05 8.7309e-17
5295.575 8.7771e-17
5297.1 9.28e-17
5298.625 8.6436e-17
5300.15 8.7121e-17
5301.675 9.644e-17
5303.2 8.3958e-17
5304.725 7.6187e-17
5306.25 6.9209e-17
5307.775 6.0973e-17
5309.3 8.371e-17
5310.825 8.2216e-17
5312.35 7.4502e-17
5313.875 7.8962e-17
5315.4 8.9835e-17
5316.925 8.8169e-17
5318.45 7.5692e-17
5319.975 9.1285e-17
5321.5 9.7214e-17
5323.025 7.5819e-17
5324.55 7.3217e-17
5326.075 7.8257e-17
5327.6 7.9742e-17
5329.125 6.8607e-17
5330.65 5.2658e-17
5332.175 6.5747e-17
5333.7 7.8169e-17
5335.225 6.8599e-17
5336.75 7.5486e-17
5338.275 6.8748e-17
5339.8 6.7086e-17
5341.325 8.1495e-17
5342.85 9.0762e-17
5344.375 8.7948e-17
5345.9 6.6458e-17
5347.425 8.2076e-17
5348.95 7.7162e-17
5350.475 6.6843e-17
5352.0 5.2472e-17
5353.525 6.4144e-17
5355.05 6.1598e-17
5356.575 7.1207e-17
5358.1 7.7696e-17
5359.625 7.4989e-17
5361.15 6.8721e-17
5362.675 6.7597e-17
5364.2 9.2462e-17
5365.725 8.3195e-17
5367.25 6.1907e-17
5368.775 7.1053e-17
5370.3 6.5612e-17
5371.825 6.7759e-17
5373.35 6.531e-17
5374.875 7.6056e-17
5376.4 6.5959e-17
5377.925 5.4632e-17
5379.45 5.7238e-17
5380.975 5.5385e-17
5382.5 5.3867e-17
5384.025 6.2903e-17
5385.55 8.3709e-17
5387.075 7.0849e-17
5388.6 7.603e-17
5390.125 6.6649e-17
5391.65 8.4165e-17
5393.175 6.9994e-17
5394.7 7.506e-17
5396.225 7.178e-17
5397.75 8.6197e-17
5399.275 9.5827e-17
5400.8 9.6785e-17
5402.325 8.4829e-17
5403.85 7.9384e-17
5405.375 7.5296e-17
5406.9 8.4941e-17
5408.425 7.7315e-17
5409.95 7.7157e-17
5411.475 8.1154e-17
5413.0 8.0298e-17
5414.525 1.0277e-16
5416.05 8.9268e-17
5417.575 8.8068e-17
5419.1 7.9983e-17
5420.625 8.1161e-17
5422.15 8.5218e-17
5423.675 9.827e-17
5425.2 8.2881e-17
5426.725 8.0537e-17
5428.25 1.0676e-16
5429.775 1.1009e-16
5431.3 1.0941e-16
5432.825 8.7395e-17
5434.35 8.1833e-17
5435.875 1.1091e-16
5437.4 1.0751e-16
5438.925 1.0068e-16
5440.45 1.004e-16
5441.975 1.1739e-16
5443.5 1.1012e-16
5445.025 9.7653e-17
5446.55 1.2005e-16
5448.075 1.2469e-16
5449.6 7.3421e-17
5451.125 6.6336e-17
5452.65 1.1003e-16
5454.175 1.0617e-16
5455.7 6.6222e-17
5457.225 8.7365e-17
5458.75 1.2278e-16
5460.275 1.1372e-16
5461.8 1.3402e-16
5463.325 1.3195e-16
5464.85 1.0598e-16
5466.375 1.3783e-16
5467.9 1.1459e-16
5469.425 1.2583e-16
5470.95 9.8331e-17
5472.475 8.9959e-17
5474.0 1.1615e-16
5475.525 1.1794e-16
5477.05 9.5297e-17
5478.575 6.4996e-17
5480.1 9.6034e-17
5481.625 1.0502e-16
5483.15 1.0312e-16
5484.675 9.4303e-17
5486.2 1.2552e-16
5487.725 1.1484e-16
5489.25 1.0119e-16
5490.775 1.0336e-16
5492.3 1.144e-16
5493.825 7.8289e-17
5495.35 8.4837e-17
5496.875 1.1873e-16
5498.4 1.1387e-16
5499.925 9.4618e-17
5501.45 8.7348e-17
5502.975 8.0631e-17
5504.5 8.0861e-17
5506.025 8.1076e-17
5507.55 8.4458e-17
5509.075 8.3254e-17
5510.6 8.5507e-17
5512.125 7.7031e-17
5513.65 7.5746e-17
5515.175 8.8135e-17
5516.7 1.0671e-16
5518.225 9.4759e-17
5519.75 8.2633e-17
5521.275 8.454e-17
5522.8 7.9479e-17
5524.325 8.3244e-17
5525.85 9.5601e-17
5527.375 8.5228e-17
5528.9 8.8546e-17
5530.425 7.8426e-17
5531.95 8.4559e-17
5533.475 9.592e-17
5535.0 9.6625e-17
5536.525 8.6312e-17
5538.05 7.9369e-17
5539.575 7.4206e-17
5541.1 6.8005e-17
5542.625 8.8062e-17
5544.15 9.6147e-17
5545.675 1.0343e-16
5547.2 1.0718e-16
5548.725 8.4584e-17
5550.25 9.2262e-17
5551.775 9.3538e-17
5553.3 8.3812e-17
5554.825 9.0703e-17
5556.35 8.8596e-17
5557.875 8.9534e-17
5559.4 9.2604e-17
5560.925 9.194e-17
5562.45 8.4189e-17
5563.975 9.7476e-17
5565.5 1.1011e-16
5567.025 1.0376e-16
5568.55 1.1242e-16
5570.075 1.1479e-16
5571.6 1.3196e-16
5573.125 1.3205e-16
5574.65 1.2178e-16
5576.175 1.2262e-16
5577.7 1.1933e-16
5579.225 1.1274e-16
5580.75 9.9973e-17
5582.275 9.7507e-17
5583.8 1.028e-16
5585.325 1.0821e-16
5586.85 1.1525e-16
5588.375 9.8967e-17
5589.9 1.0679e-16
5591.425 1.1943e-16
5592.95 1.114e-16
5594.475 1.1884e-16
5596.0 1.1864e-16
5597.525 1.1206e-16
5599.05 1.0683e-16
5600.575 1.1264e-16
5602.1 9.6154e-17
5603.625 9.6044e-17
5605.15 1.201e-16
5606.675 1.1922e-16
5608.2 1.0017e-16
5609.725 1.0875e-16
5611.25 1.2262e-16
5612.775 1.2047e-16
5614.3 1.1371e-16
5615.825 9.3865e-17
5617.35 1.018e-16
5618.875 1.1074e-16
5620.4 9.8226e-17
5621.925 1.0711e-16
5623.45 1.1384e-16
5624.975 1.0928e-16
5626.5 1.1516e-16
5628.025 1.2339e-16
5629.55 1.1425e-16
5631.075 1.0333e-16
5632.6 9.1229e-17
5634.125 1.0209e-16
5635.65 1.0725e-16
5637.175 1.1369e-16
5638.7 1.0596e-16
5640.225 1.0079e-16
5641.75 1.0645e-16
5643.275 1.1115e-16
5644.8 9.8391e-17
5646.325 9.5727e-17
5647.85 9.7697e-17
5649.375 1.0358e-16
5650.9 1.0867e-16
5652.425 1.0484e-16
5653.95 1.1638e-16
5655.475 1.1241e-16
5657.0 9.5035e-17
5658.525 1.0854e-16
5660.05 1.0022e-16
5661.575 8.6161e-17
5663.1 9.081e-17
5664.625 1.0289e-16
5666.15 1.031e-16
5667.675 9.2117e-17
5669.2 9.3603e-17
5670.725 1.0152e-16
5672.25 1.0054e-16
5673.775 1.082e-16
5675.3 9.4228e-17
5676.825 9.0742e-17
5678.35 8.8453e-17
5679.875 9.0475e-17
5681.4 9.49e-17
5682.925 8.1556e-17
5684.45 7.9426e-17
5685.975 1.0006e-16
5687.5 9.9165e-17
5689.025 9.9085e-17
5690.55 1.0989e-16
5692.075 1.0159e-16
5693.6 9.6518e-17
5695.125 9.1468e-17
5696.65 9.8501e-17
5698.175 1.009e-16
5699.7 1.0223e-16
5701.225 1.0529e-16
5702.75 1.0519e-16
5704.275 9.4343e-17
5705.8 1.002e-16
5707.325 9.7746e-17
5708.85 8.8491e-17
5710.375 1.0898e-16
5711.9 1.0322e-16
5713.425 1.0234e-16
5714.95 1.1268e-16
5716.475 1.1497e-16
5718.0 1.0727e-16
5719.525 1.0409e-16
5721.05 1.0998e-16
5722.575 1.1334e-16
5724.1 1.2123e-16
5725.625 1.1039e-16
5727.15 1.126e-16
5728.675 1.0242e-16
5730.2 1.1167e-16
5731.725 1.2184e-16
5733.25 1.1075e-16
5734.775 1.0502e-16
5736.3 1.1158e-16
5737.825 1.1618e-16
5739.35 1.1136e-16
5740.875 1.0508e-16
5742.4 9.9808e-17
5743.925 1.1248e-16
5745.45 1.2204e-16
5746.975 1.2425e-16
5748.5 1.2963e-16
5750.025 1.2233e-16
5751.55 1.154e-16
5753.075 1.1376e-16
5754.6 1.0557e-16
5756.125 1.1083e-16
5757.65 1.2078e-16
5759.175 1.2262e-16
5760.7 1.1523e-16
5762.225 9.9366e-17
5763.75 1.1101e-16
5765.275 1.3059e-16
5766.8 1.2934e-16
5768.325 1.143e-16
5769.85 1.2111e-16
5771.375 1.4244e-16
5772.9 1.5074e-16
5774.425 1.4823e-16
5775.95 1.3622e-16
5777.475 1.343e-16
5779.0 1.4498e-16
5780.525 1.4232e-16
5782.05 1.2232e-16
5783.575 1.1875e-16
5785.1 1.3822e-16
5786.625 1.3002e-16
5788.15 1.1639e-16
5789.675 1.2058e-16
5791.2 1.2067e-16
5792.725 1.3441e-16
5794.25 1.4687e-16
5795.775 1.4782e-16
5797.3 1.4905e-16
5798.825 1.5025e-16
5800.35 1.487e-16
5801.875 1.4371e-16
5803.4 1.4637e-16
5804.925 1.4644e-16
5806.45 1.3737e-16
5807.975 1.3079e-16
5809.5 1.2496e-16
5811.025 1.2731e-16
5812.55 1.2928e-16
5814.075 1.4372e-16
5815.6 1.4383e-16
5817.125 1.3016e-16
5818.65 1.3813e-16
5820.175 1.5041e-16
5821.7 1.4437e-16
5823.225 1.4281e-16
5824.75 1.3147e-16
5826.275 1.4007e-16
5827.8 1.5021e-16
5829.325 1.4201e-16
5830.85 1.363e-16
5832.375 1.304e-16
5833.9 1.2881e-16
5835.425 1.2728e-16
5836.95 1.226e-16
5838.475 1.1987e-16
5840.0 1.3205e-16
5841.525 1.4017e-16
5843.05 1.3353e-16
5844.575 1.4347e-16
5846.1 1.3298e-16
5847.625 1.4026e-16
5849.15 1.4664e-16
5850.675 1.3619e-16
5852.2 1.4259e-16
5853.725 1.53e-16
5855.25 1.5276e-16
5856.775 1.601e-16
5858.3 1.6296e-16
5859.825 1.4327e-16
5861.35 1.4722e-16
5862.875 1.5411e-16
5864.4 1.4365e-16
5865.925 1.4537e-16
5867.45 1.5747e-16
5868.975 1.4693e-16
5870.5 1.5203e-16
5872.025 1.6599e-16
5873.55 1.4901e-16
5875.075 1.4182e-16
5876.6 1.5489e-16
5878.125 1.4417e-16
5879.65 1.465e-16
5881.175 1.4746e-16
5882.7 1.3701e-16
5884.225 1.4546e-16
5885.75 1.7359e-16
5887.275 1.5729e-16
5888.8 1.3229e-16
5890.325 1.5079e-16
5891.85 1.7477e-16
5893.375 1.7039e-16
5894.9 1.6282e-16
5896.425 1.8019e-16
5897.95 1.7422e-16
5899.475 1.6998e-16
5901.0 1.7782e-16
5902.525 1.6901e-16
5904.05 1.6823e-16
5905.575 1.8165e-16
5907.1 1.7567e-16
5908.625 1.7369e-16
5910.15 1.6714e-16
5911.675 1.5808e-16
5913.2 1.5032e-16
5914.725 1.4931e-16
5916.25 1.6173e-16
5917.775 1.5768e-16
5919.3 1.5248e-16
5920.825 1.4973e-16
5922.35 1.5235e-16
5923.875 1.5218e-16
5925.4 1.487e-16
5926.925 1.495e-16
5928.45 1.6275e-16
5929.975 1.5559e-16
5931.5 1.4606e-16
5933.025 1.6058e-16
5934.55 1.601e-16
5936.075 1.4645e-16
5937.6 1.4515e-16
5939.125 1.5086e-16
5940.65 1.5984e-16
5942.175 1.4765e-16
5943.7 1.4057e-16
5945.225 1.5624e-16
5946.75 1.6119e-16
5948.275 1.5771e-16
5949.8 1.5089e-16
5951.325 1.4971e-16
5952.85 1.5093e-16
5954.375 1.4495e-16
5955.9 1.4406e-16
5957.425 1.4755e-16
5958.95 1.5169e-16
5960.475 1.4931e-16
5962.0 1.5474e-16
5963.525 1.526e-16
5965.05 1.5819e-16
5966.575 1.6302e-16
5968.1 1.5554e-16
5969.625 1.4924e-16
5971.15 1.4704e-16
5972.675 1.4531e-16
5974.2 1.3513e-16
5975.725 1.3002e-16
5977.25 1.4513e-16
5978.775 1.6201e-16
5980.3 1.6665e-16
5981.825 1.5247e-16
5983.35 1.6016e-16
5984.875 1.6559e-16
5986.4 1.5465e-16
5987.925 1.4368e-16
5989.45 1.458e-16
5990.975 1.459e-16
5992.5 1.4775e-16
5994.025 1.5339e-16
5995.55 1.4705e-16
5997.075 1.4135e-16
5998.6 1.5002e-16
6000.125 1.4522e-16
6001.65 1.4001e-16
6003.175 1.4532e-16
6004.7 1.4424e-16
6006.225 1.415e-16
6007.75 1.4025e-16
6009.275 1.4355e-16
6010.8 1.4527e-16
6012.325 1.5719e-16
6013.85 1.5835e-16
6015.375 1.5931e-16
6016.9 1.6267e-16
6018.425 1.6264e-16
6019.95 1.5791e-16
6021.475 1.6125e-16
6023.0 1.7051e-16
6024.525 1.6128e-16
6026.05 1.5755e-16
6027.575 1.5841e-16
6029.1 1.5146e-16
6030.625 1.5374e-16
6032.15 1.6763e-16
6033.675 1.7048e-16
6035.2 1.5765e-16
6036.725 1.5464e-16
6038.25 1.5255e-16
6039.775 1.5257e-16
6041.3 1.5874e-16
6042.825 1.6574e-16
6044.35 1.632e-16
6045.875 1.4916e-16
6047.4 1.3819e-16
6048.925 1.4515e-16
6050.45 1.6622e-16
6051.975 1.6781e-16
6053.5 1.5705e-16
6055.025 1.5707e-16
6056.55 1.6292e-16
6058.075 1.5599e-16
6059.6 1.5252e-16
6061.125 1.5517e-16
6062.65 1.6092e-16
6064.175 1.6082e-16
6065.7 1.4928e-16
6067.225 1.4025e-16
6068.75 1.509e-16
6070.275 1.4757e-16
6071.8 1.4015e-16
6073.325 1.4592e-16
6074.85 1.4127e-16
6076.375 1.5157e-16
6077.9 1.6206e-16
6079.425 1.6599e-16
6080.95 1.6322e-16
6082.475 1.507e-16
6084.0 1.432e-16
6085.525 1.4601e-16
6087.05 1.5144e-16
6088.575 1.5033e-16
6090.1 1.5377e-16
6091.625 1.6061e-16
6093.15 1.6217e-16
6094.675 1.5263e-16
6096.2 1.5481e-16
6097.725 1.544e-16
6099.25 1.5066e-16
6100.775 1.5253e-16
6102.3 1.5129e-16
6103.825 1.546e-16
6105.35 1.5606e-16
6106.875 1.586e-16
6108.4 1.5008e-16
6109.925 1.5275e-16
6111.45 1.6417e-16
6112.975 1.5841e-16
6114.5 1.5226e-16
6116.025 1.5122e-16
6117.55 1.4425e-16
6119.075 1.384e-16
6120.6 1.4794e-16
6122.125 1.578e-16
6123.65 1.5829e-16
6125.175 1.6983e-16
6126.7 1.6779e-16
6128.225 1.4502e-16
6129.75 1.481e-16
6131.275 1.5805e-16
6132.8 1.5611e-16
6134.325 1.4805e-16
6135.85 1.5327e-16
6137.375 1.5436e-16
6138.9 1.5789e-16
6140.425 1.5399e-16
6141.95 1.5344e-16
6143.475 1.4542e-16
6145.0 1.4735e-16
6146.525 1.5132e-16
6148.05 1.631e-16
6149.575 1.6387e-16
6151.1 1.5004e-16
6152.625 1.4664e-16
6154.15 1.5346e-16
6155.675 1.4653e-16
6157.2 1.5077e-16
6158.725 1.5701e-16
6160.25 1.481e-16
6161.775 1.4975e-16
6163.3 1.5498e-16
6164.825 1.5355e-16
6166.35 1.4656e-16
6167.875 1.4095e-16
6169.4 1.4534e-16
6170.925 1.5844e-16
6172.45 1.5349e-16
6173.975 1.5166e-16
6175.5 1.4566e-16
6177.025 1.4398e-16
6178.55 1.456e-16
6180.075 1.4643e-16
6181.6 1.4815e-16
6183.125 1.4531e-16
6184.65 1.4631e-16
6186.175 1.4487e-16
6187.7 1.4731e-16
6189.225 1.4758e-16
6190.75 1.3144e-16
6192.275 1.2866e-16
6193.8 1.3914e-16
6195.325 1.3992e-16
6196.85 1.4101e-16
6198.375 1.3712e-16
6199.9 1.4026e-16
6201.425 1.3855e-16
6202.95 1.4089e-16
6204.475 1.4416e-16
6206.0 1.3793e-16
6207.525 1.3472e-16
6209.05 1.3924e-16
6210.575 1.3823e-16
6212.1 1.3458e-16
6213.625 1.3934e-16
6215.15 1.4401e-16
6216.675 1.3553e-16
6218.2 1.3784e-16
6219.725 1.4225e-16
6221.25 1.3823e-16
6222.775 1.2339e-16
6224.3 1.2554e-16
6225.825 1.3544e-16
6227.35 1.3552e-16
6228.875 1.3479e-16
6230.4 1.3591e-16
6231.925 1.3852e-16
6233.45 1.4257e-16
6234.975 1.3971e-16
6236.5 1.4031e-16
6238.025 1.3508e-16
6239.55 1.3039e-16
6241.075 1.3946e-16
6242.6 1.3725e-16
6244.125 1.3745e-16
6245.65 1.3223e-16
6247.175 1.2904e-16
6248.7 1.3448e-16
6250.225 1.3516e-16
6251.75 1.313e-16
6253.275 1.318e-16
6254.8 1.4157e-16
6256.325 1.4813e-16
6257.85 1.4438e-16
6259.375 1.3629e-16
6260.9 1.3642e-16
6262.425 1.4142e-16
6263.95 1.3895e-16
6265.475 1.2687e-16
6267.0 1.1696e-16
6268.525 1.2666e-16
6270.05 1.2531e-16
6271.575 1.1584e-16
6273.1 1.2167e-16
6274.625 1.2147e-16
6276.15 1.2058e-16
6277.675 1.1421e-16
6279.2 1.2222e-16
6280.725 1.3912e-16
6282.25 1.3838e-16
6283.775 1.3227e-16
6285.3 1.3821e-16
6286.825 1.262e-16
6288.35 1.1922e-16
6289.875 1.3126e-16
6291.4 1.3403e-16
6292.925 1.1604e-16
6294.45 1.236e-16
6295.975 1.3622e-16
6297.5 1.3527e-16
6299.025 1.4767e-16
6300.55 1.4584e-16
6302.075 1.1783e-16
6303.6 1.249e-16
6305.125 1.2777e-16
6306.65 1.2025e-16
6308.175 1.1455e-16
6309.7 1.267e-16
6311.225 1.2909e-16
6312.75 1.2084e-16
6314.275 1.1842e-16
6315.8 1.1346e-16
6317.325 1.1156e-16
6318.85 1.2073e-16
6320.375 1.2174e-16
6321.9 1.2382e-16
6323.425 1.2603e-16
6324.95 1.2198e-16
6326.475 1.2319e-16
6328.0 1.3251e-16
6329.525 1.3103e-16
6331.05 1.2094e-16
6332.575 1.1593e-16
6334.1 1.2177e-16
6335.625 1.27e-16
6337.15 1.186e-16
6338.675 1.065e-16
6340.2 1.0065e-16
6341.725 1.1483e-16
6343.25 1.162e-16
6344.775 1.117e-16
6346.3 1.1235e-16
6347.825 1.2408e-16
6349.35 1.2844e-16
6350.875 1.2379e-16
6352.4 1.2407e-16
6353.925 1.2727e-16
6355.45 1.1743e-16
6356.975 1.0673e-16
6358.5 1.1352e-16
6360.025 1.316e-16
6361.55 1.2896e-16
6363.075 1.27e-16
6364.6 1.2213e-16
6366.125 1.1122e-16
6367.65 1.0541e-16
6369.175 1.0934e-16
6370.7 1.1813e-16
6372.225 1.251e-16
6373.75 1.1784e-16
6375.275 1.1361e-16
6376.8 1.2159e-16
6378.325 1.1801e-16
6379.85 1.1604e-16
6381.375 1.1144e-16
6382.9 1.1427e-16
6384.425 1.2202e-16
6385.95 1.1927e-16
6387.475 1.0796e-16
6389.0 1.0823e-16
6390.525 1.1496e-16
6392.05 1.1282e-16
6393.575 1.0816e-16
6395.1 1.1199e-16
6396.625 1.2111e-16
6398.15 1.2724e-16
6399.675 1.2157e-16
6401.2 1.2687e-16
6402.725 1.189e-16
6404.25 1.107e-16
6405.775 1.1295e-16
6407.3 1.0988e-16
6408.825 1.1431e-16
6410.35 1.1364e-16
6411.875 1.048e-16
6413.4 1.0882e-16
6414.925 1.0378e-16
6416.45 1.0213e-16
6417.975 1.0231e-16
6419.5 1.0168e-16
6421.025 1.0515e-16
6422.55 1.0307e-16
6424.075 9.952e-17
6425.6 1.0083e-16
6427.125 1.0827e-16
6428.65 1.0479e-16
6430.175 1.0084e-16
6431.7 1.1407e-16
6433.225 1.1523e-16
6434.75 1.1748e-16
6436.275 1.085e-16
6437.8 1.0434e-16
6439.325 1.0358e-16
6440.85 9.2124e-17
6442.375 9.5292e-17
6443.9 1.1199e-16
6445.425 1.095e-16
6446.95 1.0304e-16
6448.475 9.8605e-17
6450.0 1.0396e-16
6451.525 1.1246e-16
6453.05 1.1487e-16
6454.575 1.078e-16
6456.1 1.0902e-16
6457.625 1.0959e-16
6459.15 9.8009e-17
6460.675 9.5416e-17
6462.2 1.0009e-16
6463.725 1.1422e-16
6465.25 1.1484e-16
6466.775 1.0912e-16
6468.3 1.1203e-16
6469.825 1.0785e-16
6471.35 1.0827e-16
6472.875 1.1061e-16
6474.4 1.0396e-16
6475.925 1.0616e-16
6477.45 1.1152e-16
6478.975 1.1015e-16
6480.5 1.1113e-16
6482.025 1.0014e-16
6483.55 9.0963e-17
6485.075 9.7741e-17
6486.6 1.0045e-16
6488.125 9.3623e-17
6489.65 9.3791e-17
6491.175 9.4014e-17
6492.7 9.5369e-17
6494.225 9.9999e-17
6495.75 9.8719e-17
6497.275 1.0692e-16
6498.8 9.9631e-17
6500.325 8.613e-17
6501.85 9.167e-17
6503.375 1.0302e-16
6504.9 1.1341e-16
6506.425 1.0702e-16
6507.95 9.8917e-17
6509.475 1.0713e-16
6511.0 1.0745e-16
6512.525 9.3433e-17
6514.05 8.6999e-17
6515.575 9.5991e-17
6517.1 1.0926e-16
6518.625 1.1134e-16
6520.15 1.0499e-16
6521.675 1.0159e-16
6523.2 9.6475e-17
6524.725 1.0458e-16
6526.25 1.0945e-16
6527.775 9.7299e-17
6529.3 9.691e-17
6530.825 1.0765e-16
6532.35 1.1051e-16
6533.875 1.1353e-16
6535.4 1.1595e-16
6536.925 1.1128e-16
6538.45 1.06e-16
6539.975 1.0431e-16
6541.5 1.0699e-16
6543.025 1.0561e-16
6544.55 9.8253e-17
6546.075 1.0576e-16
6547.6 1.1535e-16
6549.125 1.1531e-16
6550.65 1.1871e-16
6552.175 1.1146e-16
6553.7 1.0169e-16
6555.225 1.1174e-16
6556.75 1.2526e-16
6558.275 1.2672e-16
6559.8 1.2717e-16
6561.325 1.4079e-16
6562.85 1.5513e-16
6564.375 1.6079e-16
6565.9 1.5943e-16
6567.425 1.4985e-16
6568.95 1.5042e-16
6570.475 1.4436e-16
6572.0 1.3323e-16
6573.525 1.3189e-16
6575.05 1.2409e-16
6576.575 1.0998e-16
6578.1 9.9913e-17
6579.625 1.0012e-16
6581.15 1.0434e-16
6582.675 1.0393e-16
6584.2 1.0621e-16
6585.725 1.0749e-16
6587.25 1.008e-16
6588.775 9.4932e-17
6590.3 9.4925e-17
6591.825 1.0205e-16
6593.35 1.018e-16
6594.875 9.7406e-17
6596.4 1.0302e-16
6597.925 1.0342e-16
6599.45 9.9764e-17
6600.975 1.0214e-16
6602.5 1.0115e-16
6604.025 9.2727e-17
6605.55 9.2157e-17
6607.075 9.681e-17
6608.6 9.2853e-17
6610.125 9.317e-17
6611.65 9.2671e-17
6613.175 8.8956e-17
6614.7 8.4897e-17
6616.225 8.6736e-17
6617.75 9.2352e-17
6619.275 9.8512e-17
6620.8 9.917e-17
6622.325 9.4291e-17
6623.85 9.3332e-17
6625.375 8.8859e-17
6626.9 8.5644e-17
6628.425 9.0674e-17
6629.95 9.5935e-17
6631.475 9.749e-17
6633.0 9.7206e-17
6634.525 1.0608e-16
6636.05 9.4887e-17
6637.575 8.2976e-17
6639.1 8.5984e-17
6640.625 8.4026e-17
6642.15 8.8635e-17
6643.675 9.7236e-17
6645.2 1.0565e-16
6646.725 1.0034e-16
6648.25 1.0178e-16
6649.775 9.9587e-17
6651.3 9.1158e-17
6652.825 9.5595e-17
6654.35 9.6249e-17
6655.875 9.1906e-17
6657.4 9.4866e-17
6658.925 9.5257e-17
6660.45 8.9182e-17
6661.975 9.1573e-17
6663.5 9.3444e-17
6665.025 8.0213e-17
6666.55 8.6484e-17
6668.075 9.6577e-17
6669.6 9.3768e-17
6671.125 8.523e-17
6672.65 8.1307e-17
6674.175 7.8693e-17
6675.7 8.5837e-17
6677.225 8.8593e-17
6678.75 8.8735e-17
6680.275 8.3861e-17
6681.8 8.8358e-17
6683.325 8.7055e-17
6684.85 8.4832e-17
6686.375 8.5649e-17
6687.9 8.7169e-17
6689.425 9.5185e-17
6690.95 8.9534e-17
6692.475 8.0607e-17
6694.0 7.5074e-17
6695.525 8.0879e-17
6697.05 8.6226e-17
6698.575 9.4561e-17
6700.1 9.3458e-17
6701.625 8.3128e-17
6703.15 8.7362e-17
6704.675 8.837e-17
6706.2 8.7387e-17
6707.725 8.269e-17
6709.25 7.8409e-17
6710.775 7.9571e-17
6712.3 8.4159e-17
6713.825 8.4408e-17
6715.35 8.3586e-17
6716.875 9.0965e-17
6718.4 8.3042e-17
6719.925 7.853e-17
6721.45 7.8786e-17
6722.975 8.6398e-17
6724.5 8.1438e-17
6726.025 8.3703e-17
6727.55 8.8682e-17
6729.075 7.9932e-17
6730.6 7.4813e-17
6732.125 7.2439e-17
6733.65 7.5088e-17
6735.175 7.7516e-17
6736.7 7.5723e-17
6738.225 8.4834e-17
6739.75 9.5858e-17
6741.275 9.6545e-17
6742.8 8.9859e-17
6744.325 7.5016e-17
6745.85 7.5993e-17
6747.375 8.488e-17
6748.9 8.4196e-17
6750.425 8.9757e-17
6751.95 8.2348e-17
6753.475 7.9436e-17
6755.0 8.1512e-17
6756.525 9.1091e-17
6758.05 9.6328e-17
6759.575 9.1096e-17
6761.1 9.0085e-17
6762.625 9.2602e-17
6764.15 9.4499e-17
6765.675 9.3135e-17
6767.2 8.7076e-17
6768.725 7.9871e-17
6770.25 8.4455e-17
6771.775 9.0502e-17
6773.3 8.1966e-17
6774.825 8.229e-17
6776.35 9.5914e-17
6777.875 9.6633e-17
6779.4 8.7031e-17
6780.925 9.0467e-17
6782.45 8.4613e-17
6783.975 8.5593e-17
6785.5 9.9666e-17
6787.025 1.0386e-16
6788.55 8.7688e-17
6790.075 8.5313e-17
6791.6 9.8239e-17
6793.125 1.0467e-16
6794.65 1.0158e-16
6796.175 9.1757e-17
6797.7 8.4955e-17
6799.225 9.7048e-17
6800.75 1.0129e-16
6802.275 9.5588e-17
6803.8 8.9373e-17
6805.325 8.3433e-17
6806.85 8.6119e-17
6808.375 9.3865e-17
6809.9 1.0036e-16
6811.425 9.3307e-17
6812.95 9.1794e-17
6814.475 9.5514e-17
6816.0 9.6054e-17
6817.525 1.0024e-16
6819.05 9.4918e-17
6820.575 8.3786e-17
6822.1 8.8579e-17
6823.625 1.0727e-16
6825.15 1.114e-16
6826.675 9.9513e-17
6828.2 9.1291e-17
6829.725 9.2387e-17
6831.25 9.3249e-17
6832.775 9.1123e-17
6834.3 8.9825e-17
6835.825 8.6375e-17
6837.35 8.9217e-17
6838.875 9.3295e-17
6840.4 9.1026e-17
6841.925 9.1764e-17
6843.45 9.4422e-17
6844.975 9.2548e-17
6846.5 9.2082e-17
6848.025 9.499e-17
6849.55 9.0956e-17
6851.075 8.7415e-17
6852.6 8.0537e-17
6854.125 7.1161e-17
6855.65 7.9182e-17
6857.175 8.8889e-17
6858.7 9.0192e-17
6860.225 9.4876e-17
6861.75 9.3947e-17
6863.275 8.9017e-17
6864.8 7.1096e-17
6866.325 5.1817e-17
6867.85 5.1082e-17
6869.375 7.8956e-17
6870.9 1.1133e-16
6872.425 1.2644e-16
6873.95 1.3571e-16
6875.475 1.2949e-16
6877.0 1.2449e-16
6878.525 1.2706e-16
6880.05 1.0559e-16
6881.575 9.5998e-17
6883.1 8.8465e-17
6884.625 8.282e-17
6886.15 8.1882e-17
6887.675 8.2604e-17
6889.2 8.2157e-17
6890.725 8.3072e-17
6892.25 7.8563e-17
6893.775 7.9913e-17
6895.3 8.1591e-17
6896.825 7.826e-17
6898.35 8.4001e-17
6899.875 8.0085e-17
6901.4 7.2294e-17
6902.925 8.5819e-17
6904.45 9.0749e-17
6905.975 7.7983e-17
6907.5 7.2702e-17
6909.025 8.1536e-17
6910.55 9.414e-17
6912.075 8.573e-17
6913.6 8.2381e-17
6915.125 8.9645e-17
6916.65 9.1116e-17
6918.175 8.1151e-17
6919.7 8.4422e-17
6921.225 8.4061e-17
6922.75 8.7737e-17
6924.275 7.6349e-17
6925.8 7.0691e-17
6927.325 7.3088e-17
6928.85 7.0625e-17
6930.375 7.0716e-17
6931.9 8.6228e-17
6933.425 8.5579e-17
6934.95 8.0949e-17
6936.475 7.9424e-17
6938.0 7.5372e-17
6939.525 7.5416e-17
6941.05 8.0325e-17
6942.575 7.837e-17
6944.1 8.2548e-17
6945.625 7.7546e-17
6947.15 6.5635e-17
6948.675 5.8561e-17
6950.2 6.4187e-17
6951.725 7.7823e-17
6953.25 8.0274e-17
6954.775 8.12e-17
6956.3 7.6598e-17
6957.825 6.996e-17
6959.35 7.1969e-17
6960.875 7.9026e-17
6962.4 8.249e-17
6963.925 8.1491e-17
6965.45 7.8968e-17
6966.975 8.3328e-17
6968.5 8.1764e-17
6970.025 7.7436e-17
6971.55 7.5786e-17
6973.075 8.2795e-17
6974.6 8.0805e-17
6976.125 7.2406e-17
6977.65 7.6403e-17
6979.175 7.5172e-17
6980.7 7.3945e-17
6982.225 7.6051e-17
6983.75 8.2094e-17
6985.275 8.2816e-17
6986.8 8.4438e-17
6988.325 8.2597e-17
6989.85 7.6768e-17
6991.375 8.1224e-17
6992.9 8.891e-17
6994.425 9.0551e-17
6995.95 8.441e-17
6997.475 7.5379e-17
6999.0 7.6247e-17
7000.525 8.3093e-17
7002.05 7.9487e-17
7003.575 8.32e-17
7005.1 8.5928e-17
7006.625 8.7925e-17
7008.15 8.8184e-17
7009.675 8.2585e-17
7011.2 8.1075e-17
7012.725 7.9901e-17
7014.25 7.9939e-17
7015.775 7.8745e-17
7017.3 7.7753e-17
7018.825 7.5509e-17
7020.35 7.9915e-17
7021.875 8.391e-17
7023.4 8.3612e-17
7024.925 8.3337e-17
7026.45 8.1973e-17
7027.975 8.6449e-17
7029.5 9.6377e-17
7031.025 9.2404e-17
7032.55 8.1461e-17
7034.075 7.7343e-17
7035.6 7.7297e-17
7037.125 8.0327e-17
7038.65 8.5137e-17
7040.175 8.7962e-17
7041.7 8.6829e-17
7043.225 9.0684e-17
7044.75 9.2001e-17
7046.275 8.4841e-17
7047.8 8.246e-17
7049.325 8.1256e-17
7050.85 8.4487e-17
7052.375 9.6165e-17
7053.9 1.0167e-16
7055.425 9.3994e-17
7056.95 8.232e-17
7058.475 8.5444e-17
7060.0 9.5181e-17
7061.525 9.114e-17
7063.05 8.7399e-17
7064.575 9.6845e-17
7066.1 1.0772e-16
7067.625 1.0028e-16
7069.15 9.5453e-17
7070.675 9.6445e-17
7072.2 9.242e-17
7073.725 9.8325e-17
7075.25 1.0274e-16
7076.775 1.0612e-16
7078.3 1.0251e-16
7079.825 9.6382e-17
7081.35 8.3919e-17
7082.875 8.3477e-17
7084.4 9.1885e-17
7085.925 9.9659e-17
7087.45 1.0366e-16
7088.975 9.246e-17
7090.5 8.8996e-17
7092.025 9.7229e-17
7093.55 1.0137e-16
7095.075 9.9794e-17
7096.6 9.7304e-17
7098.125 9.3232e-17
7099.65 9.7608e-17
7101.175 1.0534e-16
7102.7 1.0288e-16
7104.225 9.8668e-17
7105.75 1.0147e-16
7107.275 1.041e-16
7108.8 1.0521e-16
7110.325 1.0345e-16
7111.85 1.0294e-16
7113.375 1.015e-16
7114.9 1.0818e-16
7116.425 1.0837e-16
7117.95 1.1444e-16
7119.475 1.0703e-16
7121.0 9.4806e-17
7122.525 1.091e-16
7124.05 1.1756e-16
7125.575 1.1323e-16
7127.1 1.1444e-16
7128.625 1.112e-16
7130.15 1.0826e-16
7131.675 1.1612e-16
7133.2 1.1345e-16
7134.725 1.1089e-16
7136.25 1.0863e-16
7137.775 1.1265e-16
7139.3 1.1609e-16
7140.825 1.2031e-16
7142.35 1.1748e-16
7143.875 1.1916e-16
7145.4 1.1178e-16
7146.925 1.0674e-16
7148.45 1.1414e-16
7149.975 1.1583e-16
7151.5 1.1117e-16
7153.025 1.0948e-16
7154.55 1.1181e-16
7156.075 1.0841e-16
7157.6 1.0853e-16
7159.125 1.1264e-16
7160.65 1.1062e-16
7162.175 1.014e-16
7163.7 1.0442e-16
7165.225 1.0502e-16
7166.75 1.0703e-16
7168.275 1.0263e-16
7169.8 1.0466e-16
7171.325 1.0912e-16
7172.85 1.1217e-16
7174.375 1.1723e-16
7175.9 1.1161e-16
7177.425 1.2056e-16
7178.95 1.2472e-16
7180.475 1.1212e-16
7182.0 9.8947e-17
7183.525 9.9089e-17
7185.05 1.1626e-16
7186.575 1.2812e-16
7188.1 1.3151e-16
7189.625 1.1686e-16
7191.15 1.086e-16
7192.675 1.1387e-16
7194.2 1.2036e-16
7195.725 1.1956e-16
7197.25 1.0829e-16
7198.775 1.0067e-16
7200.3 1.0198e-16
7201.825 1.0743e-16
7203.35 1.1582e-16
7204.875 1.2037e-16
7206.4 1.2828e-16
7207.925 1.2771e-16
7209.45 1.2153e-16
7210.975 1.1711e-16
7212.5 1.0991e-16
7214.025 1.0739e-16
7215.55 1.0379e-16
7217.075 1.022e-16
7218.6 1.0642e-16
7220.125 1.1136e-16
7221.65 1.131e-16
7223.175 1.0724e-16
7224.7 9.8691e-17
7226.225 9.6051e-17
7227.75 1.0302e-16
7229.275 1.0136e-16
7230.8 9.2927e-17
7232.325 9.5155e-17
7233.85 1.1008e-16
7235.375 1.2121e-16
7236.9 1.0741e-16
7238.425 1.051e-16
7239.95 1.092e-16
7241.475 1.059e-16
7243.0 1.1881e-16
7244.525 1.2306e-16
7246.05 1.1389e-16
7247.575 1.0732e-16
7249.1 9.2944e-17
7250.625 9.6133e-17
7252.15 1.1691e-16
7253.675 1.2376e-16
7255.2 1.1814e-16
7256.725 1.1239e-16
7258.25 1.0378e-16
7259.775 9.8749e-17
7261.3 9.587e-17
7262.825 1.0124e-16
7264.35 1.0907e-16
7265.875 1.1829e-16
7267.4 1.0473e-16
7268.925 9.614e-17
7270.45 1.0495e-16
7271.975 1.1046e-16
7273.5 1.0324e-16
7275.025 9.7508e-17
7276.55 1.0723e-16
7278.075 1.1518e-16
7279.6 1.2431e-16
7281.125 1.2029e-16
7282.65 1.054e-16
7284.175 1.0005e-16
7285.7 9.6715e-17
7287.225 9.5802e-17
7288.75 9.7615e-17
7290.275 1.0522e-16
7291.8 1.0545e-16
7293.325 1.1547e-16
7294.85 1.202e-16
7296.375 1.077e-16
7297.9 1.0697e-16
7299.425 1.0368e-16
7300.95 1.07e-16
7302.475 1.153e-16
7304.0 1.1324e-16
7305.525 1.0821e-16
7307.05 1.0977e-16
7308.575 9.5688e-17
7310.1 9.7813e-17
7311.625 1.1108e-16
7313.15 1.1373e-16
7314.675 1.0182e-16
7316.2 9.8291e-17
7317.725 1.1076e-16
7319.25 1.2448e-16
7320.775 1.2906e-16
7322.3 1.1523e-16
7323.825 1.1997e-16
7325.35 1.2928e-16
7326.875 1.3101e-16
7328.4 1.2313e-16
7329.925 1.2775e-16
7331.45 1.1713e-16
7332.975 1.1453e-16
7334.5 1.1962e-16
7336.025 1.226e-16
7337.55 1.2084e-16
7339.075 1.2407e-16
7340.6 1.1655e-16
7342.125 1.134e-16
7343.65 1.0661e-16
7345.175 1.0458e-16
7346.7 1.0934e-16
7348.225 1.0487e-16
7349.75 1.0293e-16
7351.275 1.0415e-16
7352.8 1.0948e-16
7354.325 1.0903e-16
7355.85 1.0728e-16
7357.375 1.1167e-16
7358.9 1.1649e-16
7360.425 1.0789e-16
7361.95 1.0146e-16
7363.475 1.0482e-16
7365.0 1.1544e-16
7366.525 1.1327e-16
7368.05 1.0539e-16
7369.575 1.1864e-16
7371.1 1.3096e-16
7372.625 1.3292e-16
7374.15 1.3152e-16
7375.675 1.2209e-16
7377.2 1.065e-16
7378.725 9.8346e-17
7380.25 1.0999e-16
7381.775 1.1896e-16
7383.3 1.1234e-16
7384.825 1.1026e-16
7386.35 1.0222e-16
7387.875 9.5309e-17
7389.4 1.0702e-16
7390.925 1.0704e-16
7392.45 1.0168e-16
7393.975 1.2e-16
7395.5 1.3206e-16
7397.025 1.1097e-16
7398.55 1.0002e-16
7400.075 1.0204e-16
7401.6 9.857e-17
7403.125 9.5148e-17
7404.65 9.5653e-17
7406.175 9.7897e-17
7407.7 9.6251e-17
7409.225 9.445e-17
7410.75 9.89e-17
7412.275 9.8628e-17
7413.8 9.5555e-17
7415.325 9.1375e-17
7416.85 9.6035e-17
7418.375 9.5846e-17
7419.9 9.0751e-17
7421.425 9.1861e-17
7422.95 9.4887e-17
7424.475 9.9352e-17
7426.0 1.0893e-16
7427.525 1.0398e-16
7429.05 1.0225e-16
7430.575 1.007e-16
7432.1 1.1114e-16
7433.625 1.0403e-16
7435.15 9.7003e-17
7436.675 1.0561e-16
7438.2 1.0318e-16
7439.725 1.0079e-16
7441.25 1.0014e-16
7442.775 1.0086e-16
7444.3 9.9205e-17
7445.825 9.7196e-17
7447.35 9.2071e-17
7448.875 9.5057e-17
7450.4 1.0407e-16
7451.925 1.0369e-16
7453.45 9.4045e-17
7454.975 8.863e-17
7456.5 9.1633e-17
7458.025 9.8537e-17
7459.55 1.0786e-16
7461.075 1.0442e-16
7462.6 9.2068e-17
7464.125 9.658e-17
7465.65 1.019e-16
7467.175 1.0549e-16
7468.7 1.0255e-16
7470.225 1.0594e-16
7471.75 1.0468e-16
7473.275 1.0265e-16
7474.8 9.6777e-17
7476.325 8.9673e-17
7477.85 9.1775e-17
7479.375 9.9673e-17
7480.9 1.078e-16
7482.425 1.0404e-16
7483.95 1.0554e-16
7485.475 1.049e-16
7487.0 9.6912e-17
7488.525 9.8353e-17
7490.05 9.8488e-17
7491.575 9.3509e-17
7493.1 9.0069e-17
7494.625 9.6656e-17
7496.15 9.739e-17
7497.675 9.924e-17
7499.2 1.0064e-16
7500.725 8.8526e-17
7502.25 8.1138e-17
7503.775 9.113e-17
7505.3 9.6929e-17
7506.825 8.8984e-17
7508.35 9.4589e-17
7509.875 9.8048e-17
7511.4 9.4343e-17
7512.925 9.4892e-17
7514.45 8.8733e-17
7515.975 9.4829e-17
7517.5 1.0085e-16
7519.025 9.7709e-17
7520.55 1.0248e-16
7522.075 1.0209e-16
7523.6 9.5616e-17
7525.125 9.5455e-17
7526.65 9.9627e-17
7528.175 9.4315e-17
7529.7 8.6389e-17
7531.225 8.255e-17
7532.75 8.5618e-17
7534.275 9.1447e-17
7535.8 8.732e-17
7537.325 8.6831e-17
7538.85 9.3023e-17
7540.375 9.6356e-17
7541.9 9.8642e-17
7543.425 1.0074e-16
7544.95 9.8486e-17
7546.475 1.0178e-16
7548.0 1.015e-16
7549.525 8.8114e-17
7551.05 8.2064e-17
7552.575 9.0104e-17
7554.1 8.7965e-17
7555.625 8.9508e-17
7557.15 9.9126e-17
7558.675 9.7115e-17
7560.2 9.4962e-17
7561.725 1.0586e-16
7563.25 1.0242e-16
7564.775 9.0239e-17
7566.3 9.8405e-17
7567.825 9.7546e-17
7569.35 8.0849e-17
7570.875 8.8274e-17
7572.4 1.0794e-16
7573.925 9.4359e-17
7575.45 9.5092e-17
7576.975 9.2671e-17
7578.5 8.9138e-17
7580.025 9.3179e-17
7581.55 9.3498e-17
7583.075 8.3493e-17
7584.6 9.2048e-17
7586.125 9.739e-17
7587.65 9.1594e-17
7589.175 8.8714e-17
7590.7 7.584e-17
7592.225 5.9369e-17
7593.75 4.655e-17
7595.275 4.4015e-17
7596.8 5.3172e-17
7598.325 5.7669e-17
7599.85 8.4978e-17
7601.375 1.0874e-16
7602.9 1.0637e-16
7604.425 8.9555e-17
7605.95 1.132e-16
7607.475 2.2249e-16
7609.0 2.5814e-16
7610.525 2.6713e-16
7612.05 3.0326e-16
7613.575 3.0095e-16
7615.1 2.516e-16
7616.625 1.8146e-16
7618.15 1.2741e-16
7619.675 8.2769e-17
7621.2 7.0153e-17
7622.725 6.6063e-17
7624.25 6.4159e-17
7625.775 8.0421e-17
7627.3 1.1427e-16
7628.825 1.3534e-16
7630.35 1.3732e-16
7631.875 1.2406e-16
7633.4 1.1749e-16
7634.925 1.2474e-16
7636.45 1.2911e-16
7637.975 1.3187e-16
7639.5 1.1647e-16
7641.025 1.0091e-16
7642.55 1.1512e-16
7644.075 1.219e-16
7645.6 1.2035e-16
7647.125 1.2212e-16
7648.65 1.2558e-16
7650.175 1.2843e-16
7651.7 1.1846e-16
7653.225 1.0383e-16
7654.75 1.0562e-16
7656.275 1.0941e-16
7657.8 1.1366e-16
7659.325 1.1178e-16
7660.85 1.076e-16
7662.375 1.0573e-16
7663.9 9.5679e-17
7665.425 8.6177e-17
7666.95 9.2434e-17
7668.475 1.0612e-16
7670.0 9.8272e-17
7671.525 9.0483e-17
7673.05 9.7283e-17
7674.575 9.394e-17
7676.1 9.1456e-17
7677.625 9.5048e-17
7679.15 9.4301e-17
7680.675 9.1515e-17
7682.2 9.1575e-17
7683.725 9.1072e-17
7685.25 8.7448e-17
7686.775 8.0323e-17
7688.3 7.8302e-17
7689.825 9.1773e-17
7691.35 9.6808e-17
7692.875 9.0572e-17
7694.4 8.2367e-17
7695.925 7.9098e-17
7697.45 8.1852e-17
7698.975 8.6559e-17
7700.5 9.2506e-17
7702.025 9.1987e-17
7703.55 9.7462e-17
7705.075 9.3451e-17
7706.6 8.4303e-17
7708.125 8.1896e-17
7709.65 8.5858e-17
7711.175 8.6252e-17
7712.7 9.3363e-17
7714.225 8.6643e-17
7715.75 7.6726e-17
7717.275 8.5837e-17
7718.8 8.1827e-17
7720.325 8.4538e-17
7721.85 8.468e-17
7723.375 8.1345e-17
7724.9 8.2858e-17
7726.425 7.8752e-17
7727.95 7.1959e-17
7729.475 7.8475e-17
7731.0 9.1889e-17
7732.525 8.7529e-17
7734.05 6.8663e-17
7735.575 6.8866e-17
7737.1 7.6785e-17
7738.625 7.9711e-17
7740.15 7.9941e-17
7741.675 7.7704e-17
7743.2 6.969e-17
7744.725 6.8519e-17
7746.25 7.7867e-17
7747.775 8.5614e-17
7749.3 8.3328e-17
7750.825 8.4894e-17
7752.35 7.6484e-17
7753.875 7.0276e-17
7755.4 7.7557e-17
7756.925 8.8542e-17
7758.45 8.3747e-17
7759.975 6.5672e-17
7761.5 6.1417e-17
7763.025 6.9839e-17
7764.55 8.1119e-17
7766.075 8.2413e-17
7767.6 7.408e-17
7769.125 8.1633e-17
7770.65 9.5302e-17
7772.175 8.8775e-17
7773.7 8.0558e-17
7775.225 7.5202e-17
7776.75 6.7688e-17
7778.275 6.8856e-17
7779.8 7.3512e-17
7781.325 8.1522e-17
7782.85 7.8912e-17
7784.375 7.3619e-17
7785.9 7.8135e-17
7787.425 8.1061e-17
7788.95 8.1985e-17
7790.475 8.5171e-17
7792.0 8.7541e-17
7793.525 8.1598e-17
7795.05 6.3326e-17
7796.575 6.2334e-17
7798.1 7.4145e-17
7799.625 7.1652e-17
7801.15 6.8302e-17
7802.675 7.2711e-17
7804.2 8.0921e-17
7805.725 7.8121e-17
7807.25 7.4985e-17
7808.775 7.9978e-17
7810.3 7.4455e-17
7811.825 7.1212e-17
7813.35 7.29e-17
7814.875 7.4154e-17
7816.4 8.2809e-17
7817.925 8.4666e-17
7819.45 8.2611e-17
7820.975 9.2886e-17
7822.5 8.5258e-17
7824.025 6.9264e-17
7825.55 6.3121e-17
7827.075 6.9382e-17
7828.6 7.1396e-17
7830.125 6.8214e-17
7831.65 6.3361e-17
7833.175 6.8996e-17
7834.7 7.4143e-17
7836.225 6.6177e-17
7837.75 6.5253e-17
7839.275 7.7369e-17
7840.8 8.0979e-17
7842.325 7.0849e-17
7843.85 7.3295e-17
7845.375 7.9366e-17
7846.9 7.6922e-17
7848.425 6.7171e-17
7849.95 7.746e-17
7851.475 7.3105e-17
7853.0 6.2946e-17
7854.525 7.0956e-17
7856.05 7.6868e-17
7857.575 8.3887e-17
7859.1 7.583e-17
7860.625 6.485e-17
7862.15 7.3496e-17
7863.675 7.7257e-17
7865.2 8.1536e-17
7866.725 7.6976e-17
7868.25 7.4764e-17
7869.775 7.486e-17
7871.3 7.2353e-17
7872.825 6.3947e-17
7874.35 6.029e-17
7875.875 6.918e-17
7877.4 7.3295e-17
7878.925 6.7455e-17
7880.45 6.7709e-17
7881.975 7.7448e-17
7883.5 6.9306e-17
7885.025 6.4399e-17
7886.55 6.3645e-17
7888.075 6.2304e-17
7889.6 7.2246e-17
7891.125 7.0882e-17
7892.65 6.8624e-17
7894.175 7.131e-17
7895.7 7.131e-17
7897.225 6.6377e-17
7898.75 6.422e-17
7900.275 6.6643e-17
7901.8 7.3382e-17
7903.325 7.844e-17
7904.85 7.8528e-17
7906.375 7.9077e-17
7907.9 8.3887e-17
7909.425 7.9641e-17
7910.95 7.8861e-17
7912.475 7.59e-17
7914.0 7.5381e-17
7915.525 7.9683e-17
7917.05 7.7979e-17
7918.575 7.6894e-17
7920.1 6.975e-17
7921.625 7.5109e-17
7923.15 7.9673e-17
7924.675 6.7025e-17
7926.2 6.9427e-17
7927.725 7.9124e-17
7929.25 8.3405e-17
7930.775 9.063e-17
7932.3 8.1359e-17
7933.825 6.2483e-17
7935.35 6.5253e-17
7936.875 7.4443e-17
7938.4 7.7429e-17
7939.925 7.3409e-17
7941.45 6.5511e-17
7942.975 7.0788e-17
7944.5 7.5046e-17
7946.025 7.3132e-17
7947.55 7.1764e-17
7949.075 6.6794e-17
7950.6 6.7928e-17
7952.125 6.6389e-17
7953.65 6.4541e-17
7955.175 6.8016e-17
7956.7 7.4264e-17
7958.225 6.7083e-17
7959.75 6.7267e-17
7961.275 9.1279e-17
7962.8 8.87e-17
7964.325 7.7695e-17
7965.85 7.3118e-17
7967.375 8.0109e-17
7968.9 8.7127e-17
7970.425 8.2725e-17
7971.95 7.2872e-17
7973.475 6.8649e-17
7975.0 7.3996e-17
7976.525 7.3205e-17
7978.05 6.8922e-17
7979.575 6.79e-17
7981.1 7.215e-17
7982.625 7.0139e-17
7984.15 7.1443e-17
7985.675 8.1612e-17
7987.2 8.3202e-17
7988.725 7.8191e-17
7990.25 7.4797e-17
7991.775 6.9261e-17
7993.3 7.8528e-17
7994.825 8.0372e-17
7996.35 7.6824e-17
7997.875 7.351e-17
7999.4 7.6482e-17
8000.925 6.6878e-17
8002.45 6.4934e-17
8003.975 6.7869e-17
8005.5 7.0586e-17
8007.025 8.1859e-17
8008.55 8.4825e-17
8010.075 8.1079e-17
8011.6 7.5902e-17
8013.125 7.6922e-17
8014.65 8.1633e-17
8016.175 7.9885e-17
8017.7 7.6817e-17
8019.225 7.8319e-17
8020.75 7.6589e-17
8022.275 8.0777e-17
8023.8 8.2692e-17
8025.325 7.968e-17
8026.85 8.2879e-17
8028.375 7.8463e-17
8029.9 8.3365e-17
8031.425 8.1117e-17
8032.95 6.8926e-17
8034.475 6.7732e-17
8036.0 7.6249e-17
8037.525 7.999e-17
8039.05 7.4387e-17
8040.575 7.1908e-17
8042.1 6.7832e-17
8043.625 7.1885e-17
8045.15 7.4764e-17
8046.675 7.9296e-17
8048.2 8.6626e-17
8049.725 7.9813e-17
8051.25 7.9022e-17
8052.775 7.9289e-17
8054.3 7.1147e-17
8055.825 6.9662e-17
8057.35 7.4492e-17
8058.875 7.7846e-17
8060.4 8.3381e-17
8061.925 9.4985e-17
8063.45 9.5732e-17
8064.975 8.0016e-17
8066.5 7.3668e-17
8068.025 7.8952e-17
8069.55 8.4434e-17
8071.075 8.35e-17
8072.6 8.263e-17
8074.125 8.1382e-17
8075.65 7.1782e-17
8077.175 6.9173e-17
8078.7 7.526e-17
8080.225 7.7495e-17
8081.75 7.7644e-17
8083.275 8.2499e-17
8084.8 8.2397e-17
8086.325 7.9671e-17
8087.85 7.7253e-17
8089.375 7.3638e-17
8090.9 7.2723e-17
8092.425 7.489e-17
8093.95 7.7434e-17
8095.475 7.6182e-17
8097.0 7.2823e-17
8098.525 7.8079e-17
8100.05 8.3626e-17
8101.575 8.3363e-17
8103.1 8.276e-17
8104.625 7.6005e-17
8106.15 7.2076e-17
8107.675 7.2222e-17
8109.2 7.1103e-17
8110.725 7.9322e-17
8112.25 7.7057e-17
8113.775 8.1268e-17
8115.3 8.184e-17
8116.825 7.7967e-17
8118.35 8.0123e-17
8119.875 8.6179e-17
8121.4 8.3663e-17
8122.925 8.4313e-17
8124.45 8.1419e-17
8125.975 7.8351e-17
8127.5 8.195e-17
8129.025 8.2632e-17
8130.55 7.4964e-17
8132.075 7.2001e-17
8133.6 7.6212e-17
8135.125 7.7746e-17
8136.65 7.4494e-17
8138.175 8.4925e-17
8139.7 8.553e-17
8141.225 7.8374e-17
8142.75 8.0262e-17
8144.275 8.5155e-17
8145.8 9.411e-17
8147.325 9.381e-17
8148.85 8.4394e-17
8150.375 8.363e-17
8151.9 8.6535e-17
8153.425 8.4475e-17
8154.95 7.4976e-17
8156.475 7.8891e-17
8158.0 8.0483e-17
8159.525 6.9452e-17
8161.05 7.2462e-17
8162.575 8.6238e-17
8164.1 9.8488e-17
8165.625 9.6873e-17
8167.15 8.5288e-17
8168.675 8.1664e-17
8170.2 8.8046e-17
8171.725 9.6019e-17
8173.25 9.0707e-17
8174.775 7.5202e-17
8176.3 6.7662e-17
8177.825 7.6764e-17
8179.35 8.8572e-17
8180.875 9.1484e-17
8182.4 9.2685e-17
8183.925 9.3167e-17
8185.45 8.0556e-17
8186.975 7.0106e-17
8188.5 7.4459e-17
8190.025 6.8563e-17
8191.55 7.0577e-17
8193.075 8.5416e-17
8194.6 9.3311e-17
8196.125 8.5407e-17
8197.65 8.4098e-17
8199.175 9.3987e-17
8200.7 1.0049e-16
8202.225 9.238e-17
8203.75 8.0958e-17
8205.275 7.8205e-17
8206.8 7.6566e-17
8208.325 7.503e-17
8209.85 7.9036e-17
8211.375 8.3025e-17
8212.9 7.8393e-17
8214.425 7.5497e-17
8215.95 7.0951e-17
8217.475 7.5665e-17
8219.0 8.0134e-17
8220.525 7.2581e-17
8222.05 7.6466e-17
8223.575 7.9394e-17
8225.1 6.5595e-17
8226.625 6.4401e-17
8228.15 7.9254e-17
8229.675 9.0812e-17
8231.2 1.0669e-16
8232.725 1.2111e-16
8234.25 1.1064e-16
8235.775 9.0795e-17
8237.3 8.4771e-17
8238.825 8.6349e-17
8240.35 8.1035e-17
8241.875 7.5798e-17
8243.4 8.9275e-17
8244.925 9.9012e-17
8246.45 9.978e-17
8247.975 9.4324e-17
8249.5 8.1645e-17
8251.025 7.7767e-17
8252.55 7.9026e-17
8254.075 7.9217e-17
8255.6 8.1319e-17
8257.125 8.1254e-17
8258.65 9.066e-17
8260.175 8.9138e-17
8261.7 8.2704e-17
8263.225 8.955e-17
8264.75 8.5625e-17
8266.275 7.614e-17
8267.8 7.9608e-17
8269.325 7.9084e-17
8270.85 7.1661e-17
8272.375 6.3361e-17
8273.9 6.3379e-17
8275.425 6.8393e-17
8276.95 6.6889e-17
8278.475 7.4352e-17
8280.0 8.3218e-17
8281.525 7.8894e-17
8283.05 7.867e-17
8284.575 7.9801e-17
8286.1 7.432e-17
8287.625 7.2937e-17
8289.15 8.0332e-17
8290.675 8.2446e-17
8292.2 7.2367e-17
8293.725 6.7818e-17
8295.25 8.6533e-17
8296.775 1.0629e-16
8298.3 9.7702e-17
8299.825 8.7241e-17
8301.35 7.8868e-17
8302.875 7.272e-17
8304.4 7.4536e-17
8305.925 8.3093e-17
8307.45 7.9757e-17
8308.975 8.0763e-17
8310.5 8.4096e-17
8312.025 7.1866e-17
8313.55 6.8761e-17
8315.075 7.1159e-17
8316.6 7.2306e-17
8318.125 7.0281e-17
8319.65 6.8226e-17
8321.175 7.5628e-17
8322.7 8.6463e-17
8324.225 8.2811e-17
8325.75 7.631e-17
8327.275 7.2683e-17
8328.8 6.763e-17
8330.325 7.5386e-17
8331.85 8.0916e-17
8333.375 7.8661e-17
8334.9 7.6934e-17
8336.425 7.8854e-17
8337.95 6.5858e-17
8339.475 4.421e-17
8341.0 7.0414e-17
8342.525 9.1296e-17
8344.05 8.1619e-17
8345.575 6.7911e-17
8347.1 5.3759e-17
8348.625 5.7441e-17
8350.15 7.0302e-17
8351.675 7.6505e-17
8353.2 8.1291e-17
8354.725 7.0053e-17
8356.25 7.1689e-17
8357.775 7.6577e-17
8359.3 8.138e-17
8360.825 7.9578e-17
8362.35 8.1424e-17
8363.875 8.3323e-17
8365.4 7.056e-17
8366.925 6.7427e-17
8368.45 7.0176e-17
8369.975 7.0637e-17
8371.5 7.8014e-17
8373.025 7.0509e-17
8374.55 6.2397e-17
8376.075 7.3021e-17
8377.6 9.3663e-17
8379.125 8.7983e-17
8380.65 7.7313e-17
8382.175 7.9378e-17
8383.7 7.5386e-17
8385.225 7.4815e-17
8386.75 6.9604e-17
8388.275 6.3563e-17
8389.8 6.9771e-17
8391.325 7.4687e-17
8392.85 7.2553e-17
8394.375 7.7958e-17
8395.9 7.718e-17
8397.425 6.0712e-17
8398.95 6.1322e-17
8400.475 6.2248e-17
8402.0 6.138e-17
8403.525 7.603e-17
8405.05 8.2329e-17
8406.575 7.685e-17
8408.1 6.5716e-17
8409.625 6.9881e-17
8411.15 8.3305e-17
8412.675 7.5169e-17
8414.2 6.314e-17
8415.725 6.4594e-17
8417.25 6.5174e-17
8418.775 5.8412e-17
8420.3 5.8524e-17
8421.825 6.4071e-17
8423.35 6.1473e-17
8424.875 6.5898e-17
8426.4 8.1587e-17
8427.925 9.0081e-17
8429.45 8.0339e-17
8430.975 5.8882e-17
8432.5 5.7786e-17
8434.025 6.2811e-17
8435.55 6.3784e-17
8437.075 5.4532e-17
8438.6 5.5577e-17
8440.125 6.2025e-17
8441.65 6.6771e-17
8443.175 6.073e-17
8444.7 6.043e-17
8446.225 6.9569e-17
8447.75 7.7434e-17
8449.275 6.7511e-17
8450.8 6.3268e-17
8452.325 5.9217e-17
8453.85 5.5065e-17
8455.375 6.2329e-17
8456.9 5.779e-17
8458.425 6.2744e-17
8459.95 6.9594e-17
8461.475 7.3945e-17
8463.0 7.1235e-17
8464.525 6.9317e-17
8466.05 5.9876e-17
8467.575 5.0491e-17
8469.1 5.4334e-17
8470.625 5.7381e-17
8472.15 5.6396e-17
8473.675 5.3694e-17
8475.2 5.4681e-17
8476.725 5.3184e-17
8478.25 4.5863e-17
8479.775 5.2958e-17
8481.3 6.1119e-17
8482.825 6.0179e-17
8484.35 5.5642e-17
8485.875 5.4983e-17
8487.4 5.9704e-17
8488.925 6.2804e-17
8490.45 5.7851e-17
8491.975 5.5828e-17
8493.5 5.7681e-17
8495.025 5.4632e-17
8496.55 4.9797e-17
8498.075 5.0935e-17
8499.6 5.9166e-17
8501.125 5.6636e-17
8502.65 5.5956e-17
8504.175 6.4583e-17
8505.7 6.2865e-17
8507.225 5.4722e-17
8508.75 5.4857e-17
8510.275 5.8896e-17
8511.8 5.7725e-17
8513.325 5.5048e-17
8514.85 5.5716e-17
8516.375 5.6904e-17
8517.9 5.5221e-17
8519.425 5.4262e-17
8520.95 5.6215e-17
8522.475 6.0083e-17
8524.0 6.3566e-17
8525.525 6.2025e-17
8527.05 6.2255e-17
8528.575 6.4757e-17
8530.1 6.6885e-17
8531.625 6.7977e-17
8533.15 6.0393e-17
8534.675 5.7537e-17
8536.2 6.2714e-17
8537.725 6.2222e-17
8539.25 5.685e-17
8540.775 5.9643e-17
8542.3 6.0202e-17
8543.825 6.4455e-17
8545.35 6.5863e-17
8546.875 6.8987e-17
8548.4 6.4008e-17
8549.925 5.9196e-17
8551.45 6.036e-17
8552.975 5.868e-17
8554.5 5.9783e-17
8556.025 5.8249e-17
8557.55 5.7202e-17
8559.075 5.9061e-17
8560.6 6.0418e-17
8562.125 5.7914e-17
8563.65 6.2942e-17
8565.175 6.6889e-17
8566.7 7.692e-17
8568.225 6.8114e-17
8569.75 6.158e-17
8571.275 6.2849e-17
8572.8 5.9047e-17
8574.325 6.0069e-17
8575.85 6.5258e-17
8577.375 6.5297e-17
8578.9 6.8866e-17
8580.425 7.1561e-17
8581.95 6.8933e-17
8583.475 6.5865e-17
8585.0 6.8933e-17
8586.525 6.4962e-17
8588.05 6.0262e-17
8589.575 6.313e-17
8591.1 6.6945e-17
8592.625 5.9748e-17
8594.15 5.9499e-17
8595.675 6.8607e-17
8597.2 6.54e-17
8598.725 6.2397e-17
8600.25 6.3803e-17
8601.775 6.8714e-17
8603.3 7.3319e-17
8604.825 7.7301e-17
8606.35 7.1894e-17
8607.875 6.2895e-17
8609.4 6.1959e-17
8610.925 6.8782e-17
8612.45 7.4031e-17
8613.975 7.0807e-17
8615.5 6.8966e-17
8617.025 7.1985e-17
8618.55 7.202e-17
8620.075 6.9808e-17
8621.6 7.2388e-17
8623.125 8.3172e-17
8624.65 8.5355e-17
8626.175 7.6733e-17
8627.7 7.1496e-17
8629.225 8.0144e-17
8630.75 8.7711e-17
8632.275 7.3251e-17
8633.8 6.6789e-17
8635.325 7.5192e-17
8636.85 8.455e-17
8638.375 8.3782e-17
8639.9 7.1349e-17
8641.425 6.7965e-17
8642.95 6.6692e-17
8644.475 6.6224e-17
8646.0 7.2066e-17
8647.525 6.8838e-17
8649.05 7.2693e-17
8650.575 7.8956e-17
8652.1 6.4674e-17
8653.625 6.4306e-17
8655.15 8.9701e-17
8656.675 9.1407e-17
8658.2 7.887e-17
8659.725 6.4143e-17
8661.25 6.6775e-17
8662.775 7.4874e-17
8664.3 7.7916e-17
8665.825 7.1554e-17
8667.35 7.3577e-17
8668.875 6.7495e-17
8670.4 6.485e-17
8671.925 7.0544e-17
8673.45 7.4396e-17
8674.975 7.7725e-17
8676.5 8.0861e-17
8678.025 8.3102e-17
8679.55 7.6908e-17
8681.075 7.7208e-17
8682.6 8.0774e-17
8684.125 8.2921e-17
8685.65 7.9448e-17
8687.175 7.9122e-17
8688.7 7.7467e-17
8690.225 7.3032e-17
8691.75 6.6976e-17
8693.275 6.789e-17
8694.8 7.2564e-17
8696.325 8.1338e-17
8697.85 7.34e-17
8699.375 7.2353e-17
8700.9 8.2453e-17
8702.425 9.0835e-17
8703.95 9.0467e-17
8705.475 8.3889e-17
8707.0 8.1698e-17
8708.525 7.8381e-17
8710.05 7.2911e-17
8711.575 7.2029e-17
8713.1 7.4864e-17
8714.625 7.4459e-17
8716.15 7.2143e-17
8717.675 7.1084e-17
8719.2 7.4899e-17
8720.725 7.7234e-17
8722.25 7.2942e-17
8723.775 7.8186e-17
8725.3 8.0854e-17
8726.825 7.799e-17
8728.35 7.8237e-17
8729.875 7.5325e-17
8731.4 7.8842e-17
8732.925 7.9722e-17
8734.45 7.8281e-17
8735.975 8.2888e-17
8737.5 7.8942e-17
8739.025 7.5961e-17
8740.55 8.3181e-17
8742.075 8.3165e-17
8743.6 7.3924e-17
8745.125 7.235e-17
8746.65 7.4324e-17
8748.175 7.7604e-17
8749.7 7.5733e-17
8751.225 7.3402e-17
8752.75 8.0849e-17
8754.275 7.8009e-17
8755.8 7.1573e-17
8757.325 7.7832e-17
8758.85 7.8707e-17
8760.375 6.2602e-17
8761.9 5.7099e-17
8763.425 6.6799e-17
8764.95 7.5374e-17
8766.475 8.5104e-17
8768.0 9.9561e-17
8769.525 8.5516e-17
8771.05 6.327e-17
8772.575 7.2862e-17
8774.1 8.2527e-17
8775.625 6.4466e-17
8777.15 5.831e-17
8778.675 7.7786e-17
8780.2 6.8035e-17
8781.725 6.6331e-17
8783.25 6.7222e-17
8784.775 6.3514e-17
8786.3 7.1508e-17
8787.825 7.2376e-17
8789.35 7.0635e-17
8790.875 7.253e-17
8792.4 7.3717e-17
8793.925 7.5847e-17
8795.45 7.6868e-17
8796.975 7.3451e-17
8798.5 7.1976e-17
8800.025 6.9664e-17
8801.55 7.0011e-17
8803.075 7.1922e-17
8804.6 6.5502e-17
8806.125 6.4841e-17
8807.65 6.9336e-17
8809.175 7.1761e-17
8810.7 7.3603e-17
8812.225 7.3049e-17
8813.75 7.5348e-17
8815.275 6.6955e-17
8816.8 6.5144e-17
8818.325 6.705e-17
8819.85 7.6159e-17
8821.375 1.1196e-16
8822.9 1.2535e-16
8824.425 1.0885e-16
8825.95 1.03e-16
8827.475 9.6414e-17
8829.0 6.9599e-17
8830.525 5.1259e-17
8832.05 6.4331e-17
8833.575 7.0372e-17
8835.1 5.3084e-17
8836.625 5.4983e-17
8838.15 6.2094e-17
8839.675 6.3675e-17
8841.2 6.1073e-17
8842.725 6.0498e-17
8844.25 7.07e-17
8845.775 7.3016e-17
8847.3 7.2788e-17
8848.825 6.8733e-17
8850.35 6.0269e-17
8851.875 5.5214e-17
8853.4 5.7232e-17
8854.925 6.1997e-17
8856.45 6.2583e-17
8857.975 6.235e-17
8859.5 6.3014e-17
8861.025 6.5027e-17
8862.55 7.2809e-17
8864.075 6.8682e-17
8865.6 5.5393e-17
8867.125 5.8722e-17
8868.65 5.797e-17
8870.175 5.993e-17
8871.7 6.236e-17
8873.225 5.8275e-17
8874.75 5.7218e-17
8876.275 6.1552e-17
8877.8 5.5381e-17
8879.325 5.8093e-17
8880.85 7.6415e-17
8882.375 6.9943e-17
8883.9 6.3756e-17
8885.425 7.5488e-17
8886.95 7.3633e-17
8888.475 5.6478e-17
8890.0 5.2255e-17
8891.525 5.3121e-17
8893.05 5.6901e-17
8894.575 6.0009e-17
8896.1 5.9096e-17
8897.625 5.8719e-17
8899.15 5.1378e-17
8900.675 5.6175e-17
8902.2 5.8361e-17
8903.725 6.4769e-17
8905.25 5.78e-17
8906.775 4.7886e-17
8908.3 4.8663e-17
8909.825 4.7274e-17
8911.35 3.9122e-17
8912.875 3.365e-17
8914.4 6.7239e-17
8915.925 7.3577e-17
8917.45 7.7814e-17
8918.975 7.1941e-17
8920.5 6.9417e-17
8922.025 5.1543e-17
8923.55 3.7495e-17
8925.075 4.9373e-17
8926.6 4.8447e-17
8928.125 4.3072e-17
8929.65 4.0416e-17
8931.175 4.1922e-17
8932.7 4.3177e-17
8934.225 3.8668e-17
8935.75 3.5372e-17
8937.275 3.9085e-17
8938.8 4.4062e-17
8940.325 4.9357e-17
8941.85 5.5675e-17
8943.375 5.4445e-17
8944.9 4.1911e-17
8946.425 3.6941e-17
8947.95 3.8442e-17
8949.475 3.6001e-17
8951.0 3.2141e-17
8952.525 4.0419e-17
8954.05 5.0744e-17
8955.575 3.9546e-17
8957.1 3.0402e-17
8958.625 2.5102e-17
8960.15 1.8186e-17
8961.675 2.1606e-17
8963.2 2.9783e-17
8964.725 3.9271e-17
8966.25 4.7988e-17
8967.775 4.2642e-17
8969.3 3.5035e-17
8970.825 3.2106e-17
8972.35 3.54e-17
8973.875 4.5e-17
8975.4 4.3275e-17
8976.925 4.0309e-17
8978.45 3.8035e-17
8979.975 3.4148e-17
8981.5 3.5342e-17
8983.025 4.1715e-17
8984.55 3.5798e-17
8986.075 1.7108e-17
8987.6 2.3736e-17
8989.125 4.087e-17
8990.65 4.2914e-17
8992.175 4.4241e-17
8993.7 4.5263e-17
8995.225 4.0221e-17
8996.75 3.7383e-17
8998.275 2.149e-17
8999.8 2.1065e-17
9001.325 2.6057e-17
9002.85 1.9245e-17
9004.375 1.8117e-17
9005.9 3.2888e-17
9007.425 3.0414e-17
9008.95 2.8952e-17
9010.475 2.9399e-17
9012.0 3.2002e-17
9013.525 3.1543e-17
9015.05 2.9332e-17
9016.575 2.8824e-17
9018.1 3.0456e-17
9019.625 2.861e-17
9021.15 2.3512e-17
9022.675 1.9789e-17
9024.2 2.4213e-17
9025.725 2.8882e-17
9027.25 2.6585e-17
9028.775 2.7286e-17
9030.3 3.1257e-17
9031.825 2.6382e-17
9033.35 2.2164e-17
9034.875 2.4104e-17
9036.4 2.7104e-17
9037.925 2.6957e-17
9039.45 2.3759e-17
9040.975 2.5056e-17
9042.5 2.3415e-17
9044.025 2.3349e-17
9045.55 2.7341e-17
9047.075 2.3331e-17
9048.6 2.1768e-17
9050.125 2.7034e-17
9051.65 2.7046e-17
9053.175 2.5575e-17
9054.7 2.489e-17
9056.225 2.2605e-17
9057.75 2.3027e-17
9059.275 2.3107e-17
9060.8 2.5004e-17
9062.325 2.3843e-17
9063.85 1.7049e-17
9065.375 1.7091e-17
9066.9 1.918e-17
9068.425 1.616e-17
9069.95 1.4763e-17
9071.475 1.7549e-17
9073.0 1.9558e-17
9074.525 2.0528e-17
9076.05 2.1742e-17
9077.575 2.1956e-17
9079.1 2.1776e-17
9080.625 1.9431e-17
9082.15 1.2388e-17
9083.675 1.4201e-17
9085.2 1.9818e-17
9086.725 2.2756e-17
9088.25 2.4693e-17
9089.775 2.865e-17
9091.3 2.8487e-17
9092.825 2.6224e-17
9094.35 2.8168e-17
9095.875 2.48e-17
9097.4 2.7767e-17
9098.925 3.0277e-17
9100.45 2.4883e-17
9101.975 2.5738e-17
9103.5 2.9543e-17
9105.025 2.6527e-17
9106.55 2.4038e-17
9108.075 2.8517e-17
9109.6 3.2262e-17
9111.125 2.4504e-17
9112.65 1.8617e-17
9114.175 1.6741e-17
9115.7 2.1129e-17
9117.225 1.8346e-17
9118.75 2.6557e-17
9120.275 3.1406e-17
9121.8 2.7809e-17
9123.325 2.4748e-17
9124.85 2.0957e-17
9126.375 1.6783e-17
9127.9 1.3565e-17
9129.425 1.2704e-17
9130.95 1.7558e-17
9132.475 2.1412e-17
9134.0 2.2329e-17
9135.525 2.0422e-17
9137.05 2.6403e-17
9138.575 3.3968e-17
9140.1 2.5868e-17
9141.625 1.5613e-17
9143.15 1.4079e-17
9144.675 1.9691e-17
9146.2 2.2428e-17
9147.725 1.8623e-17
9149.25 1.6776e-17
9150.775 1.9254e-17
9152.3 1.8848e-17
9153.825 1.8173e-17
9155.35 2.0465e-17
9156.875 2.3806e-17
9158.4 3.0668e-17
9159.925 2.7372e-17
9161.45 2.1585e-17
9162.975 2.5912e-17
9164.5 2.8931e-17
9166.025 2.4683e-17
9167.55 2.0193e-17
9169.075 1.8885e-17
9170.6 1.7015e-17
9172.125 1.4451e-17
9173.65 1.5871e-17
9175.175 2.1372e-17
9176.7 2.7996e-17
9178.225 3.4907e-17
9179.75 3.1366e-17
9181.275 1.9121e-17
9182.8 1.4986e-17
9184.325 1.6841e-17
9185.85 1.7683e-17
9187.375 2.147e-17
9188.9 2.4695e-17
9190.425 2.3547e-17
9191.95 2.1966e-17
9193.475 2.0943e-17
9195.0 1.955e-17
9196.525 2.1061e-17
9198.05 2.7975e-17
9199.575 2.649e-17
9201.1 2.1731e-17
9202.625 2.4087e-17
9204.15 2.2958e-17
9205.675 1.9943e-17
9207.2 2.2585e-17
9208.725 1.9678e-17
9210.25 1.8661e-17
9211.775 2.0317e-17
9213.3 2.4311e-17
9214.825 2.6964e-17
9216.35 2.7868e-17
9217.875 2.3491e-17
9219.4 2.0387e-17
9220.925 1.8196e-17
9222.45 2.1882e-17
9223.975 2.8875e-17
9225.5 2.7751e-17
9227.025 2.0137e-17
9228.55 2.0873e-17
9230.075 2.4779e-17
9231.6 2.9194e-17
9233.125 2.3573e-17
9234.65 1.6978e-17
9236.175 2.2521e-17
9237.7 2.8447e-17
9239.225 2.3878e-17
9240.75 2.2821e-17
9242.275 2.2772e-17
9243.8 2.0582e-17
9245.325 2.0736e-17
9246.85 2.8692e-17
9248.375 2.3085e-17
9249.9 1.7359e-17
9251.425 1.9462e-17
9252.95 1.8901e-17
9254.475 2.1511e-17
9256.0 2.8268e-17
9257.525 2.9362e-17
9259.05 2.2779e-17
9260.575 1.9987e-17
9262.1 2.0852e-17
9263.625 2.1951e-17
9265.15 2.3305e-17
9266.675 2.4024e-17
9268.2 2.5063e-17
9269.725 2.6091e-17
9271.25 2.4802e-17
9272.775 1.8223e-17
9274.3 1.2585e-17
9275.825 1.5233e-17
9277.35 2.0099e-17
9278.875 2.5845e-17
9280.4 2.8964e-17
9281.925 2.3018e-17
9283.45 2.1866e-17
9284.975 2.5237e-17
9286.5 2.6773e-17
9288.025 2.8638e-17
9289.55 2.7125e-17
9291.075 2.4388e-17
9292.6 2.2822e-17
9294.125 2.2882e-17
9295.65 2.1849e-17
9297.175 2.1558e-17
9298.7 2.0495e-17
9300.225 2.2285e-17
9301.75 2.7698e-17
9303.275 2.5568e-17
9304.8 1.9187e-17
9306.325 1.2199e-17
9307.85 1.4018e-17
9309.375 2.2581e-17
9310.9 5.3095e-17
9312.425 1.0627e-16
9313.95 1.1378e-16
9315.475 1.6067e-17
9317.0 1.0942e-17
9318.525 6.6424e-17
9320.05 7.4196e-17
9321.575 2.6636e-17
9323.1 2.2871e-17
9324.625 3.3054e-17
9326.15 3.6387e-17
9327.675 4.1866e-17
9329.2 3.3701e-17
9330.725 2.4378e-17
9332.25 2.1494e-17
9333.775 1.6572e-17
9335.3 2.0397e-17
9336.825 4.9581e-17
9338.35 5.4734e-17
9339.875 2.1005e-17
9341.4 1.3083e-17
9342.925 2.4241e-17
9344.45 5.3356e-17
9345.975 7.6068e-17
9347.5 5.9408e-17
9349.025 3.6029e-17
9350.55 1.9307e-17
9352.075 1.455e-17
9353.6 2.1041e-17
9355.125 1.8043e-17
9356.65 3.6292e-17
9358.175 5.8349e-17
9359.7 6.8966e-17
9361.225 6.398e-17
9362.75 3.59e-17
9364.275 1.6103e-17
9365.8 2.0374e-17
9367.325 3.364e-17
9368.85 5.5267e-17
9370.375 1.743e-16
9371.9 2.3443e-16
9373.425 1.3278e-16
9374.95 5.0367e-17
9376.475 5.1312e-16
9378.0 5.1308e-16
9379.525 4.7821e-17
9381.05 2.571e-17
9382.575 7.7685e-17
9384.1 5.013e-17
9385.625 3.8403e-17
9387.15 4.4543e-17
9388.675 4.9206e-17
9390.2 4.4215e-17
9391.725 3.6573e-17
9393.25 3.3608e-17
9394.775 3.1776e-17
9396.3 3.307e-17
9397.825 3.5747e-17
9399.35 4.1559e-17
9400.875 5.2718e-17
9402.4 4.7288e-17
9403.925 3.0491e-17
9405.45 2.4604e-17
9406.975 2.6129e-17
9408.5 3.1545e-17
9410.025 4.057e-17
9411.55 4.7108e-17
9413.075 5.1554e-17
9414.6 4.3482e-17
9416.125 3.3277e-17
9417.65 3.5959e-17
9419.175 5.4066e-17
9420.7 5.1692e-17
9422.225 3.1622e-17
9423.75 2.4097e-17
9425.275 1.87e-17
9426.8 1.9078e-17
9428.325 4.0218e-17
9429.85 8.4133e-17
9431.375 7.3998e-17
9432.9 3.5921e-17
9434.425 3.2609e-17
9435.95 4.2721e-17
9437.475 2.9737e-17
9439.0 -1.8731e-18
9440.525 -3.178e-17
9442.05 -4.5803e-17
9443.575 3.7979e-17
9445.1 6.3884e-17
9446.625 4.8375e-17
9448.15 3.5214e-17
9449.675 2.733e-17
9451.2 2.4841e-17
9452.725 3.8235e-17
9454.25 5.7502e-17
9455.775 4.8496e-17
9457.3 4.5258e-17
9458.825 3.1964e-17
9460.35 2.2958e-17
9461.875 4.1373e-17
9463.4 5.685e-17
9464.925 4.0349e-17
9466.45 2.9436e-17
9467.975 3.128e-17
9469.5 4.3272e-17
9471.025 5.1361e-17
9472.55 5.5321e-17
9474.075 4.9748e-17
9475.6 4.7919e-17
9477.125 3.3924e-17
9478.65 2.0068e-18
9480.175 1.2424e-17
9481.7 5.2777e-17
9483.225 8.0381e-17
9484.75 6.1389e-17
9486.275 3.8892e-17
9487.8 3.4786e-17
9489.325 3.0179e-17
9490.85 2.3123e-17
9492.375 2.0041e-17
9493.9 2.0576e-17
9495.425 3.5174e-17
9496.95 5.5041e-17
9498.475 6.5905e-17
9500.0 6.3836e-17
9501.525 6.4166e-17
9503.05 6.6855e-17
9504.575 3.9427e-17
9506.1 2.7893e-17
9507.625 3.2758e-17
9509.15 3.483e-17
9510.675 3.3333e-17
9512.2 2.895e-17
9513.725 2.5386e-17
9515.25 2.678e-17
9516.775 3.2954e-17
9518.3 4.7544e-17
9519.825 5.0847e-17
9521.35 4.9588e-17
9522.875 5.5686e-17
9524.4 5.5947e-17
9525.925 4.3263e-17
9527.45 3.7914e-17
9528.975 5.3347e-17
9530.5 6.1594e-17
9532.025 5.8312e-17
9533.55 4.5488e-17
9535.075 4.3508e-17
9536.6 4.6643e-17
9538.125 3.9925e-17
9539.65 3.6804e-17
9541.175 2.9143e-17
9542.7 2.8179e-17
9544.225 3.9339e-17
9545.75 5.6436e-17
9547.275 6.5542e-17
9548.8 5.4024e-17
9550.325 4.6503e-17
9551.85 4.1887e-17
9553.375 3.3224e-17
9554.9 3.4064e-17
9556.425 5.2136e-17
9557.95 7.3544e-17
9559.475 6.6522e-17
9561.0 3.5705e-17
9562.525 2.4851e-17
9564.05 4.759e-17
9565.575 5.8575e-17
9567.1 6.8754e-17
9568.625 6.7611e-17
9570.15 6.057e-17
9571.675 6.9031e-17
9573.2 5.7597e-17
9574.725 4.455e-17
9576.25 3.27e-17
9577.775 2.81e-17
9579.3 3.7339e-17
9580.825 5.7015e-17
9582.35 7.1643e-17
9583.875 5.3412e-17
9585.4 4.0142e-17
9586.925 3.746e-17
9588.45 3.9199e-17
9589.975 5.5507e-17
9591.5 6.4604e-17
9593.025 5.7504e-17
9594.55 4.884e-17
9596.075 4.4588e-17
9597.6 5.2392e-17
9599.125 6.6429e-17
9600.65 6.3856e-17
9602.175 4.8074e-17
9603.7 4.0498e-17
9605.225 5.4285e-17
9606.75 6.4322e-17
9608.275 6.2367e-17
9609.8 6.2022e-17
9611.325 5.0393e-17
9612.85 3.9231e-17
9614.375 3.7525e-17
9615.9 4.3864e-17
9617.425 4.1706e-17
9618.95 4.2062e-17
9620.475 5.2472e-17
9622.0 5.1545e-17
9623.525 6.0388e-17
9625.05 6.1198e-17
9626.575 5.2551e-17
9628.1 5.783e-17
9629.625 7.0027e-17
9631.15 5.638e-17
9632.675 3.2746e-17
9634.2 2.4946e-17
9635.725 3.6853e-17
9637.25 6.2225e-17
9638.775 8.2367e-17
9640.3 7.749e-17
9641.825 6.5886e-17
9643.35 4.8074e-17
9644.875 4.6203e-17
9646.4 6.7662e-17
9647.925 8.0753e-17
9649.45 8.4247e-17
9650.975 7.2744e-17
9652.5 5.7229e-17
9654.025 5.841e-17
9655.55 5.5363e-17
9657.075 5.2474e-17
9658.6 4.074e-17
9660.125 3.6264e-17
9661.65 5.6457e-17
9663.175 8.671e-17
9664.7 8.546e-17
9666.225 6.6866e-17
9667.75 6.8079e-17
9669.275 7.1836e-17
9670.8 6.7432e-17
9672.325 7.5197e-17
9673.85 7.0688e-17
9675.375 5.9576e-17
9676.9 6.0723e-17
9678.425 5.0602e-17
9679.95 4.3503e-17
9681.475 6.3861e-17
9683.0 7.3021e-17
9684.525 6.0428e-17
9686.05 5.563e-17
9687.575 6.2329e-17
9689.1 6.2665e-17
9690.625 5.9345e-17
9692.15 5.8293e-17
9693.675 7.2185e-17
9695.2 6.1489e-17
9696.725 4.9499e-17
9698.25 5.1561e-17
9699.775 7.0037e-17
9701.3 6.6883e-17
9702.825 5.3049e-17
9704.35 6.2662e-17
9705.875 7.3409e-17
9707.4 7.2422e-17
9708.925 5.6201e-17
9710.45 5.3654e-17
9711.975 4.905e-17
9713.5 4.3459e-17
9715.025 5.7255e-17
9716.55 5.5621e-17
9718.075 5.067e-17
9719.6 5.5637e-17
9721.125 4.7658e-17
9722.65 5.2053e-17
9724.175 7.1298e-17
9725.7 7.2374e-17
9727.225 6.0223e-17
9728.75 5.6389e-17
9730.275 5.3808e-17
9731.8 5.198e-17
9733.325 6.4362e-17
9734.85 7.0691e-17
9736.375 6.4599e-17
9737.9 6.6987e-17
9739.425 6.6233e-17
9740.95 6.2681e-17
9742.475 7.729e-17
9744.0 8.0174e-17
9745.525 5.8268e-17
9747.05 4.4292e-17
9748.575 4.9494e-17
9750.1 5.59e-17
9751.625 5.6743e-17
9753.15 5.0647e-17
9754.675 5.1997e-17
9756.2 6.5104e-17
9757.725 7.1829e-17
9759.25 6.857e-17
9760.775 6.4788e-17
9762.3 5.7625e-17
9763.825 5.3554e-17
9765.35 6.6235e-17
9766.875 7.4853e-17
9768.4 6.9983e-17
9769.925 6.3405e-17
9771.45 5.1482e-17
9772.975 4.8854e-17
9774.5 4.7884e-17
9776.025 5.5945e-17
9777.55 7.2804e-17
9779.075 7.2187e-17
9780.6 6.0977e-17
9782.125 5.2735e-17
9783.65 5.1319e-17
9785.175 6.1855e-17
9786.7 5.7485e-17
9788.225 4.4776e-17
9789.75 5.5928e-17
9791.275 5.6794e-17
9792.8 4.6501e-17
9794.325 3.533e-17
9795.85 3.963e-17
9797.375 4.303e-17
9798.9 5.2548e-17
9800.425 5.969e-17
9801.95 5.4999e-17
9803.475 5.8198e-17
9805.0 6.87e-17
9806.525 7.1894e-17
9808.05 7.864e-17
9809.575 6.5623e-17
9811.1 5.6908e-17
9812.625 5.9823e-17
9814.15 6.2181e-17
9815.675 6.3966e-17
9817.2 6.7893e-17
9818.725 7.2267e-17
9820.25 6.1831e-17
9821.775 4.7507e-17
9823.3 4.8028e-17
9824.825 5.7648e-17
9826.35 6.5051e-17
9827.875 7.3679e-17
9829.4 7.1685e-17
9830.925 5.7716e-17
9832.45 6.0107e-17
9833.975 6.601e-17
9835.5 5.8631e-17
9837.025 5.735e-17
9838.55 6.2986e-17
9840.075 6.6068e-17
9841.6 6.4909e-17
9843.125 5.9597e-17
9844.65 4.7597e-17
9846.175 4.4034e-17
9847.7 6.7162e-17
9849.225 8.387e-17
9850.75 6.8929e-17
9852.275 5.3326e-17
9853.8 5.6052e-17
9855.325 5.8812e-17
9856.85 6.0486e-17
9858.375 6.3703e-17
9859.9 6.9108e-17
9861.425 6.9299e-17
9862.95 6.655e-17
9864.475 6.6934e-17
9866.0 6.5907e-17
9867.525 9.1703e-17
9869.05 1.0422e-16
9870.575 9.1133e-17
9872.1 9.012e-17
9873.625 6.273e-17
9875.15 3.5086e-17
9876.675 6.3037e-17
9878.2 7.776e-17
9879.725 6.8977e-17
9881.25 5.9825e-17
9882.775 5.4972e-17
9884.3 5.9667e-17
9885.825 5.8919e-17
9887.35 4.972e-17
9888.875 6.6235e-17
9890.4 9.2669e-17
9891.925 8.4569e-17
9893.45 7.3887e-17
9894.975 6.0086e-17
9896.5 6.0346e-17
9898.025 4.7804e-17
9899.55 5.0889e-17
9901.075 7.1468e-17
9902.6 7.6827e-17
9904.125 6.161e-17
9905.65 6.9869e-17
9907.175 7.5712e-17
9908.7 4.7223e-17
9910.225 5.0118e-17
9911.75 7.9943e-17
9913.275 7.6172e-17
9914.8 7.5176e-17
9916.325 5.2958e-17
9917.85 5.4515e-17
9919.375 7.4406e-17
9920.9 7.3754e-17
9922.425 6.087e-17
9923.95 3.8936e-17
9925.475 3.6031e-17
9927.0 5.8656e-17
9928.525 6.9189e-17
9930.05 5.4168e-17
9931.575 4.732e-17
9933.1 5.0011e-17
9934.625 6.5079e-17
9936.15 6.4701e-17
9937.675 6.3493e-17
9939.2 7.2488e-17
9940.725 8.4091e-17
9942.25 5.9394e-17
9943.775 3.7607e-17
9945.3 7.0232e-17
9946.825 8.7017e-17
9948.35 4.7814e-17
9949.875 1.583e-17
9951.4 3.6988e-17
9952.925 7.5158e-17
9954.45 6.8887e-17
9955.975 6.3712e-17
9957.5 7.1594e-17
9959.025 5.6496e-17
9960.55 5.162e-17
9962.075 6.7346e-17
9963.6 5.8775e-17
9965.125 3.7632e-17
9966.65 5.8896e-17
9968.175 8.1643e-17
9969.7 8.1808e-17
9971.225 7.4587e-17
9972.75 5.9259e-17
9974.275 3.3549e-17
9975.8 3.4241e-17
9977.325 4.5409e-17
9978.85 3.7926e-17
9980.375 4.4262e-17
9981.9 4.6168e-17
9983.425 4.5486e-17
9984.95 4.9096e-17
9986.475 5.1161e-17
9988.0 5.1049e-17
9989.525 4.31e-17
9991.05 4.3491e-17
9992.575 5.1522e-17
9994.1 5.4457e-17
9995.625 3.8617e-17
9997.15 4.4085e-17
9998.675 6.5234e-17
10000.2 7.2897e-17
