 texplosion  fnickel    Pspin  log(Bfield)      Mns  thetaPB   mejecta    kappa  kappagamma      vejecta  temperature    alpha  cutoff_wavelength  log(nhhost)      A_V         MJD0   kenergy  mnickel              TSD   log(L0)  Peak_mag     Peak_MJD  log(E_rad)  log(Peak_lum)  Rise_Time    E_fold  tau_1  delta_m15     r_peak     frac 
   -4.94301  0.07584  0.91863     12.67113  1.44946  0.91128   8.06089  0.30124     0.01345  18079.20559   3605.31725  2.74521         3977.00417     18.22094  0.00092  57530.53697  15.71697  0.61137    51647165.4928  44.79072  17.08085  57582.76956    51.34347       44.48793   41.17929  54.25378   49.5    0.20297  -22.48569  0.99432 
   -4.53686  0.29017  2.05606     13.47842  1.31745  0.97087   4.52519  0.23729     0.01889  11770.18445   6644.31754  0.62233         3445.56723     16.64408    2e-05  57530.94312   3.73965  1.31309    5711936.38466  45.00572  17.26542  57584.47998    51.37451       44.50293    41.0775  56.26423   42.5    0.24083  -22.03613  0.95543 
   -4.69452  0.00637   1.7697     13.23176  1.95456  1.03036   4.31026  0.27275     0.01587  14345.02988   7294.56321  0.47497         5835.29362     16.13376    1e-05  57530.78546   5.29095  0.02745   19549575.47797  44.77296  17.25606  57580.51734    51.29857       44.48026   36.26457   49.6252   45.0    0.23772  -22.29897  0.99954 
   -4.15767  0.01839  1.66685     13.13731  1.75372  0.91561   4.26584  0.26733     0.02373   16902.6344   6802.23047  0.96679         4920.74999     16.17158    1e-05  57531.32231    7.2701  0.07845   24041045.34028  44.68806  17.40812  57585.02178    51.36582       44.57393   36.26457  47.71654   44.0    0.28452  -22.34062  0.99853 
   -4.20087  0.03159  1.51324     13.21184  1.97625   0.6564   5.22902  0.25664     0.02089  18404.20404   7529.82163   0.0055         3824.07555     18.80367  0.00354  57531.27911  10.56529  0.16517   15841497.28941  45.00507  16.80796  57579.43994    51.33174       44.50972   39.27063  50.43646   44.0    0.24247  -22.26971  0.99777 
   -3.55085  0.31803  1.61739     13.05144   1.6357  1.10347   2.44314  0.20577     0.02148  11110.35405   5225.76723   0.8469         5911.56922     16.56841    2e-05  57531.92913     1.799  0.77699   31352319.97689  44.56865  17.41877  57584.43994    51.28234       44.55784   38.17323  40.08189   51.5    0.22243  -22.27466  0.98498 
   -5.48511  0.02977  0.78181     12.59034  1.66796  0.94044    9.1432  0.32657      0.0155   21168.7174   4665.74687  2.34967         3976.07095     20.60032  0.22133  57529.99487  24.44075   0.2722   62447978.24041  44.90931  17.15815  57582.76956    51.32873        44.5039   38.17323  51.53386   50.5    0.20355  -22.77037  0.99838 
   -5.82747  0.14945  1.05327     12.68028  1.16417  1.28424   5.64359  0.28663     0.01673  14727.61219   3232.62794  4.99358         2482.49218     19.55596  0.01998  57529.65251   7.30209  0.84341   52282187.44366  44.57143  17.37112  57585.02178    51.31037       44.56273   36.26457  43.89921   52.5    0.18265  -22.20854  0.98786 
   -5.13385  0.00345   1.0768     12.71853  1.55301  1.06684   3.85398  0.25154     0.01583  12438.81221   7494.59728  1.04459         5146.90965     17.02147    6e-05  57530.34613   3.55709  0.01329   61122168.22282  44.60955  16.92858  57580.51734    51.29031       44.53054   38.17323  43.89921   53.5    0.19839  -22.35191  0.99985 
   -4.63175  0.27256  1.97086     13.57485   1.5663  0.45614   4.76503  0.28219     0.01773  13355.44203   8789.86076  4.89426         2846.10986     16.02335    1e-05  57530.84823   5.07002  1.29878    4002218.23538  45.27211    17.303  57589.52622    51.30303       44.51314   43.40613   44.3923   41.5    0.22194  -22.13198  0.96547 
   -4.48271  0.36545  0.93335     12.58878  1.84375  0.92264   8.06582  0.18346     0.01437  17237.05411   4421.71566  2.73906         4950.84402     18.90748  0.00449  57530.99727  14.29558  2.94762   99092286.73713  44.59842  17.40831  57584.56005    51.31164        44.5794   36.26457  41.99055   46.5    0.24585  -22.68525  0.97253 
   -5.07607  0.09053  0.85337     12.61643    1.996  0.92605  11.25679  0.19928     0.01033  19561.15477   6750.44479   2.8958            2523.45     20.17393  0.08292  57530.40391  25.69394  1.01903   78956837.72549  44.80934  17.10447  57582.76956    51.38506        44.5174   40.08189  57.25984   54.5     0.1906  -22.42602  0.99351 
   -5.75016  0.06345  0.99813     12.84294  1.91064   0.8662   9.45962  0.32701     0.01194  17859.42945   6784.23154  0.39609          4593.2181     19.34438  0.01228  57529.72982  17.99849   0.6002   36432846.26606  44.99016  17.25004  57580.51734    51.37035       44.52485   36.26457  51.53386   56.5    0.16187   -22.5362  0.99586 
   -4.24422  0.00217  1.00024     12.69266  1.69409  1.42107    5.7053   0.3197     0.01317  17716.02601    6714.1913  0.39611         3819.44297     17.06917    7e-05  57531.23576  10.68165  0.01239   64807989.67966  44.68595  17.17272    57587.274     51.4244       44.55825   41.17929  56.16244   49.5    0.21663  -22.30022   0.9999 
   -4.12017  0.14451  0.88018     12.68678  1.19651  0.71934   2.49917   0.1216     0.01732  10371.01072   3161.65484  0.17165          3802.8664     16.97754    5e-05  57531.35981   1.60349  0.36116   36418498.28916  44.89629  17.22379  57582.76956    51.33883        44.5219   38.17323   49.6252   67.5    0.14013   -21.9622  0.99601 
   -5.16096  0.00103  0.79108     12.50686  1.84216  0.80798   8.94339  0.21991     0.02211  23523.18603   4467.12576  1.50678         3531.87275     16.58422    2e-05  57530.31902  29.52035  0.00919  103721222.98079  44.72186  17.05761  57578.26512    51.24216       44.46332   38.17323  45.80787   45.5    0.24907  -22.42307  0.99993 
   -5.87509  0.01636   2.4102     13.69038   1.7247  0.75494   5.68835  0.24833     0.01426  11042.48555   7205.08618  1.26207         4355.60128     19.71879  0.02908  57529.60489   4.13759  0.09308    3871470.52605  45.15358  17.22673  57584.43994    51.37033       44.49999   41.17929  56.16244   43.0    0.21826  -22.20512  0.99696 
   -4.50172  0.19073  1.06794     12.75578  1.97708  1.03066   9.25087  0.21183     0.01166  19731.66748   9276.82424  0.84996         2910.04136     18.12649  0.00074  57530.97826  21.48509  1.76446   64473156.94689  44.69839  16.92301  57594.03066    51.54543       44.51223   51.53386  87.79843   41.0     0.2164  -22.30192  0.98499 
   -4.77689  0.07047  1.46917     13.29132  1.54595  0.48501   5.02311  0.24803     0.01832  13412.27627   7064.60864  1.97731         2968.40273     17.27234   0.0001  57530.70309    5.3902  0.35399    8100745.71321  45.21537  17.16703  57578.26512    51.30632       44.45631   38.17323  53.44252   54.0     0.1906   -22.2387  0.99391 
   -4.94747  0.14862  0.79899     12.52154  1.20434  1.05078   8.55965  0.27154     0.01303  17675.49721   5342.36723  4.40843         2384.06868     18.45264  0.00158  57530.53251  15.95241  1.27213   64648882.71213  44.73395  17.23175  57582.76956    51.29998       44.49337   40.08189   49.6252   54.5     0.1822  -22.35151  0.98851 
   -4.89145  0.07627  1.06066     12.67173  1.56492  1.03158   7.06075  0.16676     0.02685  19782.07896   4809.99437  1.05702         2247.19798      18.1979  0.00088  57530.58853  16.48244   0.5385   74129427.66839   44.5422  17.36507  57585.02178    51.28354        44.5679   38.17323  38.17323   49.5    0.21717  -22.33763  0.99347 
   -5.24271  0.12031  2.30864     13.67988  1.80338  0.75385   6.82607  0.24762     0.01034  10533.04238   8148.87623  4.81628         2485.04093     17.98107  0.00053  57530.23727   4.51758  0.82125    3898106.34633  45.20737  16.84562  57578.26512    51.36175       44.49539   40.08189  55.35118   45.5    0.18523  -22.05247  0.97735 
   -5.67662  0.07493  0.80131     12.88735  1.61661  0.35894  10.48612  0.24979     0.01391  20634.85046   8783.58436  2.45226          4654.2829     18.89383  0.00435  57529.80336   26.6345  0.78577   16192894.17641  45.46053  17.13916  57591.77844      51.345       44.49298   43.50792  53.83381   51.0    0.15996  -22.65103  0.99408 
   -4.81284  0.48529  1.23996     12.89364  1.60601  1.12271   6.33891  0.33982      0.0105  15015.72563   4872.45941  2.64951         3540.63253     18.94348  0.00488  57530.66714   8.52578  3.07623   37419725.10213  44.71468  17.30671  57580.51734    51.24812       44.48019   40.08189  43.89921   50.5    0.19298  -22.27234  0.96353 
     -4.444  0.00434  2.23308     13.29948  1.71905  1.56994   4.51087  0.28393     0.03776  14025.37399   9488.62926  3.90005         4343.94912     17.76773  0.00033  57531.03598   5.29318  0.01956   20042385.06026  44.50438  16.73903  57579.43994    51.39982       44.50719   41.99055  57.25984   45.0    0.22958  -22.59529   0.9994 
   -5.53347  0.02027  0.95344     12.48227  1.85921  1.52008  10.06271  0.14725     0.02509  20132.78117   7148.33798  3.14572         3032.36274     19.48887  0.01712  57529.94651  24.33042    0.204  170290776.20727  44.34839  16.82686  57580.51734    51.25453       44.47609   41.99055  45.80787   57.0    0.20602  -22.42518  0.99788 
   -3.86791  0.00245  1.29642     12.81152  1.76528  1.39916   4.78276  0.14569     0.02462   16156.0874   3064.84467  0.06271         4301.85758     16.94288    5e-05  57531.61207   7.44695  0.01171   65625399.84645   44.4731  17.47508  57585.02178    51.28175       44.54144   40.08189  40.08189   53.0     0.2092  -22.23207  0.99984 
   -4.94843  0.01255  2.27958     13.48944  1.76161  1.19275   5.96311  0.19226     0.01228  12199.32654   8020.32076  0.49369         3794.37738      18.1321  0.00075  57530.53155   5.29385  0.07483    8923935.91593  44.84849  17.10164  57582.76956    51.33619       44.53971   38.17323  47.71654   40.0    0.23973  -22.06947  0.99784 
   -3.75175  0.09869   2.5065     13.68035  1.80529  0.55245   2.98676  0.25901     0.05169  14752.11246   7166.04262  0.86139         4959.22498     18.22055  0.00092  57531.72823   3.87736  0.29477    4589875.21193  45.06546  17.09541  57580.51734     51.3236       44.50949   38.17323   49.6252   44.5    0.26079  -22.30592  0.98969 
   -4.65223  0.01928  1.97144     13.51755  1.72243  0.50035   4.78495  0.19547     0.01966   12895.5486   8678.11904  3.52864         2642.87304     17.58277  0.00021  57530.82775   4.74662  0.09225    5733430.89672  45.15701   17.3704  57582.76956    51.32315       44.58471   34.35591  41.99055   45.0    0.20437  -22.13604  0.99772 
   -5.99379  0.06945  2.48713     13.48899  1.89763   1.0289   6.51332  0.20324     0.01309  10789.89021   7485.09427  4.75945         4349.97637     16.35149    1e-05  57529.48619   4.52338  0.45233   11466868.50807  44.69622  17.17786  57582.76956    51.36536       44.49467   41.17929  56.16244   45.5    0.23067  -22.51452  0.98567 
   -3.58864  0.20615  1.87673     13.49939  1.61608  0.46136   6.08186  0.07645     0.02851  12811.37994   6411.76751  0.99434         2000.87137     19.10313  0.00704  57531.89134   5.95464  1.25376    5300339.27626   45.2062  16.71059  57580.51734    51.47309        44.5758   43.89921   59.1685   63.0    0.12808  -22.17257  0.96978 
   -4.95739  0.45957  1.04745     13.13894  1.81749  0.42148   7.81394   0.3395     0.01178  18483.52087   8446.84944   0.1962         3366.38447      19.3728  0.01311  57530.52259  15.92452  3.59108    9765010.54835  45.49838  17.15439    57587.274     51.4279       44.59216   38.17323  51.53386   44.5    0.18228  -22.36424  0.97221 
   -3.59888   0.0037  2.45672     13.65271  1.92319  0.71844    5.1572  0.12649     0.01026   9712.39437   7456.57397  3.84293         2164.26221     18.70501  0.00282   57531.8811   2.90197  0.01907    5334845.31285  45.04503  17.10189  57582.76956    51.38983       44.48713   41.99055   59.1685   50.5    0.20099  -21.89646  0.99943 
    -4.9466   0.0018  0.73035     12.38906  2.01175  0.84226   7.22826  0.30074     0.05998  32169.14138    9525.0446  2.84062         5174.84614     16.75314    3e-05  57530.53338  44.62107    0.013  166084169.65139  44.62502  17.32892  57582.76956    51.34844       44.54183   34.35591  47.71654   50.5    0.18597   -22.7779   0.9999 
    -5.4534  0.03361  0.83495     12.54658  1.67123  1.02347   8.32004  0.32323     0.01739  20265.70113     6034.911  3.55021         4702.84664     19.33018  0.01188  57530.02658  20.38337  0.27966     87298033.391  44.70755  17.32936    57587.274    51.30301       44.55526   39.16884  40.99494   51.5    0.22541  -22.76354   0.9979 
   -4.96775  0.00514  1.29161     12.89931  1.92011  1.45667    6.2954  0.32921     0.01534  18712.65412   5901.46903  0.44508         4057.74505     18.31528  0.00115  57530.51223  13.14986  0.03236   47292587.36331  44.65511  16.81714  57579.43994    51.34383       44.48563   39.27063  54.25378   48.5    0.21421  -22.32103  0.99966 
    -5.7067  0.00108  0.89128     12.54034  1.62238   1.1139   7.11646  0.25735     0.01548  14673.10583   3724.73634  4.94884         4342.74875     18.88408  0.00425  57529.77328   9.13976  0.00771   99385960.28467  44.58165  17.15557  57585.02178    51.39132        44.5633   40.08189  51.53386   54.5    0.19603  -22.72634  0.99993 
   -4.86647  0.00119  0.78429     12.43562  1.84507  1.13912   6.12692  0.32394     0.02031  19020.91926   7510.64451  3.52605         3751.89695     19.53363  0.01898  57530.61351  13.22306  0.00726  141757506.62139  44.59435  17.40315  57582.76956    51.36375       44.66369   28.62992  40.08189   53.0    0.21722  -22.52108  0.99995 
   -4.96947   0.0204  0.90391     12.70364  1.40118  0.63268    8.0937  0.20542     0.02087   19918.0317    8503.5077  2.29021           4867.326     19.02383  0.00587  57530.51051  19.15433  0.16507    41618286.9136  44.88381   17.1614  57582.76956    51.34843       44.47792   41.17929  56.16244   48.0    0.22852  -22.64605  0.99819 
   -4.69134  0.13702  1.85521      13.3361  1.24077  1.14934    6.7456  0.27325     0.01126  11245.92864    4874.0104  3.00371         4524.98466     17.37325  0.00013  57530.78864   5.08907  0.92431    8435293.58544  44.89965  17.41728  57585.02178    51.32457       44.54952   38.17323  43.89921   43.0    0.22257  -22.45564  0.97132 
   -4.58741  0.04364  1.58675     13.05703  1.64438  1.12131   5.22283  0.23303     0.01472  14182.83308    6225.5755  1.60522         3739.88342     17.35638  0.00013  57530.89257   6.26699  0.22792   29564986.25277  44.61305  17.19513  57580.51734    51.35042       44.50798   36.26457  53.44252   48.5    0.22746  -22.21419  0.99582 
   -4.69848  0.01416   0.7471     12.51013  1.71603   0.8958   9.49923  0.32791     0.01495  22045.68178   5573.61637  3.15144          3775.6066     16.98997    5e-05   57530.7815  27.53993  0.13446   84887978.04651  44.82777  17.22634  57580.51734    51.32751       44.46013   40.08189  55.35118   53.5    0.21124  -22.53345  0.99915 
   -4.30361  0.05491  0.79133     12.37711  1.88072  1.49757  12.19274  0.14936     0.01316  21801.85519   3148.12143  1.00218         5771.04657     18.71855  0.00291  57531.17637  34.57127  0.66947   192586696.9316  44.46183  16.83801  57578.26512    51.34759        44.5061   40.08189  51.53386   44.5    0.25639  -22.59539  0.99491 
   -5.90377  0.00721  1.00674     12.82447  1.50537  0.56873  12.13523  0.09312     0.01054  14430.03498   4587.20537  1.55843          3411.4592     18.90771  0.00449  57529.57621  15.07336  0.08752   31794667.67117   44.9383  17.32053  57584.43994    51.37351       44.50698   38.17323  55.35118   61.0    0.16968  -22.30152  0.99895 
   -4.67915  0.05067   0.7347     12.41722  1.41555  0.75577   3.60935  0.19572     0.01164   9493.25594     3952.593  4.20764          4525.6197     17.34066  0.00012  57530.80083   1.94038  0.18288  103879828.14577  44.67102  17.05289  57582.76956    51.30202       44.48019   41.99055   49.6252   56.0    0.20899  -22.52648  0.99817 
   -5.01153  0.01089  1.43921     12.88977  1.61196  1.54751   7.47238  0.13515     0.01351  14712.41388   8153.74457  1.88967         3142.40296     17.97798  0.00053  57530.46845   9.64837  0.08138   51508966.47564  44.44807  17.35063    57587.274    51.40416       44.48111   40.08189  64.89449   48.5     0.2122  -22.20813  0.99862 
   -4.35601  0.00235  0.94161     12.47571  2.01388  1.39448   6.34506  0.26614     0.05641  25436.19479   5323.35581  4.56674         3299.65912     16.47467    2e-05  57531.12397  24.48879  0.01489  185423923.61129  44.35697  17.16883  57580.51734    51.31446       44.49195   38.17323   49.6252   52.5    0.26489  -22.54269  0.99985 
   -4.72582   0.1461  0.97011     12.57016  2.13555  1.43938   8.31233  0.24719     0.01951  22065.72153   6971.64691  1.65511         4108.61132     19.67158  0.02608  57530.75416  24.14272   1.2144  135098963.02814  44.49406  17.15751  57580.51734    51.34186        44.5238   36.26457   49.6252   50.5     0.2447  -22.50992   0.9903 
   -4.39999  0.02567   0.8593     12.67283  1.48109  0.52725   8.52076  0.10774      0.0278  20789.90441   7877.99249  3.70531         2082.97888     19.45693  0.01591  57531.07999  21.96901  0.21872   45817671.42982   44.9101  17.35602  57582.76956    51.29549       44.50865   36.26457  47.71654   51.0    0.22603  -22.30585  0.99748 
    -3.7768  0.30343  1.57149     13.10446  1.54595   0.7818   4.21703  0.27643     0.02827  15726.66555   9218.63254  3.39932         3269.85417     17.85095  0.00039  57531.70318   6.22168  1.27956   21914124.17545  44.72469  17.02843  57579.43994    51.39183       44.49925   40.08189  57.25984   42.5    0.22867  -22.28331  0.97432 
   -5.24389  0.10504  2.12244     13.33361  2.11265  1.02436   4.37525  0.33647     0.03031  15032.05734   7069.56426  2.46581            5275.48     18.63794  0.00241  57530.23609   5.89749  0.45957   19014877.90057  44.66091  17.09441  57580.51734    51.31992       44.48342   40.08189  51.53386   46.0    0.24053  -22.75476  0.99013 
   -5.00428  0.09021  1.16907      13.0381  1.55245  0.53167   5.89879  0.29266     0.01878  17219.41072   5147.40296  1.71374          3638.8761     17.16979    8e-05   57530.4757  10.43343  0.53213   16531762.08117  45.10586  17.32429  57582.76956    51.33542       44.51033   38.17323   49.6252   48.5    0.22371  -22.33759  0.99332 
   -4.45908  0.00548  0.85051     12.46361  1.63237  1.50368  10.60173  0.17258     0.01237  21190.26243   6373.99692    1.489         3025.13303     17.19334    9e-05   57531.0209  28.39726  0.05805  129648211.08133  44.50954  17.31575  57582.76956    51.35683       44.61008   32.44724  41.99055   50.5     0.2414  -22.32903  0.99951 
   -5.86304  0.06476  0.88576     12.75284   1.6119  0.60092  10.83083  0.17988     0.01038  18130.95793   9063.52908  1.38699         5037.72018     17.63623  0.00024  57529.61694  21.23881   0.7014   36652309.61441  45.01745   17.3212  57582.76956    51.28741       44.49786   40.08189  47.71654   47.5    0.19064  -22.53474  0.99394 
   -4.83481  0.04521   0.9627     12.94094  1.67632  0.49761   8.80351  0.26875     0.01275  19066.57431   6556.02415  1.95922         5456.23737     17.46426  0.00016  57530.64517  19.09099  0.39801   18935061.84424  45.24895  17.11423  57585.02178    51.42464       44.52377   41.99055   59.1685   50.0    0.23243  -22.74785  0.99663 
   -4.47254  0.09227  2.15556     13.30111  1.59686  1.39197   4.61981  0.27755     0.02152  14034.60286   6401.18083  2.94579         3550.56966     16.22405    1e-05  57531.00744   5.42815  0.42628   17218166.99988    44.569  17.30981  57582.76956    51.36129       44.55719   36.06062  47.92048   43.5    0.26104   -22.2295  0.98678 
   -5.40189  0.00147  2.07868     13.49197   1.5118  0.86383   5.34396  0.09988     0.01708   9603.94612   3025.45947  0.27693         3946.51192     16.54354    2e-05  57530.07809   2.94029  0.00784    6294272.35964  45.01382  16.93324  57578.26512    51.37608       44.51487   38.17323  55.35118   56.0    0.16631  -21.99096  0.99976 
   -3.22137  0.30982  2.49952     13.66688  1.60702   1.0861    5.6941  0.10591     0.04009  10736.80197   4659.99817  0.29509         2365.04136      18.8151  0.00363  57532.25861   3.91563  1.76414     4323077.7588  45.04336  17.36464  57580.51734    51.28594       44.53376   35.99276  42.26236   58.0    0.14686  -21.97156  0.93658 
   -4.36837  0.07608  0.85244     12.54092  1.78098  1.24028  10.40289  0.21924     0.01337  21681.30808   4313.63257  1.39797         3639.98929     20.23999  0.09654  57531.11161  29.17105  0.79141   99530519.30723  44.66022  17.33547  57582.76956    51.28258       44.51215   38.17323  43.89921   47.5    0.21882  -22.54412  0.99449 
   -4.05782  0.11492  1.63432      13.1119  1.84217  0.75419   2.62704  0.29858     0.03953  14277.07402    9180.9255  3.08094          3139.5338      19.1033  0.00705  57531.42216   3.19427   0.3019    27290736.7602  44.67149  17.02767  57578.26512    51.29988       44.47715   36.26457  51.53386   46.0    0.22527  -22.15499  0.99429 
   -5.94287  0.00622  0.76265     12.63645   1.7628  0.77863  11.76612  0.28732     0.01323   23160.2799   7795.87512  2.52442         2790.31847     20.49925  0.17538  57529.53711  37.64853  0.07321   50789437.67856  45.04462  17.31683  57584.43994    51.36688       44.54193   38.17323   49.6252   51.0    0.18981  -22.62106   0.9996 
   -3.82415  0.05236  1.34358     12.92337  1.79799   1.3341   7.56688  0.22235     0.01068  16317.34954   6286.02641  1.04322         5135.44723     17.28561  0.00011  57531.65583  12.01831  0.39622   42893697.81865  44.63471  17.17834  57589.52622    51.50691       44.49803   41.99055  93.52441   47.5    0.22884  -22.44882  0.99514 
   -5.24804  0.02422  0.94612     12.81333  1.86519  0.63288   8.29344  0.25847     0.01328  19367.82605   9800.13674  3.98162         2736.34983      19.3623  0.01279  57530.23194  18.55767  0.20087   36624030.74053  45.02391  17.37215  57580.51734    51.26216       44.55518   32.44724  38.17323   47.5    0.18459  -22.31197  0.99841 
    -4.2951   0.0101  1.21062     12.73475  1.84046  1.49471   4.29643  0.28223     0.02678  15972.34325    5420.8765  2.19829         5394.21079     18.62857  0.00236  57531.18488   6.53841  0.04341   84966406.85662  44.43851  17.31195  57580.51734    51.30722       44.51063   34.35591  47.71654   47.0    0.24977  -22.74039  0.99948 
    -4.7315  0.00131   1.8524     13.32841  1.64969  0.82987   4.66732  0.29524     0.01875  13418.40497   5696.52845  1.45748         4334.48559      17.8108  0.00036  57530.74848   5.01298  0.00612   11583928.46903  44.88692  17.26449  57580.51734     51.3353         44.486   36.26457  55.35118   46.0    0.22691  -22.35385  0.99986 
    -4.5638  0.00237  0.89058     12.59002   1.4374  1.01927   5.70993  0.21812     0.01582  17800.28947   7020.35735  0.22475         2422.76011     17.80911  0.00036  57530.91618  10.79225  0.01355   69936695.54872  44.68237  17.35529  57582.76956    51.31667        44.5878   34.35591  40.08189   49.0    0.23076  -22.22542  0.99987 
   -4.86004  0.00249  1.41011     12.88753  1.71446   1.3068    2.8014   0.2792     0.04076  15804.58087   8867.06946  0.35755         3149.39102     19.79438   0.0346  57530.61994   4.17415  0.00698   53135800.30163  44.47908  17.23476  57582.76956    51.35394       44.52874   36.26457   49.6252   44.0    0.21927   -22.1894  0.99989 
   -5.15748  0.04877  0.98888     12.78249  1.89289  0.88956   8.95222  0.27511     0.01149  19826.03018   7590.59741  0.32088         3157.68055     18.59843   0.0022   57530.3225  20.99083  0.43664   46799828.66727  44.88544  17.26744  57579.56005    51.29505       44.49391   36.26457  47.71654   48.0    0.20077  -22.34315  0.99676 
    -4.0775  0.05729   1.5213     13.09008  1.66139   0.8364   3.19418  0.24025     0.05702  17347.55691   6875.43732  1.74614         2438.51237     20.47918  0.16746  57531.40248   5.73408  0.18299   23580499.39353  44.75233  17.24891  57582.76956    51.34198       44.49274   40.08189  53.44252   54.5    0.20351  -22.39448  0.99684 
   -4.92456  0.05011  0.85768     12.57599  2.04205  0.74173   8.08948  0.18579     0.02616  21192.35995   9075.42706  4.74196         2404.39337      16.5468    2e-05  57530.55542  21.67236  0.40534   98300172.20241  44.71971  17.22067  57585.02178     51.3972       44.57619   38.17323   49.6252   48.5    0.18641  -22.36475  0.99648 
    -6.6541  0.00298  1.03295     12.83151   1.6575  0.76886   7.02758  0.29438     0.01324  14851.16719   9706.29446  1.82762         5005.04554     19.79981  0.03504  57528.82588     9.246  0.02092   35678206.32308  44.90773  17.43352  57582.76956      51.362       44.51192   36.26457  53.44252   51.0    0.16478  -22.63134   0.9998 
   -5.65771  0.46825  1.77265     13.28458   2.0991  0.71309   8.83509   0.2106     0.01117  12326.87672   6468.68649   2.9315         4025.67935      18.0687  0.00065  57529.82227   8.00837  4.13707   16516832.07147  44.87571    17.133  57582.76956    51.41137       44.57675   36.26457   49.6252   57.5     0.1696  -22.47512  0.93559 
   -4.93445  0.00777  0.81542      12.4859  1.58822  0.90876    4.5046  0.30711     0.02141  16354.31492   8625.51444  3.10689         3627.04844     17.03521    6e-05  57530.54553     7.187  0.03498  104639220.38765   44.6273  17.14497  57582.76956    51.40084       44.52073   40.08189  57.25984   50.0    0.22321  -22.32814  0.99968 
   -4.68054  0.02831  1.94355     13.45479  1.77344  0.90196   4.64833  0.29527      0.0115  12843.06499    9879.9618  0.41193         3620.32869     16.84018    4e-05  57530.79944   4.57363  0.13158    7660381.97838  45.05622  17.41349  57582.76956    51.29339       44.59855   34.35591  38.17323   34.0     0.2243  -22.08057  0.99723 
   -5.19294  0.03263  0.90281     12.47953  1.80005  1.15638   5.77875  0.22478     0.03892   20299.0691   8825.37297  0.55536         4879.16228     17.69136  0.00027  57530.28704  14.20409  0.18856   149705289.4986  44.43769   17.2143  57579.47998    51.31634       44.46473   38.17323  53.44252   48.0    0.19067  -22.44851  0.99812 
   -4.53408  0.47803  1.44242     13.01721  1.44301  1.13003   6.31496  0.29637     0.01244  14500.04416   6971.25374  3.41459         2908.27909      17.5392  0.00019   57530.9459    7.9202  3.01875    25754599.8022  44.69908  17.24451  57582.76956    51.37937       44.54941   38.17323   49.6252   49.0     0.1942  -22.20757  0.94918 
   -4.78106  0.00924   1.4219     13.05386  1.81042  1.01824   7.32333  0.28409     0.01023  15385.99833    4656.5764  3.49163         3260.43917     18.87156  0.00413  57530.69892  10.34158  0.06766   26522797.29145  44.79727  17.42957    57587.274    51.29056       44.53362   41.17929  42.80181   49.5    0.20533  -22.30677  0.99912 
   -4.60623  0.07698  2.22493     13.51448  1.50337  1.14008   4.42569  0.27306     0.02023  11320.62761   3963.79762  0.72299         4202.54904     16.67513    3e-05  57530.87375   3.38337  0.34068    6464718.67747  44.94073  16.93811  57579.56005    51.37517        44.4969    41.0775  56.26423   43.5    0.23024  -22.11636  0.98851 
   -5.41456  0.00338  0.80914     12.41845  1.50745  1.47548   7.04865  0.30379      0.0212  20103.11996   6023.26161  3.23483         4771.79186      18.8429  0.00387  57530.06542  16.99261  0.02381  133416250.81142  44.50583  17.26735  57582.76956    51.28979       44.47199   40.08189   49.6252   49.5     0.2473  -22.73119   0.9998 
   -4.39396  0.00887  2.41983     13.67132  1.50744  0.94032   7.38512  0.20472       0.044  10421.46126   6358.08948  1.84628         4575.45252     17.46818  0.00016  57531.08602   4.78456  0.06553    3723828.77837  45.10853  16.92196  57582.76956    51.29588       44.48737   41.99055  47.71654   53.5    0.13881   -22.3543  0.99741 
   -5.17238  0.00122  2.11869     13.49831  1.79236  0.66177   3.86636  0.30322     0.01707   11310.8906   9063.51244  3.55592         3377.63507     18.12009  0.00073   57530.3076   2.95069  0.00473    7529336.74344  44.99338  17.19229  57584.43994    51.40861       44.50404   41.99055  61.07717   44.0    0.21133   -22.1785  0.99988 
   -6.22216  0.02478  0.76095     12.48845  1.65165  0.81466   7.43011  0.24075     0.01602  16717.93275   3207.40635  3.77012         4902.98052     18.36386  0.00128  57529.25782   12.3876  0.18413   93656752.92436  44.75251  17.30284  57582.76956    51.39721       44.61342   32.44724  45.80787   49.5    0.22418  -22.81568  0.99856 
    -5.4261  0.00524  2.23201     13.52297  1.80553  0.80847    4.0934  0.32354     0.01309   9548.02861   7182.97824  3.66903         5060.12702     19.48084  0.01681  57530.05388   2.22607  0.02146    7513906.46297  44.95219  17.42073  57582.76956    51.28389       44.58384   35.99276  36.53638   43.5    0.23122  -22.69539  0.99941 
   -4.86082  0.04592  2.22999      13.5834  1.75537  0.82994   4.85611  0.25691     0.01022   9452.22799   9590.23456  4.36329         2558.53444     17.20624    9e-05  57530.61916   2.58812    0.223    5520678.15202  45.07461  17.21145  57579.56005    51.27375       44.53324    34.0841  42.26236   42.5    0.19161  -21.98304  0.99385 
   -4.35361  0.00386  1.06579     12.92898  1.16136  0.66936   6.59422  0.26619     0.01326  15358.35778   9391.19798  1.43215         4320.89514      19.3307   0.0119  57531.12637   9.27856  0.02544   16988824.47189   45.0483  17.36375  57582.76956    51.30211       44.53633   38.17323  43.89921   43.0    0.20699  -22.43771  0.99964 
   -5.21948  0.17528  1.14083     12.75034  1.46887  1.21467    7.0038  0.25463      0.0176  18159.97433    5436.1922  1.17648         4730.84653     17.29386  0.00011   57530.2605  13.77817  1.22764   56047339.45071  44.57283  16.96835  57582.76956    51.24318       44.44722   41.99055  47.71654   47.0    0.23803  -22.46306  0.98438 
   -6.29894  0.00156  1.88791     13.49575  2.11692  0.61134   4.53586  0.31956     0.01619   14959.2651   9259.37533  0.19451         2945.69262     18.74383  0.00308  57529.18104    6.0549  0.00706     7144674.6477   45.1886  17.35413  57591.77844    51.47178       44.64996    34.0841  53.71433   36.5    0.22968  -22.16167  0.99988 
   -5.16258  0.02252  0.77472     12.48344  1.37725  0.96757   8.90732  0.24829     0.01312  18117.88771   6620.91413  2.97072         3335.33656     17.77679  0.00033   57530.3174  17.44173  0.20057   82838513.66781  44.71133  17.22973    57587.274     51.3979       44.56567   38.17323  53.44252   56.0    0.19901  -22.39604  0.99833 
   -5.55994  0.00158  0.83639     12.75457  1.64106  0.55699   9.20058  0.29055     0.02453  21853.87541   3730.16264  4.17461          5670.8182      17.6419  0.00024  57529.92004  26.21194  0.01453   33008348.27388  45.12053  17.55377  57582.76956    51.30881       44.60458    34.0841  36.53638   44.5    0.24472   -23.2259  0.99989 
   -4.36264  0.22526  0.91319     12.60929  1.60644  1.46983   9.08982  0.25239     0.01208  18824.55867   5797.75485  1.24552         2213.08636     16.75019    3e-05  57531.11734  19.21463  2.04757   75199743.10939  44.67737   16.8561   57576.0129    51.36212       44.49237   38.17323  55.35118   54.0    0.18492  -22.42181  0.98426 
   -6.00495  0.00137  0.87155      12.4907  1.79471  1.00331   9.68948  0.16541     0.01953  18622.94462   8956.69235  2.25992         4107.24633     19.49694  0.01744  57529.47503  20.04585  0.01329  132128075.28666  44.52126  17.22437    57587.274    51.39027       44.53624   41.17929  54.25378   52.5    0.16306  -22.49641  0.99987 
   -5.31896  0.01464  1.13615     12.79114  2.19509  0.84921  10.57033  0.15548     0.01282  19043.58386   9315.60811  3.05684         3838.15392     18.73382  0.00301  57530.16102   22.8672  0.15474   68844415.74425  44.66156   16.8262  57579.56005    51.38658       44.50362   41.99055  57.25984   46.0    0.17741  -22.40626  0.99845 
   -4.86123  0.13485  1.19017     12.63401  1.65829  1.48195  12.88751  0.06851     0.02306  12963.97005   6284.36409  3.09766         4367.70149     19.18034  0.00842  57530.61875  12.92029  1.73786  117670722.98096  44.26662  17.27632    57587.274    51.35871       44.55666   40.08189  47.71654   82.0    0.11158  -22.62506  0.97394 
    -5.6872   0.0014  1.21231     13.35858  1.98849  0.23293   4.95652  0.33994      0.0407  19663.73155   4557.49847  2.07985         2990.36845      17.1662    8e-05  57529.79278  11.43237  0.00695     5204879.8199  45.68373  17.30727  57582.76956    51.25957       44.52355   38.17323  41.99055   50.5    0.21215  -22.36927  0.99992 
    -4.2877  0.03393   1.8553      13.2927  1.72401   1.1259   6.14606  0.24548     0.01207  13277.48112   8430.37751   4.8877         2178.48414     17.02753    6e-05  57531.19228   6.46332  0.20851   14314720.26236  44.81277  17.44579  57582.76956    51.27944       44.58704   35.99276  36.53638   42.5    0.19747  -22.13666  0.99568 
   -5.91443  0.33534  0.92819     12.68917  1.73887  0.90231  10.12247  0.28322     0.01203  19515.73852   6505.58884  2.45393         2826.77069     19.74273  0.03072  57529.56555  22.99765  3.39442   58213563.08781  44.80881  17.26489  57580.51734    51.31292       44.57658   34.35591  41.99055   54.5    0.18295  -22.36419  0.97374 
   -3.86177  0.00956  1.14871     12.81247  1.59886  0.85878   4.28087  0.28968     0.02077  15242.32565   6966.19115  3.52096         3303.66379     16.03744    1e-05  57531.61821   5.93283  0.04092   46463086.36853  44.68513  17.19574  57578.26512    51.25114       44.50315    34.0841  42.26236   52.0    0.22865  -22.27109  0.99948 
   -4.09109  0.02345  1.77376      13.1994   1.5981  0.86297   6.31303  0.09839     0.01597  11988.77542   7612.59095  1.93887         2600.55765     17.03332    6e-05  57531.38889   5.41271  0.14805   18638102.49201  44.70426  17.29245  57582.76956    51.33374        44.5759    34.0841  42.26236   56.0    0.17034  -22.08555  0.99655 
   -4.49384  0.00677  1.35703     13.00374  1.68875  0.94929   5.69429  0.31907     0.01467  14564.67003   3587.57804   3.3716          5570.2352     16.18287    1e-05  57530.98614   7.20556  0.03857   28383710.18617  44.77816  17.29284  57578.26512    51.32251       44.58491   32.44724  40.08189   44.5    0.24144  -22.94358  0.99948 
   -4.80323  0.05854  2.12654     13.52656  1.79385  0.88919   6.27512  0.26639     0.01216  13251.41238   6367.96743  4.39123         2191.11571     19.59021  0.02162  57530.67675   6.57315  0.36733    6665294.24715  45.04346   17.0422  57582.76956    51.47946        44.6083   41.17929  56.16244   45.0    0.21349  -22.11035  0.99103 
   -4.95268  0.00265  1.63001     13.00538  1.72894  1.13673   4.86166  0.17709     0.02684  14333.05161   5559.25544  1.27234          4730.2548     18.15382  0.00079   57530.5273   5.95784   0.0129   41610775.98824  44.46304  17.35252  57585.02178    51.33334       44.51061   40.08189  51.53386   52.5    0.21974  -22.36484  0.99975 
   -4.45037   0.4886  2.22234     13.57931  1.84837  0.69973   5.62784  0.28816     0.01514  12841.50164   3846.29387  2.10594         5677.98015     16.36543    1e-05  57531.02961   5.53606  2.74975    5883009.68235  45.07241  17.16313  57582.76956    51.35806       44.54267   38.17323   49.6252   42.0    0.25228  -22.75233  0.93239 
   -4.88031  0.01485  2.38803     13.54355   1.8352  0.64378    3.0823  0.32006     0.04655  14323.25748   5729.52551  2.37178         4679.90714     16.27819    1e-05  57530.59967   3.77212  0.04578    7952199.65404  44.87596  17.37733  57580.51734    51.23161       44.47693   38.17323  43.89921   44.0    0.25487  -22.45677  0.99851 
   -4.20207  0.01961  2.43116     13.61307  1.71993  0.83529   5.35131  0.22493     0.01693   9498.18493   7374.11376  3.83742         3190.14143     18.69265  0.00274  57531.27791   2.87984  0.10494    5608088.43312  44.98392  16.87149  57578.26512    51.34635       44.49462   36.26457  53.44252   50.5    0.18768  -22.16921  0.99644 
   -4.58935   0.4254  1.98734     13.60223  1.75911  0.53562   4.91292  0.27588     0.01366  12655.31406   8309.05936  2.59297         2247.38358     17.99367  0.00055  57530.89063   4.69367  2.08996    4029037.20676  45.31239  17.24359  57584.43994    51.41928       44.55966   40.08189  53.44252   42.5    0.19975  -22.09016  0.95439 
   -4.65081   0.0028  0.83852     12.56295  1.88907  1.07597   9.02151   0.3247     0.01674  22896.68086   5895.89105  0.87768         4315.81899     18.40599  0.00141  57530.82917  28.21315  0.02525   92297281.73605  44.73288  17.05666  57591.77844    51.47745       44.59573   43.89921   59.1685   52.5    0.21869  -22.51015  0.99984 
   -3.23507  0.22553  1.11855      12.7589  1.84924   0.7768   4.42382  0.22769     0.06292  22664.52452   6405.51744  1.84558         2240.56102     19.06226  0.00641  57532.24491  13.55557  0.99771   65210933.28708  44.62421  17.25523  57582.76956    51.35295       44.55806   34.35591  47.71654   53.5    0.23694  -22.35924  0.98762 
   -4.82947   0.0057  0.80081     12.52648  1.59232  1.08224   9.59713   0.2391     0.01155  18275.73864   6111.72781  3.70409         2407.44463      18.3798  0.00133  57530.65051  19.12135  0.05471   83934181.94327  44.73988  17.50889    57587.274    51.47654       44.72518   28.62992  41.99055   58.0    0.17211  -22.40448  0.99962 
   -4.43601  0.06034  1.04515     12.69132  1.44403  1.41061   6.73484  0.33509      0.0199  20197.48223   6929.63152  2.88199         2615.89046     18.98064  0.00531  57531.04397  16.38887  0.40639   60688442.93947  44.60695  17.19141  57579.43994    51.34746       44.48901   38.17323  53.44252   48.5    0.22101  -22.36871  0.99554 
   -4.06696  0.43496  0.89212     12.74023  1.45768  0.57584   6.71337  0.18272     0.01461  16966.42205   6593.03485  1.33461         2675.17519     19.12029  0.00733  57531.41302  11.52784  2.92004   35633879.17593  44.97979  17.27781  57582.76956    51.33917       44.52146   34.35591   49.6252   53.0    0.20905  -22.22589  0.97096 
   -4.24219  0.02095  2.09534     13.69629  1.59678  0.52187   5.95222  0.26621     0.01635  12403.96237   6978.17815  3.83111         2554.33319     16.24043    1e-05  57531.23779   5.46295  0.12468    2636239.25614   45.4086  17.23978  57580.51734    51.41349       44.55604   36.26457  55.35118   46.0    0.20642  -22.16948  0.99649 
   -4.48451  0.00109  0.91507     12.74881  1.56699  0.69173    7.1557   0.2736      0.0115  15743.14745   3802.94829  4.72013         4551.01004     19.16716  0.00816  57530.99547  10.57943  0.00781   38739894.56655  44.95285  17.25095  57582.76956    51.32553       44.52923   36.26457   49.6252   48.0    0.22287  -22.71691  0.99993 
   -5.28999  0.02784  1.00068     12.77395  1.51456  0.92886   7.52298  0.27967     0.01334  17393.78682   4664.16414  0.39743         4837.03622     18.41006  0.00143  57530.18999  13.57706  0.20947   39884285.63558  44.84774    17.065  57580.51734    51.37572       44.50308   40.08189  55.35118   49.5    0.19057  -22.40988  0.99802 
   -4.71321  0.01949  0.71006     12.35771  1.72377  1.04451   6.79509  0.26688     0.02096  20371.76356   7335.26142  1.82608         5482.63463     17.15859    8e-05  57530.76677  16.82208  0.13244  155405757.64242  44.61127   17.5105  57589.52622    51.43439       44.69545   30.53858  43.89921   50.5    0.25228  -22.74177  0.99906 
   -4.91968   0.0091  1.45567     12.99578  1.56249  1.33532   4.74718  0.29613     0.01593   15369.2323   4013.59318  1.21028         2928.13729     17.74321  0.00031   57530.5603   6.68909  0.04322   31347286.73503  44.64034  17.14384  57580.51734     51.4053        44.5647   36.26457  53.44252   46.5    0.23027  -22.16512   0.9993 
   -5.11966  0.04967  1.74143     13.14496  1.79355  1.30724   6.25264  0.25039     0.01426  15167.00699    7558.7464  1.19194         3364.50977     18.56417  0.00204  57530.36032   8.58007  0.31058    25907758.8847  44.62732  17.36865  57579.56005    51.27813        44.4743   36.26457  47.71654   45.0    0.21709  -22.20144  0.99426 
    -4.0437  0.27232  1.10207     12.69026  1.60159   1.2466   9.49245  0.18011     0.01094  17395.13046   6909.44355  2.75471         4421.08415     19.24055  0.00967  57531.43628  17.13408  2.58496    75208829.5106  44.51271  17.17623  57584.43994    51.47084       44.59535   40.08189  57.25984   48.5    0.24624   -22.5237  0.97028 
   -4.95289  0.13782  0.96118     12.79444  1.68712  0.67693   4.72476  0.28669     0.01423  14485.53171   5253.85817  1.51079         3015.20769     17.71687  0.00029  57530.52709   5.91392  0.65118   37299536.20912  44.95868  17.10337  57580.51734    51.31404       44.52572   36.26457  47.71654   55.0    0.18063   -22.2098  0.99425 
      -4.83  0.00469  1.91991     13.13152  1.39958  1.30377   3.79764  0.10864      0.0591   7309.27927   6687.06531  2.78597         4192.43882     19.00171  0.00558  57530.64998   1.21029  0.01781   26141312.62216  44.43096  17.26258  57579.43994    51.34558       44.50058   38.17323  53.44252  104.0    0.08591  -22.27179  0.99943 
    -4.4266  0.02346  1.95661     13.27662  1.86633  1.40411   4.55249  0.31135     0.01931  16676.22639   7416.36239  0.27883         3220.08081     17.23058    9e-05  57531.05338   7.55217   0.1068   18559781.84849  44.68825  16.88868  57579.43994    51.35349       44.51775   38.17323  51.53386   39.5     0.2673  -22.16512  0.99777 
   -3.86396  0.01093  1.16137     12.84043  1.85257  1.01277   4.05277  0.28755     0.01011    12354.458   5117.62746  2.44919          3419.2333     16.41785    1e-05  57531.61602      3.69  0.04432   48381311.02282    44.722  17.15113  57582.76956    51.29391       44.52993   40.08189  43.89921   55.0    0.19859  -22.17543  0.99956 
   -3.37972  0.00161  1.74437     12.98136  1.92919   1.5096   4.01888  0.19936     0.06985  19386.84034   3072.37566  3.29756         2959.48944     16.06121    1e-05  57532.10026   9.01044  0.00649   59394000.01212   44.2972  17.33086  57582.76956    51.34578       44.56243   34.35591  45.80787   52.0    0.21864  -22.31051  0.99987 
    -3.8236  0.03849  1.93162     13.26491  1.87463  1.20252   5.19164  0.20404     0.01525  14003.09624   5498.18627   2.2498         2346.21298     16.38408    1e-05  57531.65638   6.07268  0.19984   19176197.94836  44.68716  17.38205  57582.76956    51.35595       44.57495   34.35591  45.80787   48.0    0.21888  -22.14879  0.99589 
   -3.64745  0.30003  0.96721     12.65215    2.012  1.04621   9.28315  0.19163     0.01061    18689.176   7377.16522  1.40731          3215.6051     18.94223  0.00486  57531.83253  19.34207  2.78519   86731483.76769  44.66326  17.25128  57584.43994    51.36886       44.53392   38.17323  51.53386   50.0    0.21507  -22.33347  0.97851 
   -3.64552  0.02727  1.04018     12.75725  1.47847  0.89321   7.13847  0.20904     0.01121  16315.42676   5009.03543  4.30907         2992.23995     17.13031    7e-05  57531.83446   11.3352  0.19465   45431489.39422  44.74708  17.32043  57582.76956    51.42891       44.63879    34.0841  47.98835   49.0    0.22516  -22.26646  0.99782 
    -5.3296  0.01443   0.9921     12.71506  1.70313  0.96185  10.44608  0.21231     0.01023  18265.67583    8945.6802   4.2763         2851.82149      18.9936  0.00547  57530.15038  20.78988   0.1507   57816452.67059  44.74493  17.22629  57582.76956    51.38857        44.5115   40.08189  55.35118   46.0    0.17893  -22.33036  0.99865 
    -5.1529  0.07373   0.8696     12.59575  1.55304  1.08548   6.66175  0.23086     0.01026  15282.10985   5349.69827  0.36656         5701.81823     16.47223    2e-05  57530.32708   9.28073  0.49119   70166258.28765  44.73526  16.95604  57584.43994    51.40335        44.5281   41.99055  57.25984   52.5    0.19153  -22.34917  0.99614 
   -4.76049  0.01329  1.04096     12.55131  1.77888  1.46642   2.27348  0.28565     0.04169  13451.98631   5716.90293  4.86386         2386.34951     16.25526    1e-05  57530.71949   2.45409  0.03022  141321061.42359  44.33391  17.04153  57589.52622    51.38509       44.50921   47.71654  57.25984   66.5    0.17785  -22.08171  0.99964 
   -5.00838  0.00235  1.07005     13.07897  1.65265  0.38032   3.72825  0.24644     0.01945  13907.33695   4510.22722  0.86842         3729.51234     16.04022    1e-05   57530.4716    4.3015  0.00876   12214106.15323  45.34136  17.46875    57587.274     51.4309       44.69596   34.35591  41.99055   55.0    0.20036  -22.20201   0.9999 
   -3.79452   0.0079  0.71954      12.3903  1.92966  1.43016   8.30499  0.27416     0.01617  23480.84765   7554.00648  0.18998          4119.6293     19.65611  0.02517  57531.68546  27.31453   0.0656  153748688.60599  44.65341  16.80806  57584.43994    51.41701       44.50881   45.34872  61.53632   47.0    0.23257    -22.496  0.99965 
   -6.38213   0.2495  0.74816     12.54473  1.68802  0.64916   14.1833  0.16696     0.01353   20594.5082   6515.78659  0.52949         4937.66478      17.9626  0.00051  57529.09785  35.88453  3.53868   71403575.63272  44.89452  17.28167  57579.43994     51.2072       44.46655   36.26457  41.99055   58.0    0.19534  -22.49611  0.97308 
   -4.41343  0.02268  1.29802     12.98754  1.65981  0.86124     7.421  0.13414      0.0105  15615.89815   9208.63207  0.22665         4268.44243     19.62626   0.0235  57531.06655  10.79502  0.16827   27501493.08834  44.82299  17.04139  57580.51734    51.35396       44.50047   38.17323  55.35118   39.5    0.22421  -22.23185  0.99781 
   -2.73321  0.04273  1.81498     13.16337  1.56231  1.27017   4.62517  0.09997     0.02226  14541.69763   4098.19512  0.03433         2019.22356     16.97116    5e-05  57532.74677   5.83425  0.19765   22520789.01816  44.59228  16.93556  57578.26512    51.34024       44.49243   40.08189  51.53386   49.0    0.21244  -22.10136  0.99527 
   -5.23335  0.00118  0.78394     12.46634  1.39439  1.05696   8.35453  0.24738      0.0116  16743.84912   9886.72596  3.93637         3494.11347     18.27547  0.00105  57530.24663  13.97204  0.00989   92913227.17346  44.65659  17.02629  57582.76956    51.22437       44.46883   41.17929  42.80181   49.5    0.14817  -22.39317  0.99992 
   -5.73288  0.00213  2.29445     13.62291   2.0922  0.53064   4.16109  0.20903     0.02492  12776.90525   4650.61041  0.59743          3419.6294     17.78049  0.00034   57529.7471   4.05216  0.00885    5806960.18847  45.10414  17.30026  57580.51734    51.26746       44.49762   38.17323  43.89921   52.5    0.19798  -22.09511  0.99978 
   -4.34807  0.03258  0.92262     12.67907  1.95487  0.90619  10.79499  0.22725     0.01221  22077.48318   3862.96979  2.07916         3064.48082     18.40577  0.00141  57531.13191  31.38689  0.35175   67738237.92441  44.79908  17.07069  57580.51734    51.37609       44.49057   41.99055  57.25984   46.5    0.22023  -22.40639  0.99746 
   -4.72138  0.01616  0.81219     12.68816  1.94547   0.6541   8.83785  0.29374     0.01073  19665.34016   4459.91858  2.71834         3532.75358     17.27322   0.0001   57530.7586   20.3881  0.14285    50099692.5942  45.03872  17.10037  57578.26512    51.35594       44.50554   36.26457  53.44252   49.5    0.20454  -22.35762   0.9991 
   -4.77011  0.01134  0.92219      12.8109   1.5437  0.61227   4.61951   0.3202       0.011  12735.10051   5331.93221  2.97413         5499.97639     17.91454  0.00046  57530.70987   4.46918  0.05237    29122260.2818  45.06354  17.24245    57587.274    51.40844       44.52741   41.99055  57.25984   48.0    0.22217  -22.83338  0.99953 
   -5.20207   0.2132  0.71522     12.39502  1.88035  1.00682   8.66519  0.22699     0.01169  18328.59412   6206.13047  4.40991         2194.24029     18.94345  0.00488  57530.27791  17.36454  1.84739   144843228.7803  44.67331  16.92716  57579.43994    51.33558       44.46087   40.08189  55.35118   56.5    0.19401  -22.26509  0.98826 
   -4.80126  0.04047  1.57931      13.1142  1.73089   0.8753   5.33546  0.32872      0.0232  15979.44905   5603.93018  3.75268         3970.98355     18.91349  0.00455  57530.67872   8.12686  0.21591   23692552.28039  44.73557  17.31626  57580.51734    51.31498       44.51954   38.17323  45.80787   47.5    0.23531   -22.4933  0.99626 
   -4.71119   0.0803  1.19663     12.67169  1.62005   1.1124   7.67467  0.08881     0.03515  16987.39669   5627.79026  0.47529         4114.12526     18.74742  0.00311  57530.76879  13.21115  0.61629   97694628.59861  44.33258  17.08676  57580.51734    51.38955       44.50025   39.20277  58.13896   67.5    0.16109  -22.23729  0.99011 
   -5.11084  0.00436  1.05211     12.84028  1.48839  0.67144    5.1581  0.27066     0.01745  15611.89228    4595.6765   1.7511         4182.27861     16.90103    4e-05  57530.36914   7.49943  0.02249   31923155.20244  44.89333  17.10945  57579.43994    51.35564       44.50699   38.17323  53.44252   49.5    0.22724  -22.36363  0.99973 
   -4.49697  0.03234  1.05067     12.81948  1.60686  0.80495   8.87832  0.19837     0.01084  17328.92903   8459.17612  1.42489         3923.24655     18.36163  0.00128  57530.98301  15.90381  0.28717   37823285.22444  44.85413  17.30298  57580.51734    51.37507       44.51714   34.35591  55.35118   46.0    0.21423  -22.39361  0.99709 
   -4.49539  0.09767  1.46702     12.94207  1.41374  1.32484   6.32858  0.17235     0.01248  12935.36555   9510.12899  3.42559         2872.70196     16.30206    1e-05  57530.98459    6.3167  0.61814   36890266.32311  44.51943  17.24689  57580.51734    51.27778       44.48816   36.26457  47.71654   44.0    0.20593   -22.1484  0.98794 
   -5.31315  0.00126  0.77474      12.3186  1.89567  1.20791  11.75804  0.09002     0.01481  17826.85677    4842.2374  2.08354         4630.80249     19.81192  0.03603  57530.16683  22.29009   0.0148  243604435.64991  44.38161  16.84769  57580.51734    51.31925       44.51596   41.17929   48.5278   52.5    0.22745   -22.5624  0.99986 
   -4.98011   0.1783  1.20919     12.89524  1.85345  0.92068    7.2226  0.31914     0.01576  18616.95023   4750.31578   2.4489         4065.01449     17.41972  0.00015  57530.49987  14.93268  1.28778   40767046.75094  44.76152  17.21884  57582.76956    51.31802       44.49805   40.08189   49.6252   47.0     0.2211  -22.47191  0.98643 
   -4.61712  0.03575  0.88439     12.53547  1.37872  1.13909   6.98214  0.18565     0.01041  14571.60651   3405.96441  2.46402         2999.52232     17.27639   0.0001  57530.86286   8.84363  0.24959   85043272.65016  44.58539  17.26107  57579.56005    51.32414       44.49939   34.35591  51.53386   54.5    0.19895  -22.20163  0.99749 
   -4.40313  0.18993  0.76184     12.57839  1.94275  0.71194    6.8978  0.24681     0.01328  17114.25074   9492.95856  4.70956         3091.42307     20.45404  0.15804  57531.07685  12.05184  1.31011   72977551.93421  44.93034  16.92002  57579.43994    51.35967       44.51333   40.08189  53.44252   47.5    0.18646  -22.46721  0.99179 
   -5.82807  0.19345  0.90464     12.55108  1.65667  0.93015  10.78545  0.11216     0.01587  16433.14807   8676.57041  1.15758         5964.14693     20.28375  0.10678  57529.65191  17.37428  2.08641   99502729.06117   44.5773  17.10805  57582.76956    51.45837       44.56336   41.17929  59.97976   56.5    0.20242  -22.70318  0.97913 
