 log(Bfield)      Mns    Pspin  cutoff_power  cutoff_wavelength  fnickel    kappa  kappagamma   mejecta  log(nhhost)  temperature  texplosion  thetaPB      vejecta      A_V        MJD_0   log(KE)      M_Ni  Peak_mag     Peak_MJD 
    13.77137  1.59971   2.3436       1.60728         2395.82457  0.13355  0.07462     0.34577   11.9601     16.47672   4663.16992   -10.40113  0.79068   8181.10882    2e-05  58625.84887  52.44191   9.25337  19.11267     58692.18 
    13.57064  1.66489  2.43758       1.47033         2533.71565  0.01344  0.08289     0.11496   7.84301     17.42031   3284.03582    -9.76278  1.35834   8353.77753  0.00015  58626.48722  52.42002   0.84909  19.12658   58689.3512 
    13.65182  1.50429  2.05361       0.65992         2549.91372  0.04064  0.19127     0.10903   3.61555     19.06099   6521.43471   -11.82151  0.47489  10183.80634  0.00639  58624.42849  52.50734   2.11272  19.06372  58692.83907 
    14.22532  1.72119  1.78095       1.15929         2026.07049  0.07571  0.19685     0.30485   8.04691     19.73097   8423.64208    -6.90831  0.46498   8553.70332   0.0299  58629.34169   52.4431   4.81167  19.05855     58692.18 
    14.35245  1.39993   1.9276       1.50016         2573.96092  0.12938  0.24711     0.12147   5.29168     17.72898   7909.14981    -9.52313  0.17668   8049.16104   0.0003  58626.72687  52.34676   7.43852  19.10945  58690.30826 
    13.99151  1.91315  2.57764       1.30068         2603.46365  0.01171   0.1607     0.02266   6.34396     19.37777   8453.13282    -9.72054  0.60894   8387.98804  0.01326  58626.52946  52.40195    0.7039  19.09339      58692.2 
    13.61434  1.42524  2.06272       2.61976         2368.58148  0.06482  0.09293     0.07518    5.9647     18.91632   7131.55192    -9.94321  0.54229   8058.22204  0.00458  58626.30679  52.36063   3.83913  19.14747   58689.3512 
    13.43507  1.67027  2.08823       1.45116          2940.9505  0.00558  0.07914     0.01165   5.58618     19.19434   9339.73707   -10.29793  0.78623   7778.50859  0.00869  58625.95207  52.32293     0.325  19.08949  58694.27679 
    14.30588  2.05652  2.52623       0.85265         2685.60483  0.19263  0.03132     0.04588  22.25025      20.5827   6707.76457    -9.97765  0.23416   8795.61707  0.21253  58626.27235  52.55773  15.07639  19.12648     58692.18 
     13.5036  1.84857  2.53039        0.5983         2316.39476  0.05351  0.05292     0.42977   9.84268     18.65016   7464.69586    -9.32599  1.52093   10297.1416  0.00248  58626.92401  52.62369   3.55686  19.12149  58694.27679 
    13.40951  1.78545  2.40163       0.76544          2763.6149  0.02093  0.15197     0.17323   2.97347     18.96402   4654.10683    -8.58222  1.46397  10509.54578  0.00511  58627.66778   52.5104   1.02871  19.10624     58692.18 
    13.75503  1.82803  2.58831        2.6403         2668.73448  0.30336  0.12395      0.2105   7.01502     16.32447    8067.5499    -9.23041  1.22686   6666.85101    1e-05  58627.01959  52.21286  18.67843  19.08708      58692.2 
    13.66052  1.86738  2.49148       2.65273         2582.87725  0.11091  0.02525     0.01517   28.9507     20.26827   5412.98914    -9.46324   1.5294   6663.53609  0.10304  58626.78676  52.33724   9.10279  19.07775     58692.18 
    13.81966  1.96398  2.13535       3.62613         2015.96101  0.25011  0.01977     0.01468  31.09712     20.84936   5233.66478    -9.14578    0.658   7750.63247  0.39272  58627.10422  52.47394  20.78605  19.13903  58690.30826 
    13.52661  1.64414  2.30619        2.0633         2464.61813  0.08505  0.09588     0.04259   7.18572     18.66456   7378.77553   -13.42328  0.86324   8477.36462  0.00257  58622.82672  52.42398   5.26618  19.11552     58692.18 
    13.87743  1.69775  2.08472        1.2888         2511.01915  0.01322  0.18174     0.03215   8.51044     18.12247   3370.78941    -7.81291   0.9618   8665.82659  0.00074  58628.43709  52.45991   0.85085  19.08686     58692.18 
    13.53462  1.83517  2.53128       2.70039         2000.17118    0.132  0.11292     0.04564   5.43588       16.993   8927.65035   -10.04655  1.54465   8945.02576    5e-05  58626.20345  52.44135   7.64095  19.11942  58693.27526 
    13.84861  1.91494  2.51313       2.23814         2406.91213  0.08101  0.08821     0.40727  13.58875     18.68465     3719.963    -7.87784  1.34562   8074.32885  0.00269  58628.37216  52.44192   5.76298  19.10002  58694.27679 
    13.34005  1.72899  2.28206       1.52865         2832.36313  0.03524   0.0465     0.02029   8.27733     16.72344    8699.4554   -11.19699  1.35856   8031.51077    3e-05  58625.05301  52.39117   2.25399  19.12214  58690.30826 
    13.61825  1.52982  2.37148       1.87306         3041.38701  0.00949  0.03218     0.04763  19.74002     18.05214   6683.77112     -8.3877  1.28372   6238.66462  0.00063   58627.8623  52.24967   0.72665  19.09419  58690.30826 
    13.30645  1.51574  1.93497       1.40756         2293.54489  0.00659   0.1151     0.07246   5.57455     20.31373   3273.30396   -12.29397   1.5046   9571.39247  0.11441  58623.95603  52.50286   0.38376  19.14323  58690.30826 
    14.06418  2.15427  2.55381       1.97248          2468.1057  0.00179  0.15594     0.03967   9.13474     18.66593   7461.21069    -6.11038  0.98453   8620.06134  0.00257  58630.13962  52.46217   0.11718    19.111     58692.18 
    13.75962  1.68901  2.41697       1.54426         2777.20209  0.11618  0.02483     0.04695  45.35712     17.00818    3618.3859    -8.14452  1.51387   7536.77846    6e-05  58628.10548  52.47727  10.28984  19.13465     58692.18 
    13.82513  1.77943  2.41458       2.90446         2202.17994   0.1652  0.19542     0.04508   5.61337     18.78137   9481.80839    -7.41791  1.20623   8249.86314  0.00336  58628.83209  52.37456   9.63916  19.12691  58690.30826 
    13.78057  2.15549  2.83663       1.97124         2439.61835  0.08487  0.21669     0.10854   4.88118       19.457   4446.99588   -12.55032   1.3245   8219.82527  0.01591  58623.69968  52.35608   4.78042  19.11976  58690.30826 
     13.5427  1.44287   2.0369       1.78896         2703.34338  0.06905  0.14471     0.01396   6.09451     17.51047    5941.3969   -12.09574  0.75009   8009.58402  0.00018  58624.15426  52.35764   4.11097  19.10009  58693.27526 
    13.70459  1.47432  2.03473       0.93302         2581.25892   0.0744  0.19113     0.34196   6.56652     17.28629   9606.96676    -8.04601  1.52398   8945.06523  0.00011  58628.20399  52.46139   4.51018  19.09894     58692.18 
    13.69005  1.72788  2.56808       0.69629         2102.28134  0.30021  0.13145     0.16367   5.70535     19.36054   5600.77581    -8.22257  1.11517   9894.81753  0.01274  58628.02743  52.53422  17.58767  19.10711     58692.18 
    13.66181  1.32497  2.05505       1.37045         3129.21167  0.11056  0.08483     0.01585   6.34586      18.0833   8873.69951   -10.44769  0.53897   6853.24937  0.00067  58625.80231  52.22646   6.64713  19.10372  58690.30826 
    13.57059  1.91865  2.65678       1.15815         2427.76957  0.12258  0.05371     0.02429  11.23134     16.39536    5257.9633   -11.57915  1.48072   8794.28444    1e-05  58624.67085  52.49895   8.38204  19.12073     58692.18 
    13.63641  1.95402  2.60846       1.72215         2633.72651  0.00914  0.06371     0.41542   8.74262     16.39893    3130.0169   -10.81856  0.87113   7985.21357    1e-05  58625.43144  52.39148   0.59209  19.14102  58690.30826 
    13.61616   1.6062  2.15975       2.58308         2430.12968  0.02235  0.03058     0.39973  30.12562      20.0634   3246.52895    -9.77277  1.34214   7032.99861  0.06429  58626.47723  52.38714   1.84754  19.08958  58690.30826 
     13.6893  1.89386  2.62403       1.38674           2788.175  0.00863  0.07195     0.25705  12.87075     16.53009   8161.80314   -10.33044  1.43343   8034.08626    2e-05  58625.91956  52.43276   0.60696  19.09598     58692.18 
    13.96879  1.86952  2.57313       1.82561         2280.03413  0.00812  0.10582     0.16198   9.62309     17.51384   9772.05492    -9.86525  0.56551   9028.17005  0.00018  58626.38475  52.50732   0.53733  19.16919  58690.30826 
    13.73812  1.89739  2.73061       1.26073         3091.07792  0.03502  0.12033     0.06648   6.37502     18.03802   6366.85132    -9.01516  1.33904   7517.13885  0.00061  58627.23484  52.30725   2.10791  19.09421     58692.18 
    13.84402  1.82673  2.45703       1.21447         3454.33508  0.00136  0.11838     0.04633   8.15662     18.74733   6244.57866    -8.60645  1.18166    6522.2436  0.00311  58627.64355  52.20892   0.08644  19.09142      58692.2 
    13.58875   1.5996  2.29221       1.69219         2575.21611  0.00208  0.08524     0.25704   7.59082     19.71644   7826.97698    -8.86594  1.01817   8077.57449  0.02892  58627.38406  52.38755   0.13044   19.0776     58692.18 
    13.76761   1.7916  2.63007       0.97553         2607.11216  0.32571  0.05936     0.08702  12.31908     19.73229   4461.57683   -10.69234  0.65798   9969.22113  0.02999  58625.55766  52.61628  22.70758  19.11835     58692.18 
    13.38716  1.62003  2.12177       2.74859         2112.07909  0.01374  0.07031     0.19439   6.87574     20.08562   6211.20815   -10.58729  1.47766   7952.17551  0.06766  58625.66271  52.36394   0.84181  19.12467  58690.30826 
     13.4132  1.72851  2.24143       1.53595           2200.134  0.00779  0.11972     0.14297    5.0493     18.20888   5973.74978   -12.33356  1.20256   9331.67741   0.0009  58623.91644  52.47003   0.44275  19.16884  58689.33228 
    14.08177  1.69931  2.22523        1.6884         2570.79211  0.03809  0.17236     0.21114   6.77566     16.64344   5691.65321    -8.06348   0.5349   7561.70303    2e-05  58628.18652   52.3187   2.32636  19.17716  58689.33228 
    13.79753  1.95616  2.61378       1.28936         2953.00134  0.06636  0.21275     0.02235   5.04565     18.58706   4885.55646    -9.39171  1.42492   7715.65842  0.00215  58626.85829  52.30478   3.76997  19.11911     58692.18 
    14.26186  1.79151  2.11248       1.17555         2551.11999  0.04401  0.15191     0.14434  11.39776     16.36401    4645.6043     -9.1221  0.36931   8560.25085    1e-05   58627.1279  52.47687   3.01848  19.08971     58692.18 
    13.49752  1.37515  1.88372       1.56021         3001.47529  0.00876  0.21878      0.0107   5.17931     19.02115   5069.68412   -10.76391  1.46285    6784.9778  0.00583  58625.48609  52.19601   0.50077  19.03502  58694.27679 
      13.443  1.58065  2.27643       2.43902         2205.22933  0.00859  0.19553     0.18529   3.29429     16.19951   3041.35224    -11.1939  1.49078   8545.27365    1e-05   58625.0561  52.34359    0.4348  19.10686      58692.2 
    13.89399  1.83155  2.56726       1.72588         2491.44071   0.0091   0.2233     0.08247   4.64419     16.38486   7941.95199    -8.30381  0.87388   8380.18767    1e-05  58627.94619  52.36727   0.50629   19.0993  58692.83907 
    13.85124  1.86796  2.54676       2.03678         2528.97509  0.01075  0.15709     0.01583   5.57082     16.35058   3278.35041    -9.01614  0.66069   8178.45994    1e-05  58627.23386  52.36618   0.62605  19.11766  58690.30826 
    13.78614  1.66261  2.25751       1.41907          3001.0443    0.064    0.139     0.02054   8.33712     18.18122    7595.8839    -9.49872  0.96549   7168.97766  0.00084  58626.75128   52.2932   4.10074  19.08864  58692.83907 
    13.78284  1.62202  2.34089       1.89936         2882.22501  0.08685  0.10584     0.03616   7.61757     19.01156   7442.50807    -8.40688  0.94569   6221.92255  0.00571  58627.84312  52.16119   5.45118  19.06718      58692.2 
    14.06967  1.62564  2.59858       1.30282         2990.27184  0.16521   0.0163      0.0574  37.42461      20.1171   3927.23792    -7.71816  0.33252   8735.17639  0.07275  58628.53184  52.59159  14.17255  19.10548  58690.30826 
    14.32255  1.58598  2.31959       1.96669         2605.60364  0.44308  0.11269     0.01059   7.80862     19.08778   6182.44102    -9.55257   0.1815    7439.0852   0.0068  58626.69743  52.31885  27.96818  19.08324  58694.27679 
    13.56298   1.9103  2.15208       0.94786         2796.81736  0.14249  0.15429     0.01262   4.91574     20.36187   4489.93462   -11.90003  0.94949   8065.95846  0.12782  58624.34997  52.34045   8.04082  19.12581     58692.18 
    14.02158  1.93154   2.7665       1.86494         2751.97493  0.01552  0.02074      0.2177  29.14889     16.44658   6223.59036    -9.68342  0.46072   7076.47722    2e-05  58626.56658  52.38998   1.27564  19.16226  58689.33228 
    14.23247  1.81369   2.4977        0.8905         2106.06737  0.00147  0.21906     0.21451   4.85276     17.13967   4217.89914   -11.27407  0.28488   9795.46333    8e-05  58624.97593  52.50775   0.08265  19.11324  58690.30826 
    13.42364  1.20507  1.89257       0.70817          2714.8711  0.03778  0.06681     0.09096   9.62353     17.20161   8995.88024    -9.87476  0.76426  10399.76084    9e-05  58626.37524  52.63017   2.49898  19.10157   58689.3512 
    13.68371  1.64336  2.24456       3.20828         2115.93393  0.02434  0.06906     0.02064   9.30212     20.03354    6505.9928   -11.03116  0.71429   7725.40019  0.06002  58625.21884  52.36873   1.59783  19.07557  58693.27526 
    13.89011  1.74947  2.34087       1.94721         2445.77492  0.00216  0.28114     0.04351   4.05476     19.55234   6511.49174   -10.80113  0.58118   8717.53212  0.01982  58625.44887  52.38595   0.11584  19.16986  58689.33228 
    13.69399  1.66041  2.47947       2.07892         2207.29584  0.19891  0.06307     0.02331  15.02595     17.07492   4714.27051     -9.6264  1.50119   8507.45857    7e-05   58626.6236   52.4961  14.43831  19.19935  58689.33228 
    13.73117  1.56897   2.2351       1.24167         2737.07512  0.01698  0.14587     0.06447   6.58932     16.62578   9981.36582   -11.20131  0.84344   7767.07055    2e-05  58625.04869   52.3391   1.03008  19.11281     58692.18 
    13.80133  1.67014  2.04823       2.37761         2503.06176  0.04787  0.09598     0.01113   8.56025     20.45374   3523.78733   -10.99391  0.50245   7466.96358  0.15793  58625.25609  52.33115   3.08555  19.14219  58690.30826 
    13.89358  1.96306  2.62238       1.95472         2601.50946  0.30631  0.11509     0.01319   5.89577     19.01565   9722.35009   -10.40985  0.51301   7637.75633  0.00576  58625.84015  52.31284  18.09061  19.11477  58690.30826 
    13.65173   1.7614  2.59515       2.01836         2475.18125  0.04838  0.04396     0.01595  14.58635     16.06881   3870.13014    -9.94623  1.29202   7428.57805    1e-05  58626.30377  52.37573   3.49128   19.1394  58693.27526 
    13.63597   1.4367  2.39111       2.15251         2681.95404  0.31178  0.04648     0.05094  17.93254     18.82734   6606.74528    -8.93555  1.45481   7367.26369  0.00373  58627.31445  52.38615  23.42883  19.11751     58692.18 
    13.39483  1.24006  2.01716       2.33544         2359.01448  0.24551  0.04808     0.07694  14.51514     18.13526   6205.40806    -9.59846  1.22658    8074.6039  0.00076  58626.65154  52.44774  17.69867  19.11081      58692.2 
    13.77069  1.77621  2.66502       1.61712          2290.2275  0.15279  0.04191     0.06105   14.4596     18.94001   3569.61188    -8.35007  0.78328   8789.33872  0.00484  58627.89993  52.52107  11.00569  19.08502  58693.27526 
    13.69131  1.76466  2.63066       1.00515         3208.27669  0.24616   0.0969     0.05459   5.32984     18.13043   9386.66172    -8.97165  0.78156   8512.18991  0.00075  58627.27835  52.39613  14.17897  19.10407     58692.18 
    13.25323  1.63258  2.01985       1.48013         3267.21998  0.45497  0.04814     0.01287   8.61139     20.34003   4573.60977    -9.55197  1.48584   7351.71587  0.12155  58626.69803  52.31822   29.3628  19.10109     58692.18 
    13.52269  1.59627  2.41333        1.3184         3224.60227  0.00327  0.11892      0.0496   4.90081     16.02171   6486.38095   -10.41354  1.35743   7206.62917    1e-05  58625.83646  52.24226   0.18422  19.08872  58694.27679 
    13.66304  1.50711  2.11155       0.68798         3121.34789  0.04666  0.16501     0.44278   6.65519     18.67204    7034.0894   -10.44792   1.2753   8142.77827  0.00261  58625.80208  52.38116   2.83774  19.08903  58692.83907 
    13.94538  1.66798  2.27674       1.36398         2864.61204  0.41372  0.03484     0.11218  12.01159     20.35769   6079.56512    -9.73678  0.30037   7575.64765   0.1266  58626.51322  52.37552  28.69179   19.0944     58692.18 
    13.72401    1.567   2.2512       1.93364         2429.63834  0.01447  0.05491     0.07367  18.31026     18.22651   6811.52906   -10.50788  0.83454   8318.14063  0.00094  58625.74212  52.49333   1.09197  19.05939  58696.34587 
    13.86595  1.95916  2.68202       2.05962          2425.9344  0.02274  0.06642     0.07765   8.89807     19.56889    7292.7949   -10.09746  0.61769   7665.56789  0.02059  58626.15254  52.35771    1.4785  19.11394  58690.30826 
    13.86678  1.80702  2.45423        1.3592         2696.65613  0.01528  0.15498     0.02694    7.0114     16.62291   5045.99365     -7.3043  1.13757   8221.07177    2e-05   58628.9457  52.39482   0.94064  19.12171  58692.83907 
    13.63255  1.49895   2.0918       1.64875         2726.61965  0.10528  0.12555     0.03502   5.84411     20.10337   5146.11408   -10.97536  0.71406   7721.79166  0.07049  58625.27464  52.32141    6.2045  19.08019      58692.2 
    14.13877  1.85312  2.49739       0.92968         2669.78248  0.00193  0.26767     0.10226   4.13641     19.15452   5947.27377   -10.02625  0.34923   9382.46144  0.00793  58626.22375  52.45212   0.10396  19.04031  58694.27679 
    13.76201  1.73187  2.38942       1.85679         2492.63535  0.00106  0.29455     0.07828   3.66911      19.1169   7578.31564    -8.19298   1.1332   8470.93091  0.00727  58628.05702  52.34916   0.05529  19.08804  58692.83907 
     13.7717  1.91708  2.64736       2.29927         2529.05887  0.03685   0.1828     0.13858   4.66942     19.66186   9353.83914    -8.00503  1.54439   7806.18286   0.0255  58628.24497  52.30625   2.05214  19.10654  58692.83907 
    13.77095  1.77612  2.51599       0.84559          2950.4988  0.00601  0.16255     0.02666   6.09574     18.35944   7912.93522    -8.22599  1.25156    8939.6555  0.00127  58628.02401  52.45309   0.35809  19.10348     58692.18 
    13.78198  1.83481  2.56846       2.88375         2629.48854  0.00157  0.07449     0.12966  10.10913     18.68464   3432.55762    -8.18717  1.23706   6004.12808  0.00269  58628.06283  52.15767   0.10503  19.08844  58694.27679 
    14.12352  2.02948   3.1228       1.08423         3045.54425  0.21738   0.0298     0.01417  23.76249     16.43579   3063.63469    -8.55407  0.43542    8392.2574    2e-05  58627.69593   52.5222  17.22018  19.11077  58690.30826 
    13.82885  1.75786  2.48379       2.33047         2671.11371  0.00233   0.0677     0.09233  11.70491     17.38365   3784.03453   -11.24931  0.76816   6399.71627  0.00013  58625.00069  52.22665   0.16103  19.10335  58694.27679 
    13.81348  1.73058  2.39805       1.29752         2906.11702  0.01096  0.15332     0.09678   6.43452     17.09587   5451.49251    -7.60523  1.17612   7588.70759    7e-05  58628.64477  52.31645   0.66117  19.06793      58692.2 
    14.10069  1.51074  2.33065       1.03825         2712.09994  0.07203  0.02016     0.02146  41.83501     18.81126   5941.84354   -10.67074  0.30886   8382.21651   0.0036  58625.57926  52.56384   6.29493  19.11662  58690.30826 
    13.81049  1.92409  2.67976       1.24469         2805.06728   0.0121  0.03005     0.15113  28.51714     18.85931   6284.39995   -10.21845  0.86046   8130.97941  0.00402  58626.03155  52.50896   0.99042   19.1401  58690.30826 
    13.98145  2.00497  2.56457         1.165         3078.88953  0.05242  0.19895     0.04896   5.60239     18.59794   9498.21638    -7.01993  0.97617   7661.20319   0.0022  58629.23007  52.31004   3.05692  19.12219  58690.30826 
     13.5954  1.92476   2.6132       1.68313         2008.22205  0.00198  0.13052     0.04837   5.01698     16.63336   7928.45651    -9.28376  1.19626   9897.69328    2e-05  58626.96624  52.52047    0.1124  19.13486  58690.30826 
    13.26817  1.70846  1.98418       1.86689         2568.27244  0.01937  0.08015     0.01061   6.89036     16.36456   6989.43459   -11.89297   1.1529   8248.87736    1e-05  58624.35703  52.39597    1.1874  19.13112  58692.83907 
    13.33046  1.58682  2.08811       2.46073          2247.9501  0.00815  0.11734     0.02991   4.19667     16.67042   6099.26638    -9.77694  1.21147   8527.22746    3e-05  58626.47306  52.37078   0.44142  19.11023  58694.27679 
    13.50328  1.78775   2.3137       1.40062         2494.87139  0.00338   0.1053     0.07973   4.94355     20.22854   7782.99779     -9.3046  1.43781   8208.29421  0.09403   58626.9454  52.35627   0.19084  19.08928  58694.27679 
    13.64813   1.7213  2.47529       1.80247         2429.69526  0.32241  0.12931     0.01337   7.21025     16.53841   9700.18325    -9.80649  1.39382   8374.29404    2e-05  58626.44351   52.4137  19.97937   19.0758  58692.83907 
    13.66176  1.61749  2.27102       1.95805         2506.95148   0.0367    0.137     0.01692   6.55928     18.85714   3315.26883   -10.00467  1.14556   7454.19206    0.004  58626.24533  52.30291   2.22407  19.11567  58690.30826 
    13.65168  1.47166  2.26074       2.99544         2216.26549  0.06554  0.05001     0.02042   12.5637     18.74172   6770.54201    -9.80626  0.72084   7834.27452  0.00307  58626.44374  52.40873   4.58792  19.14619  58690.30826 
    13.71129   1.8327  2.71224       1.51837         3025.66009  0.00704  0.08213     0.01857   7.85898      17.6743   6581.49129    -8.35241  1.07366   7520.11073  0.00026  58627.89759   52.3289   0.44505  19.11283     58692.18 
    14.38429  1.84193  2.54511       2.10713         2412.69515  0.12051  0.23646     0.04024   4.54993     18.66595   8945.08109    -9.02457  0.21904   8237.45974  0.00257  58627.22543  52.35003   6.66557  19.18295  58690.30826 
    14.14432  1.71542  2.06714       1.05884         2451.22748   0.0115  0.06803     0.03051  21.62505     16.56202   5636.32391    -7.44747  0.50871   8563.71948    2e-05  58628.80253  52.53223   0.89549  19.12305     58692.18 
    13.79688  1.87804  2.75006       1.12531         2971.81858  0.38445  0.05784     0.02662  12.71961     18.69466   9328.27416   -10.99606  0.68154   8156.07477  0.00275  58625.25394   52.4448  26.98029  19.12272   58689.3512 
    13.38385  1.87382  2.33128       1.07836         3129.70071  0.04333  0.07947     0.01541   5.54742     19.26437   4102.71442   -11.42765  1.50126   7912.82555  0.01021  58624.82235  52.33705   2.52096  19.08125  58694.27679 
    13.74003  1.67464  2.26746       3.82895         2006.10854  0.02811  0.12653     0.02904   9.54145     16.68325   6056.19855    -7.41375  1.25519   8959.01848    3e-05  58628.83625  52.49983   1.85616  19.13652  58693.27526 
    13.85017  1.72668  2.28171        2.3759         2095.85773  0.00282  0.15352     0.09369   3.75065     18.71297   8408.01218     -9.0868  0.37914   9714.41496  0.00287   58627.1632  52.47077   0.14794   19.0752  58694.27679 
    13.79174  1.68902  2.44393       1.17975         2784.98712  0.00202  0.11614     0.17349   6.15922     18.08756   7241.29186   -10.42119  0.65183   8213.06034  0.00068  58625.82881  52.38055   0.12067  19.09602     58692.18 
    13.87376  1.65747  2.22833        0.7881         2966.93255  0.00158  0.31174     0.09486   3.99112     18.79131   6593.98732    -8.42214  0.84072   8704.46185  0.00344  58627.82786  52.38279   0.08449  19.11877     58692.18 
    13.98666  1.48077   2.2636        2.1087         2666.86339  0.01984  0.02423     0.23579  25.24077     18.16125   4279.33745    -9.89347  0.35918   6648.52022  0.00081  58626.35653  52.32466   1.58897  19.11952  58689.33228 
    13.43089  1.29446  1.98737       2.07508         2336.35451  0.00464  0.22015     0.05352   3.89863     19.09657    8294.6043   -11.43602  1.33133     8324.356  0.00694  58624.81398  52.34124   0.24613  19.14603     58692.18 
    13.61409  1.63304  2.33333       1.32986         2494.07924  0.01226  0.19826     0.06207   4.39459     18.44601   6918.64218    -9.30217  1.55985   8545.44297  0.00155  58626.94783  52.37795   0.67175  19.13423  58690.30826 
    13.70522  1.60469  2.17726       2.24265         3305.25112  0.00559  0.01577     0.02316  42.00761     19.27599   6164.87246    -8.47977  1.43063   3981.13649  0.01049  58627.77023  51.91743   0.48912  19.13793   58689.3512 
    13.65069  1.46566  2.09715       1.85828         2716.74089  0.13314  0.05906      0.0627  10.52907     20.14974   5508.26965    -9.61522  0.54281   8498.25608  0.07843  58626.63478  52.46324   8.97951  19.08355  58693.27526 
    13.44644  1.20947  1.92679        0.7995         3503.69466  0.09616  0.07375      0.1809  10.29975     16.22879   3743.63205   -11.38287  0.94713    8005.2971    1e-05  58624.86713  52.40928   6.45488  19.10273  58693.27526 
    13.47766  1.62393  2.21947       1.23144         3198.40823  0.25924  0.16494     0.01396   4.58824      18.2354   9787.68292   -12.56221  1.11559   7206.89179  0.00096  58623.68779  52.23489  14.37067  19.16935  58689.33228 
    13.77853  2.16023  2.93457       1.69096         2756.12786  0.00461  0.10565     0.01527   6.81519     17.27613   8944.79407   -11.86703  1.24745   6983.56524   0.0001  58624.38297  52.25021   0.28221  19.13294  58693.27526 
    13.97616  1.60336  2.01842       3.13942         2229.62415  0.01154  0.21046     0.14241   5.95984     17.51061   7965.93978     -6.4979  0.68186   7632.99993  0.00018   58629.7521  52.31345   0.68335   19.0821  58694.27679 
    13.72415  1.73475  2.39077       1.41813         2900.90844  0.00469   0.1023       0.019   8.74184     19.40389   3638.89795    -8.06235  1.47728   7347.92754  0.01408  58628.18765  52.31923   0.30386  19.09955  58692.83907 
    14.03242  1.97781  2.65339       1.84709         2352.65526  0.27535  0.14751     0.05953   8.51478     16.83598   6212.73717    -8.36959  0.74153   8879.92302    4e-05  58627.88041  52.48116  17.72536  19.12626  58692.83907 
    13.87289   2.1724  2.31283       1.20942         2756.81492  0.05445  0.17441     0.01491   7.21616     20.54268   4790.15839    -8.60725  1.24698   8437.91501  0.19383  58627.64275  52.42036   3.37516  19.10282  58690.30826 
     13.5022  1.62452  1.83115       1.62727         2771.01142  0.05008  0.06953     0.01268   9.29956     20.78484   5513.48456   -10.40368  0.93255   7697.61374   0.3385  58625.84632  52.36557   3.28744  19.15493  58690.30826 
    13.41325  1.75064  2.42457       1.43004         2949.01476  0.00421  0.07515     0.04756   4.33907     17.13556    5285.2494    -8.70836  1.50821   7511.15356    8e-05  58627.54164  52.26443   0.23024  19.10432  58692.83907 
    13.84095  1.79871  2.27354       1.47729         2691.10672  0.00198  0.07818     0.10177   8.37033     20.42546   3787.70645   -10.36992  0.49512   8248.10739  0.14797  58625.88008  52.41538   0.12694  19.06882  58693.27526 
    13.86368  1.82832  2.49776       1.18488         2753.18289  0.03118  0.06953     0.08101  13.81437     18.57649   5723.56213    -8.85759   1.0654   7695.26483   0.0021  58627.39241  52.40161   2.22551  19.07741  58690.30826 
    13.89801  2.01051  2.47924       2.15135         2771.38109  0.04795  0.08048     0.03383   8.20293      20.5063   4995.04272    -9.18108  0.65254   6750.16436  0.17825  58627.06892  52.23932   3.06095  19.16086   58689.3512 
    13.66713  1.36618  1.79088       1.40097          2913.1882  0.02121  0.12075     0.01645  10.37797     19.73168   8800.17129    -8.02682  1.35099    7131.9593  0.02995  58628.22318  52.30965   1.42592  19.13704  58690.30826 
    13.79773  1.83933  2.74274        2.2405         2407.62027   0.1793  0.03175     0.43024  28.42241     16.00357   4948.76559    -8.15951  1.42442   7841.69857    1e-05  58628.09049  52.47724  14.66772  19.11128     58692.18 
     14.0216  1.87058  2.58815       1.73509         2682.11023  0.00402  0.05921      0.0142  13.76517     18.10025   8026.42505    -8.73023  0.53445    7193.3565   0.0007  58627.51977  52.34271   0.28663  19.14987  58689.33228 
    13.76148  1.51447    2.143       1.82346         2708.26592  0.00326  0.13429     0.01564   5.48876     16.23787   3639.89627   -10.94749  0.50548   7161.24429    1e-05  58625.30251  52.24922   0.18909  19.13039  58689.33228 
     13.8328  1.64397  2.80864       1.43047         2960.45654   0.2918  0.02238     0.26657  29.25242     16.94949   5260.58195    -8.77552  0.60684   8128.70282    5e-05  58627.47448  52.51066  23.99277  19.09292  58693.27526 
    13.99687    1.788  2.56379       1.65816         2613.68272  0.10706  0.06514     0.21381  13.05434      16.1224   4934.35324    -9.93426  0.50286   7824.54687    1e-05  58626.31574  52.41107   7.55382  19.13274  58690.30826 
    13.70672   1.9747  2.60897       2.74527         2310.45325   0.0408  0.07079     0.01677  11.32661     18.73226   6538.44677   -11.20026  1.10258   7239.06305    0.003  58625.04974  52.33069   2.79504  19.10145      58692.2 
    13.70181  2.08683    2.884       1.67779         2630.20025  0.13813  0.22293     0.09153   3.68954     17.82445   7730.02129    -10.5943  1.24788   8893.96959  0.00037   58625.6557  52.39216   7.22145  19.17008   58689.3512 
    13.59754  1.41798  2.07357       1.53751         2491.96914  0.00531  0.14529     0.02839   7.11743     18.38184   6218.23194    -9.63768   1.1903   8405.35498  0.00134  58626.61232   52.4156   0.32837  19.08516  58692.83907 
    13.80757  1.79486  2.44786       1.21653         2889.27319  0.33993   0.1486     0.05221   9.32949      17.9756   3511.42724    -8.44154  1.21767   8566.64585  0.00053  58627.80846  52.45879  22.33182  19.14038  58690.30826 
    13.48324  1.54494  2.28956       0.78562         2744.12219  0.02316  0.03273     0.14314  20.67937     18.19592   4843.62269   -10.57046  1.30768   9321.88615  0.00087  58625.67954  52.60229   1.78803  19.12619  58690.30826 
    13.74811  1.65135  2.43658       0.93434         3037.31466  0.11087  0.02799     0.01988  15.20959     17.49165   8607.83404    -9.51572  0.53258   8207.11621  0.00017  58626.73428  52.46593   8.06736  19.12847  58690.30826 
    13.86271  1.74325  2.33267       1.10558         2970.10901  0.43955  0.18451     0.11388   5.85708     19.27582    3093.6981    -7.82695  1.09118   7434.78846  0.01048  58628.42305  52.28875  25.91772  19.10231  58690.30826 
    13.78169  1.89632  2.59276       1.46083         2644.27971  0.03878  0.14143     0.11446   7.92388     18.51802   8463.82902    -7.58565  1.44332   8736.79197  0.00183  58628.66435  52.45997   2.45587  19.03612  58694.27679 
    13.59822  1.79238  2.55594       1.04292          2898.8815  0.00988  0.07013     0.06869   9.73091     18.27513    7404.9112   -10.58089  1.35274   8303.77723  0.00105  58625.66911  52.43573   0.65521  19.10259   58689.3512 
     13.6251  1.65234  2.44426       1.11388         2933.71396  0.01643   0.0387     0.02878  17.77975     18.86734   4857.05563    -9.11419  1.33418   7810.70622  0.00409  58627.13581   52.4362    1.2325  19.09537  58694.27679 
    13.58371   1.6073  2.37872       3.00997         2176.02527  0.12004  0.04572     0.06927  12.56191     19.46916   9118.25888     -9.9086  1.25845   7222.45348  0.01636   58626.3414  52.33809   8.40258  19.13278     58692.18 
    13.71708  1.80896  2.29539       1.43689         2872.40636  0.08428  0.03912      0.0111   15.8295     20.44848   6819.90472    -9.81908  1.22745   6285.85738  0.15603  58626.43092  52.23771   6.18135  19.08722  58692.83907 
     13.5209  2.06389  2.55828       2.03412         2349.04575  0.30239  0.12622     0.01306   5.70313     18.10565   8047.66521   -13.91176  1.50235   7677.72214  0.00071  58622.33824  52.31383  17.71361  19.08041  58696.34587 
    13.40006  1.43213  1.90556       1.26344         2674.90731  0.00538  0.11826     0.34436   6.07022      20.4345   4453.25075   -10.34678  1.30589   8828.57884  0.15109  58625.90322  52.44178   0.31972  19.06731  58692.83907 
    13.67558  1.74221  2.26916       1.60339         2395.48256  0.32184   0.1086     0.01468   8.84188     19.58964   9285.65545   -12.88898  0.59956   9505.57596   0.0216  58623.36102  52.54396  20.89396  19.13689     58692.18 
    13.81402  1.65102  2.18831       1.43894         2808.03013  0.00498   0.1015     0.43315  10.45139     18.55937   3390.40363    -7.05634  1.06545   7303.34888  0.00201  58629.19366  52.33093   0.33535  19.13054  58690.30826 
     13.8168  1.86019  2.53387       1.77425         2621.83394   0.0016  0.10339     0.08459   9.83075     16.73524   5379.05751    -8.68061  1.07146   7742.64054    3e-05  58627.56939  52.37592   0.10612  19.06716     58692.18 
     13.6521  1.60448  2.37194        1.4722          2870.0541  0.01139  0.09286     0.04096   9.03377     16.03794   7880.68787    -9.37968  1.48556   7566.56014    1e-05  58626.87032  52.34787   0.74289  19.09008  58696.34587 
    13.65038  1.55667  2.31516       1.49241         2806.07142  0.03703  0.04006     0.09304  24.05143      17.7629   6010.60262   -10.51165   1.0512    8184.0988  0.00032  58625.73835  52.50135   2.94013  19.14737     58692.18 
     13.7584  1.75576   2.4394        2.9239         2100.49444  0.00228  0.15462     0.05807    5.6065     17.76898   6529.94404    -9.17367  0.83419   8689.93092  0.00033  58627.07633  52.41956   0.13287  19.10897  58689.33228 
     13.6605  1.71345  2.60504       1.68805         3213.50622  0.01836  0.02666      0.0141  24.79645     18.05812   8457.46608    -8.69979  1.25353   6833.18056  0.00064  58627.55021  52.34706   1.46566  19.08026  58692.83907 
    13.89098  1.91202  2.78172       0.96548         3046.41917  0.18548  0.03586     0.12303  29.78395     16.46158     6208.307     -9.1947  0.98531   8245.22575    2e-05   58627.0553   52.5244  15.29912  19.08476  58690.30826 
    13.86386  1.80886  2.88819       1.63196         3189.05644  0.29854  0.02271     0.05433  30.37956     16.06733   5410.67915    -7.87264  1.28811   5828.11464    1e-05  58628.37736  52.22456   24.7105  19.13366  58690.30826 
    13.78313  1.83039  2.59999       1.52934         2748.45826  0.00563   0.0492     0.03578     9.704       18.374   7994.04871     -9.6158  0.66877   7134.10305  0.00131   58626.6342  52.30359   0.37283  19.07993     58692.18 
    13.39052  1.79124  2.25111       2.94883         2001.19442  0.00577  0.13514     0.04489   3.93251     18.92996   3737.81989   -12.40169  1.26613   8812.41622  0.00473  58623.84831  52.39175    0.3072  19.14132  58690.30826 
    13.51338  1.82533  2.07643       2.35641         2240.90507  0.00224  0.18302     0.01052   5.97858     17.94854   6260.10412   -13.57676  0.82903   8577.73319  0.00049  58622.67324  52.41514   0.13276  19.05437      58692.2 
