 texplosion  fnickel     Pspin  log(Bfield)      Mns  thetaPB  mejecta    kappa  kappagamma     vejecta  temperature    alpha  cutoff_wavelength  log(nhhost)      A_V         MJD0  kenergy  mnickel              TSD   log(L0)  Peak_mag     Peak_MJD  log(E_rad)  log(Peak_lum)  Rise_Time    E_fold  tau_1  delta_m15     r_peak     frac 
   -5.82699  0.04145  14.31189     14.87165  1.78275  0.23932  4.26826  0.10739     0.01355  9294.43771   5025.04111  0.04037         5861.42391     19.45939    0.016  58577.49421   2.1995  0.17691     612349.34769  44.42154  18.62193   58614.5544    49.88587       43.19101   31.40222  37.95796   32.0    0.46969  -19.25237  0.83404 
   -6.36926  0.21722  10.74202     13.96672  2.01118   0.9455  1.55295  0.22838     0.01707  8043.56369   4687.86935  2.24984          2737.9925     17.29495  0.00011  58576.95194  0.59935  0.33733   25119088.67872  43.11012  18.69347   58614.5544    49.82171       43.17657   31.33874  32.88595   33.0    0.44011  -19.19011  0.82097 
   -9.53876   0.0244  12.71906     14.68643    1.709  0.37871   3.6862  0.18909     0.01013  8028.92098   5012.44249  1.03367         2235.21213     16.64418    2e-05  58573.78244  1.41749  0.08994     1087967.8418  44.25606  18.64048   58614.5544    49.91804       43.18484   34.66693  40.37428   31.0    0.43257  -19.20043  0.92324 
   -6.26685  0.03698  12.40407     14.82702  1.85668  0.22967  2.42079   0.2812     0.01601  9423.02457   4611.21766  1.92617         2254.67805     19.00268  0.00559  58577.05435  1.28223  0.08952     588364.51372  44.58081  18.62742   58614.5544    49.88485       43.15722   34.99194  40.04928   28.5    0.47834  -19.26453  0.93325 
   -9.12065  0.00393  15.13724     14.72265  1.96201  0.57711  1.80335  0.28998      0.0219  7036.87868   5133.21283  0.18136         5140.76441     18.87161  0.00413  58574.20055  0.53268  0.00708    1497289.95794  44.02615  18.69302   58614.5544    49.87748       43.18458   31.40222   37.4663   30.0    0.42547  -19.18155  0.99266 
   -7.21369  0.00936  12.66273     14.27889  1.44059   1.4956  2.65189  0.20519     0.01137  6713.54923    5388.2547  4.12284         3646.83444     17.00195    6e-05  58576.10752    0.713  0.02481    5937775.23474  43.44871  18.65322   58614.5544    49.84319       43.18225   31.40222  33.64524   30.5    0.42534  -19.16448  0.97197 
   -5.95058  0.01639   4.58912     13.23825  1.67396  1.45194  1.85606  0.25546     0.01121   9140.7922   4308.49178  0.32416         2456.10719     19.65724  0.02523  58577.37062   0.9251  0.03042  109276501.01544   43.1306  18.70055   58614.5544     49.8594        43.1816   32.42392  34.70029   31.0    0.45305   -19.2403  0.99338 
   -7.13923  0.00148  16.25817     14.63793  2.13284  0.75155  3.72285  0.13642     0.01239   7973.1121   4985.93895  0.58316         3253.02994     18.08013  0.00067  58576.18197  1.41175   0.0055    2773691.80768   43.7326  18.63335   58614.5544     49.8888       43.18235   31.40222  38.13127   29.5    0.44266  -19.19585  0.99412 
   -4.70641  0.16514  19.05144     15.09305  1.86542  0.36488  3.07655  0.20847     0.01123  7920.51338   5079.21125  0.85609         3873.28583     17.72096  0.00029  58578.61479  1.15132  0.50805     409586.48323  44.36742  18.65579   58614.5544    49.86836       43.16705   34.19803  37.92636   29.0     0.4829  -19.18236  0.52855 
   -9.64388  0.05717  13.70293      14.4049  1.90036  1.23916  2.30109  0.32571     0.01203  7463.17257   5286.29049  3.12723         2497.33121     19.72488  0.02949  58573.67732  0.76455  0.13155    5134324.46714  43.56357  18.64907   58614.5544    49.86498       43.18522   33.99312  35.22329   31.0    0.41823  -19.19311  0.89394 
   -5.97062  0.00427  12.14164     14.36557  1.58233  1.24805  2.61673  0.29037     0.01256  8351.66037    5614.6983  4.45261         2397.80534     18.78783  0.00341  58577.35058  1.08876  0.01118    4022867.98116  43.69505  18.65721  58616.28575     49.7973       43.12476   33.64524  35.71494   28.5    0.50247  -19.22521  0.98983 
    -7.1581  0.02092  11.79025     14.13509  1.93517   1.0598  2.54602  0.19386     0.01416  8753.87385   3053.95232  0.42722         2770.59951     18.35383  0.00125   58576.1631  1.16383  0.05326   13409247.89734  43.28511  18.67763   58614.5544    49.87124       43.15186   31.40222  40.37428   29.0    0.46973  -19.23095  0.96343 
    -7.1528   0.0182   6.23583     13.58642  1.59335  0.96871  1.74235  0.33778     0.01166  8362.89455   4365.24725  3.63722          3684.3757     17.45543  0.00016  58576.16841   0.7269  0.03172   38642849.07573   43.2943  18.62245   58614.5544    49.86009       43.20406   29.91849  33.92371   31.5    0.41666  -19.22325  0.98952 
    -6.7803  0.04903  14.28973     14.43628  1.76644  0.78045  3.83957  0.13361     0.01079  8534.59743   4751.64622   0.6068         3181.05169     16.38291    1e-05   58576.5409  1.66831  0.18826    4491590.91688   43.5535  18.70158   58614.5544    49.86293       43.14863   31.40222  38.13127   29.0    0.46547  -19.22386  0.82576 
   -6.59232  0.01716  13.60627     15.03991  1.68075   0.1878  3.57502  0.15205      0.0124  8245.15139   5473.51545  4.80217         2407.61981     19.39535  0.01381  58576.72889  1.44978  0.06135     240426.39574  44.84589  18.66443   58614.5544    49.84148       43.16162   33.14748  35.56324   31.0    0.44323  -19.21915  0.93811 
   -6.64077  0.00986   9.83045     14.46114   1.3059  1.25594  4.39266   0.2498     0.01243  8144.37865   4959.52601  0.68067         3383.48364     16.27965    1e-05  58576.68044  1.73808  0.04332    1401477.22566  44.25302  18.64957  58616.28575    50.02699       43.38232   30.57945  32.10013   29.0    0.38855  -19.17092  0.96711 
   -8.61947  0.01571  12.84355      14.2161  1.97365  1.22528  1.98615  0.28099      0.0152  7938.07232   4850.47756  1.21878         3623.48833     18.69467  0.00275  58574.70173  0.74657   0.0312   11175415.91857  43.29848   18.6369   58614.5544    49.86532       43.16885   34.31813  37.63295   31.0    0.44362  -19.20927   0.9759 
   -6.60547  0.00382  13.16873     14.19451  2.16482  0.97351  3.95309  0.05568     0.01042  8030.00508   3201.66016  0.05814          4309.7168     18.16488  0.00081  58576.71573  1.52053  0.01511   14233260.81007  43.21188  18.66346  58616.28575    49.85277       43.15867   31.72723  37.63295   33.5    0.39584  -19.16063  0.98842 
   -5.72656    0.001  14.14368     14.33661  1.88617  1.47408  2.42022  0.19159      0.0123  7537.60397   5008.33147  3.38029         2801.84195     16.77004    3e-05  58577.59465  0.82025  0.00242    7435469.37992  43.37199  18.66521   58614.5544    49.85853        43.1781   29.91849  36.70701   28.5    0.47048  -19.19646  0.99762 
   -7.11308  0.00801   7.06842     13.56865  1.69652  1.40553  2.87563  0.17807        0.01   8672.0994   4051.99961  3.41697         3972.72847     18.24912  0.00099  58576.20813  1.29006  0.02304   57375304.34488  43.04103  18.64864   58614.5544    49.82536       43.14902   33.14748  35.56324   31.5    0.43324  -19.21843   0.9909 
   -6.93415  0.02515  13.73938     14.84967  1.70187  0.31326  3.47327  0.17348     0.01156  8285.76388   5025.93181  3.10618         2600.71896     18.89081  0.00432  58576.38705  1.42243  0.08734      596113.2421  44.44851  18.62257   58614.5544    49.88195       43.17225   31.72723  37.80626   29.0    0.48536  -19.21646  0.91441 
   -7.05877   0.0012  13.08908      14.2835   1.8864  1.38107  1.59383  0.31577     0.01567  7399.92205   5369.39513  4.07295         2050.94268     18.97758  0.00528  58576.26243  0.52062  0.00191    8133301.28857  43.40039  18.61654   58614.5544    49.83644       43.16538   29.66238  34.89828   30.5    0.45962  -19.18948  0.99838 
    -5.8319  0.24484  13.55575     14.21695  1.55063  0.96537  1.60733  0.25294     0.02313  8333.22665    4676.8936  0.08422         4048.56071     19.19165  0.00864   58577.4893  0.66582  0.39354    9742564.22594  43.20643  18.69496  58612.47911    49.82739       43.14251   29.91849  36.70701   30.0    0.45969  -19.20424  0.66719 
   -9.26494  0.00128  12.42354     14.74351   1.7377  0.32633  2.03794  0.29208     0.01683   7964.6885   5003.64319  0.06435         2657.72977     19.86972  0.04116  58574.05626  0.77118   0.0026     811448.42471  44.41107  18.63969   58614.5544    49.80181       43.14405   31.72723  33.32023   29.5    0.46581  -19.23893  0.99776 
   -4.58228  0.00193  13.18748     14.70658  1.80164   1.3886  5.21437  0.14217     0.04514  8048.38089   4503.89815  0.22929         3669.34371     18.85334  0.00396  58578.73892  2.01486  0.01007    1123696.71468  44.23354  18.65427   58614.5544    49.98851       43.32492    29.1592  33.64524   29.0    0.38199  -19.17948  0.99131 
   -6.43258  0.03723  12.54902     14.20189  1.53515   1.1837  4.73844  0.11807     0.01063  9254.90717   4726.51478  2.99838         2173.18807     19.09427   0.0069  58576.88863  2.42107  0.17639    8859338.60086  43.31037   18.6376   58614.5544    49.84613       43.19291   31.72723  33.32023   29.0    0.47756  -19.25516  0.84103 
   -6.42528  0.02513  12.56698      15.1174   1.7035  0.30235  3.69439  0.27382      0.0117  7796.61093   4872.82113  2.97064         2903.54253     19.24302  0.00972  58576.89592  1.33962  0.09286     145485.80475   45.1389  18.70508   58614.5544    49.81853        43.1218    33.9205  35.88825   28.5     0.4113  -19.16709  0.92579 
   -8.05392  0.00797  11.65508     14.36357  1.57257  0.55502  2.00393  0.25111     0.02699  8791.08848   4495.70362   0.1862         3966.79273     16.73472    3e-05  58575.26729  0.92384  0.01598    3718112.80432   43.7621  18.71545   58614.5544    49.86375       43.17484    29.1592  38.13127   30.0    0.42247    -19.216  0.98565 
   -7.29879  0.00421    12.158     14.15272  1.58125  1.27054  1.94729  0.20396      0.0174  7290.24516   4271.55804  1.77618         3415.25362     16.77079    3e-05  58576.02242  0.61737   0.0082   10742301.17433  43.26702   18.6206  58616.28575    49.95217       43.32423   29.91849  31.34084   30.0    0.42157  -19.17991  0.99209 
  -10.21106  0.00297  10.39963      14.2913  1.58912  0.75732  2.52062  0.33687     0.01091  7587.78334   4623.11378  1.15107         3242.93139     19.93192   0.0475  58573.11014  0.86569  0.00749    4172661.01317  43.81555  18.68985   58614.5544     49.8666       43.16568   31.40222  37.95796   30.5    0.38424  -19.24858  0.99485 
    -6.9523  0.39205  16.10752     14.19895  1.71228  1.31284  2.77227  0.30872     0.01038   8345.8831   3110.56221  4.75759         2565.79155     19.84514  0.03889  58576.36891  1.15188  1.08686   16502359.54907  42.87082  18.61819   58614.5544    49.88192       43.21059   32.50939  35.12896   31.5    0.38925  -19.21724  0.36713 
   -9.58342   0.0309  11.03111      14.1172  1.53471  1.16154  1.86523  0.33879     0.01905  7841.59174    4176.9514  4.10983         2884.42498     19.46329  0.01614  58573.73778  0.68418  0.05763   10108492.71068  43.36495  18.69168   58614.5544    49.88151        43.2025   33.64524  35.88825   30.0    0.40999  -19.22389  0.95392 
   -7.71679  0.00229  14.38502     14.79305  1.76764  0.41416  1.88903  0.23217     0.02195  7223.80044   4649.69956  0.14743         5086.78015      17.7988  0.00035  58575.60441  0.58803  0.00432     880906.00474  44.25549  18.63683   58614.5544    49.88848       43.19864   29.91849  37.37198   28.0    0.43385  -19.18295  0.99525 
   -9.41521  0.00289   9.90761     14.00051  1.87434  1.25505  1.98627  0.31497     0.01295  8114.69059   4731.92999  0.06156         3774.92779     20.07307  0.06573  58573.90599   0.7802  0.00573    17044537.2815  43.31817  18.66027   58614.5544    49.88719       43.22978   29.33737  33.64524   32.5    0.40912  -19.25767  0.99696 
    -8.0507  0.00216  11.17648     14.21444   1.8306  0.75676  1.82031  0.25888      0.0124  7574.25127   5738.68444  0.65317           4052.583     16.55854    2e-05   58575.2705  0.62295  0.00392     7909360.8966  43.53669  18.64621   58614.5544    49.84153       43.20307   31.33874  32.88595   33.0    0.46191  -19.17612   0.9973 
   -6.90611  0.12668   9.94868     13.93183  1.58929  1.56016  2.61024   0.2659     0.01013   8675.1172   4297.59137   1.1482         2683.07089     19.59916  0.02207   58576.4151  1.17181  0.33068    19993652.9109  43.17363  18.64589   58614.5544    49.97319       43.37053    29.1592   29.1592   29.5     0.4318  -19.22562  0.81548 
   -9.26415  0.01392  13.31393     14.72768  1.95999  0.40694  2.61822  0.31412     0.01421  8352.23429   4526.91462  0.20966         3845.67312     19.88648  0.04278  58574.05705  1.08953  0.03646    1130653.31363  44.25916  18.65202  58616.28575    49.83164       43.14378   35.06549  35.88825   28.5    0.42061  -19.23254  0.97087 
   -5.81626  0.00139   15.7379     14.42587  1.93452  1.56418  3.37488  0.13807     0.01689  8400.49763   4886.53732  4.91037         2486.01536     16.69925    3e-05  58577.50495  1.42068  0.00469    6259548.52738  43.36498  18.63271   58614.5544    49.86852       43.17828   32.82247  35.88825   29.5    0.45623   -19.1871  0.99457 
   -5.86486  0.02255  10.36698     14.40375  1.29628  0.69225   3.3711  0.27049     0.01059  9006.23797   4758.50525  1.00468          2245.3075     18.17354  0.00083  58577.45635  1.63112  0.07603    2015216.87742  44.04592  18.68012   58614.5544    49.88981       43.18687   32.16151  37.37198   26.5    0.49511  -19.22758  0.93569 
   -9.94213   0.0017  14.86886     14.30232  2.12419  1.52788  1.89926  0.26229     0.02208  7618.38534    4119.8893  2.52288         2927.78944     17.11344    7e-05  58573.37907  0.65756  0.00323   10837175.35773  43.21657  18.65237   58614.5544     49.8518       43.16499   33.97024  35.56324   30.5    0.38999  -19.14499  0.99697 
    -7.0054  0.00395   6.13689     13.61745  1.82174  0.71533  1.42352  0.28706     0.02362   9293.4071   3003.09036  0.47738         4136.73868     18.54837  0.00196  58576.31581   0.7334  0.00562     37093444.635  43.38414  18.66691   58614.5544    49.82893        43.1598   31.72723  34.89828   31.5    0.44524  -19.23498  0.99823 
   -7.73323  0.00648  14.61556      14.8627  1.86181  0.38389  3.61946  0.18029     0.01297  7647.74081   4607.07133  0.96946         3838.75255     19.68705  0.02703  58575.58797  1.26281  0.02344     694980.22956  44.36718  18.67212   58614.5544    49.86758        43.1805   29.51123  37.37198   28.0    0.40178  -19.21215  0.97594 
   -7.00442  0.08908  14.95247     14.56661  1.79457  0.65296  2.17014  0.29615     0.02675  9400.81677   4570.27629  2.14222         2833.18199      18.8787   0.0042  58576.31678  1.14405  0.19331    2741449.86364   43.7354  18.67008   58614.5544    49.97176       43.31173   30.57945  33.64524   28.0    0.47405  -19.24903  0.81373 
   -6.02165  0.20368  17.22112     14.95114  1.91421  1.37404  3.49444  0.18805     0.01074  7153.77466   4390.89747  0.91085         3000.39139     18.76298  0.00322  58577.29955  1.06678  0.71176      660151.7631  44.25907  18.67587   58614.5544    49.94085        43.1864   32.50939  42.38077   30.0    0.38534   -19.1571  0.51013 
   -5.70968  0.00317  13.61764     14.32947  1.84376  1.55851  1.50036  0.31255     0.01395  6989.87195    5299.9552  0.85717          4181.5347      18.6183  0.00231  58577.61152  0.43728  0.00475    6962827.22134  43.42356  18.59163   58614.5544     49.8604       43.16111   34.31813  37.80626   28.0    0.50445  -19.20123  0.99555 
   -6.81709  0.04398  14.60425     14.36444  1.83281  1.28266  2.68834    0.181     0.01561  8205.70695   4541.79191  0.08989         2105.42414     18.79287  0.00345  58576.50411   1.0798  0.11824     6776515.6858    43.372  18.62157   58614.5544     49.8853       43.19355   33.99312  35.88825   27.5    0.46295  -19.22265  0.88541 
   -6.92797  0.00895  14.76123     14.59655  1.76229  0.88314  2.80945  0.21203     0.01885  7659.07624   4587.26717   0.6046         4256.25232     17.73365   0.0003  58576.39323  0.98311  0.02515    2285749.87113  43.81765    18.651  58616.28575    49.84847       43.17164   31.31997  35.56324   27.5    0.40771   -19.1857  0.97184 
   -6.15938  0.00172  13.75534     14.47355  1.64165  1.53669  5.04781  0.13183     0.01475  7657.81883   4976.33115  4.85228         3132.30522     20.02495  0.05884  58577.16182   1.7658  0.00871    3257886.70413  43.69425  18.61814   58614.5544    49.91539        43.1802   33.14748    41.358   31.5     0.3512  -19.20779  0.99048 
   -6.83026  0.01787  13.43378     14.46907  1.51318  1.36106  4.40207  0.12521     0.01687  7656.59231   5197.72029  0.28352         2281.28288     19.27145  0.01038  58576.49095  1.53941  0.07866    2923947.62418  43.72637  18.67531   58614.5544     49.8658       43.19462   33.18321  35.12896   31.0    0.39053  -19.16062  0.91438 
   -7.33657  0.00277   10.4985      13.9964  1.75456  1.39089  2.39558  0.19706     0.01154  8119.51404   4214.48315  1.21801         2824.81115     16.80208    4e-05  58575.98463   0.9421  0.00665   18257498.97855  43.20932  18.62644  58616.28575    49.85281       43.18483   33.14748  34.89828   29.5    0.44197  -19.21015  0.99566 
   -6.84994  0.00134   14.7084     14.72873  1.99837  0.60182  1.96415   0.2443     0.01343  6621.88324   5500.95726  0.09668          5085.3202     20.11234  0.07196  58576.47127  0.51377  0.00262    1400080.77609  44.08824  18.68801   58614.5544    49.89807        43.1705   32.50939    39.615   29.0    0.44036  -19.19258   0.9975 
   -8.86502  0.00658  13.18169     14.36714  1.80652  1.26215  3.30597  0.22055     0.01032  7884.62042   4682.90576  1.81709         3043.57095     17.73251   0.0003  58574.45618  1.22599  0.02177     5374389.4389  43.55542  18.67854   58614.5544    49.86992       43.17605   29.91849  37.37198   28.5    0.45082  -19.22541  0.98078 
   -7.93338  0.03059   11.6385     14.15486   1.6789  0.87587  1.27013  0.33549     0.03275  8326.49225   4420.26652  2.37999         3402.92595     19.27013  0.01035  58575.38783  0.52529  0.03886   10349237.27442  43.34717  18.65488   58614.5544    49.84744       43.20612   29.91849  31.34084   30.0    0.43187  -19.21149  0.96799 
     -7.673  0.00407   12.3989     14.29347  1.69763  1.15155  2.46618  0.27427     0.01074  7352.83707   4702.22272  3.35398         3325.29712     17.96115  0.00051   58575.6482  0.79536  0.01003    6273187.91017  43.51443  18.64749   58614.5544    49.74336       43.09067   31.72723  33.32023   29.0     0.4261  -19.19811   0.9912 
   -8.16131  0.00291     7.924     14.07214  1.52103  0.42343  2.53839  0.21305     0.01014  7929.08223   4602.56077  3.89196         3755.40776     17.95523   0.0005  58575.15989  0.95199   0.0074    6361499.34216  43.84953  18.63997   58614.5544    49.85367       43.16697   34.31813  35.56324   33.0    0.42601   -19.1693   0.9962 
   -8.48399  0.00695  14.44847     14.37737  1.79789  1.21938  2.96556  0.18148     0.01183  6744.49396   4604.34304  4.57648         3459.16419     19.11669  0.00727  58574.83721   0.8047   0.0206    6130283.66105  43.41649  18.62511   58614.5544    49.84153       43.15021   31.72723  37.63295   30.0    0.38436  -19.16431  0.97786 
   -7.27291  0.14381  16.85977     14.51756  1.62293  0.55085  4.13827  0.08901     0.01015  7361.03391   4812.87797  0.63514         2022.45321      19.2467   0.0098   58576.0483  1.33759  0.59513     3950902.8425  43.42875  18.64459   58614.5544    49.90665       43.16493   34.31813  42.29229   36.0     0.3623  -19.14253  0.47794 
   -5.96745  0.00887   13.1098     14.83769  1.46693  0.35126  2.94338  0.11008     0.01025  5688.51452   4498.75345  0.54255         5715.17279     16.20699    1e-05  58577.35376  0.56816  0.02611     494340.37619  44.50604  18.66385   58614.5544    49.86988       43.19193   31.33874  36.70701   29.5    0.40835  -19.18099   0.9697 
   -5.78472  0.00108  13.43233     14.30666  1.71389  1.36439  2.46375  0.20165     0.01487  7950.19317   5070.49871  2.34512         2709.81276     18.78088  0.00335  58577.53648  0.92892  0.00267     6994760.8826  43.40175   18.6247   58614.5544    49.83359       43.18513   31.40222  32.45728   29.0    0.49173  -19.19879  0.99729 
    -7.5212   0.0034  15.45469     14.61235  1.97477  0.78883  4.50187  0.18677     0.01069  8236.85987   4797.28337  4.64148         3749.14821     16.82705    4e-05      58575.8  1.82198  0.01532    2610646.50437  43.76949  18.64865   58614.5544    49.88342       43.18567   29.91849  37.37198   30.0    0.41747  -19.18264  0.98375 
   -6.25858  0.00714    6.6235     13.77264  1.78138  0.62297  1.41652  0.33903     0.01716  8850.03509   4122.48648  4.99747         2901.19962     19.06795   0.0065  58577.06262  0.66182  0.01012   20676392.02727  43.56195  18.62827   58614.5544    49.86066       43.20019   32.50939  33.92371   31.0    0.43814  -19.22426  0.99666 
   -6.03183  0.01419  10.63772     13.96433  1.68042  1.43953  3.44582  0.11234     0.01249  9153.91113   3980.86525  0.30949         3823.00559     19.88619  0.04275  58577.28938   1.7224   0.0489   20809786.08363   43.1223  18.62858   58614.5544    49.86575       43.18513   34.66693  35.22329   29.5    0.47912  -19.27072  0.96562 
   -7.49265  0.01994  15.79076     15.06107  2.12981  0.32523  3.16774  0.17442     0.01002  6975.66079   5452.84475  0.84491         2270.29611     19.75971  0.03195  58575.82856  0.91949  0.06318      372245.1279  44.62955  18.67786   58614.5544    49.83013       43.13786   35.06549  35.71494   29.0    0.43952  -19.20005  0.94092 
   -6.86812  0.00601   9.81409     14.15206  1.39463  1.35037  2.88059  0.30197     0.01107  8759.86544   4573.82301  2.00311         2687.93202     20.32285  0.11684  58576.45309  1.31857  0.01731    6192341.01037  43.63775  18.64457   58614.5544    49.90245       43.17562   31.40222  40.37428   27.0    0.47211   -19.3378  0.98744 
   -4.68962  0.38433  11.68264     13.84025  2.01113  0.85881  3.04571  0.29855     0.01088  9581.68333   3300.23757  1.52402         3856.39076     17.60089  0.00022  58578.63158  1.66801  1.17056   53191413.73942  42.71136  18.65058   58614.5544    49.88882       43.16805   34.66693  38.13127   30.0    0.43667  -19.20937  0.45181 
    -7.6588  0.00291  12.31329       14.186  1.62906  1.54424   2.1091  0.28389     0.01883  8274.15279   5202.37457  4.97022         2744.80757     16.29534    1e-05  58575.66241  0.86134  0.00613    9738501.69806  43.31154  18.64186   58614.5544     49.9279       43.23957   30.57945   37.4663   31.5    0.43769  -19.18743  0.99425 
   -6.27837  0.09806  11.76182     14.51508  1.88175  0.34795  1.60401  0.29946     0.01798  8473.54799   5161.69193  3.51437         2886.12567     16.01642    1e-05  58577.04284  0.68701  0.15729    2255127.22205  44.04929  18.67639   58614.5544    49.88012       43.24006    29.1592   31.9485   32.5    0.46882  -19.20898  0.89475 
   -8.42702  0.00102   11.5602     14.50992  1.61275  0.44961  1.84782   0.2936     0.01497  7388.29522   4739.36353  0.44744         3719.55505     18.20171  0.00088  58574.89419  0.60169  0.00189    1911917.79025  44.06901  18.60023   58614.5544    49.85727       43.22416   29.51123  31.34084   29.5    0.44887  -19.18793  0.99841 
   -8.52091  0.00168  11.77429      14.2206   1.5463  1.06009  2.03312  0.31554     0.01975  8235.91485   4903.32785   3.6334          2805.5814     16.83281    4e-05   58574.8003  0.82265  0.00341    7207508.16548  43.45848  18.65089   58614.5544    49.89376       43.14311   31.72723  42.29229   31.0    0.44659  -19.18957  0.99684 
    -5.5344  0.22062  15.53098      14.5348  1.74188  1.04146  1.89403  0.33244     0.01851   7848.8726   4862.89578  0.92891         4001.83487     20.39119  0.13675   58577.7868  0.69603  0.41785    3323692.53324  43.60584  18.66249   58614.5544    49.84297       43.17453   31.60713  33.44033   28.0    0.44459  -19.31183  0.64719 
   -6.25132  0.05836  14.42852     14.25549  1.62194  1.50681  2.62738  0.15148     0.01526    7228.698   4507.48766  3.61909         3371.29095     19.08498  0.00676  58577.06988  0.81898  0.15333    9667574.78296  43.17512  18.74905   58614.5544    49.85605       43.17477   33.18321  35.12896   30.5     0.4085   -19.1584  0.83368 
   -8.94811  0.03745  12.42446     14.23342   1.7732  1.36648  3.13739  0.24029     0.01021  8459.82171   4703.00714  1.43199         2192.46299      18.2283  0.00094   58574.3731  1.33943  0.11749    8675364.50434  43.39076  18.64183   58614.5544    49.85368       43.18372   33.64524  35.22329   29.5    0.46345  -19.20472  0.90993 
   -7.99987  0.00367  14.92283     14.33533  1.90695  1.46047  2.73968   0.1772     0.01027  6766.32151   5471.13782  4.85406         3709.98521     16.74701    3e-05  58575.32133  0.74823  0.01007     8417581.4567  43.27629  18.66939   58614.5544    49.87074       43.16674   31.40222  38.13127   32.0    0.43986  -19.15527  0.98918 
   -9.52071  0.06243  14.80227     14.75875  1.71129  0.42304  3.32983  0.19758     0.01472  8093.83901   4908.18989  0.08295          2306.4197     17.52126  0.00018   58573.8005  1.30124  0.20787    1057546.36953  44.13721  18.67055  58616.28575    49.89246       43.23965   29.91849  33.92371   31.5    0.42064  -19.15243  0.79589 
   -7.41756  0.31182  19.59154     14.71554  1.95828  0.79794  2.19109  0.30615     0.01602  8345.94016   4975.94653    2.643         2193.86895     19.04836  0.00621  58575.90364  0.91041  0.68323    2586746.24441  43.56383  18.62319   58614.5544    49.87609       43.20394   30.57945  34.70029   30.0    0.46852   -19.2323  0.45494 
   -5.78969  0.01226  11.83109     14.50728  1.56898   1.4811  2.44767   0.3295     0.02888  8519.59772   5092.71025  0.06437         3557.83126     20.38225  0.13396  58577.53151  1.05979  0.03001    1972040.24121   44.0235  18.69901   58614.5544    49.85909       43.15868   34.66693  35.88825   28.5    0.42738   -19.3018  0.97462 
   -8.28281  0.00318  12.26276     14.57499  1.68488  0.43872  2.03956  0.33972      0.0208  8726.47132   4792.59783  0.97361         3332.19178     18.96194  0.00509  58575.03839  0.92649  0.00649    1665634.20067  44.09666  18.63829   58614.5544    49.84297       43.18406   32.82247  33.64524   30.0    0.46022  -19.22271  0.99429 
   -6.93749  0.03648  14.58016     14.55659  1.92584  0.64861  2.10257  0.25978     0.01328  7205.73681   4981.95169  4.30279         3583.57562     19.78923  0.03419  58576.38372  0.65123   0.0767    2929442.88767  43.75916  18.66011   58614.5544     49.8565       43.20414   31.33874  33.92371   29.5     0.4448  -19.22637  0.92746 
   -6.24066  0.00723   9.40741     14.32111   1.7762  0.36057  1.95649  0.27353     0.01728   9568.8382   4399.80233  4.62259         2577.64647     16.54328    2e-05  58577.08054  1.06862  0.01414    3326745.13353  44.04938  18.65317   58614.5544    49.88051       43.19673   29.91849  36.70701   29.0     0.4972  -19.23915  0.99233 
   -4.47026  0.22499  14.08159     14.51158  1.24895  0.83899  2.30055  0.32025     0.01946  8686.27669   4542.84715  4.64346         3144.60579     17.33877  0.00012  58578.85095  1.03545  0.51761    2180266.89013  43.72958   18.6462   58614.5544    49.87687       43.20944   33.18321    33.941   27.0    0.46426  -19.23384  0.52459 
   -6.49087  0.00996  15.25918     14.27417  2.10995  1.53687  1.60552  0.14891     0.01324  6083.70841   5021.67388  1.09332         4850.09829     17.51654  0.00018  58576.83034  0.35447  0.01599   12906795.82052  43.11524  18.66691   58614.5544    49.88768       43.20351   24.85134  38.13127   31.5    0.41653  -19.13944  0.98401 
   -6.19938   0.0026  13.28568     14.39859  1.61684  1.04701  2.02564  0.32774     0.01942  8082.73824   4462.02942   3.8707         3502.41941     18.95095  0.00496  58577.12182  0.78942  0.00527    4227407.77868  43.60467   18.6098   58614.5544    49.87384        43.1916   31.56449  35.72598   26.5    0.47991  -19.21474  0.99437 
   -6.38726  0.25225  12.68488     14.54029  1.56566  1.40246  2.42678  0.28653     0.01489  7456.67137   4493.24509  1.04848         3575.02615     20.75146  0.31346  58576.93395  0.80491  0.61216    1943153.33591  43.96846  18.68851   58614.5544    49.82492       43.16339   31.40222  33.64524   29.5    0.41032  -19.46951  0.62015 
   -5.98095  0.03346  12.06633     14.42728  1.61964  1.39183  3.90562  0.28337      0.0107  9049.18512   5073.09708  1.24857         3329.62075     20.07862  0.06658  58577.34025  1.90782  0.13068    3060760.56539  43.82928  18.64565  58616.28575    49.88637       43.16866   34.31813  40.04928   29.0    0.46077  -19.27869  0.89807 
   -7.94839   0.0034  14.86532     14.49363  1.72685  0.81805  4.32872   0.1058     0.01019  7063.62108   4198.57028  2.59106         3732.62893     16.61707    2e-05  58575.37281  1.28837  0.01474    3648922.71254  43.59959  18.66616   58614.5544    49.85721       43.16455   32.82247  35.88825   30.0     0.4011  -19.14029  0.98218 
    -5.4937  0.05072  16.80431     14.61511  1.82847   1.0761   2.6265  0.17473     0.02859  7632.46895   4779.43437  3.29162         2340.05989     17.51327  0.00018   58577.8275  0.91272  0.13322    2821836.34116  43.62956   18.6398  58616.28575    49.89266       43.19514   36.09316  37.75305   31.0    0.39405  -19.13004  0.84168 
   -6.36178  0.00111  11.22389     14.38408  1.73553  1.20466  2.21971  0.32506     0.01328  7776.61925   5648.03671  0.63359         3793.68835     20.70923  0.28442  58576.95942  0.80077  0.00247    3462313.09248  43.86862  18.67305  58616.28575     49.9001       43.17656   33.14748  40.57203   28.5    0.44497  -19.48017  0.99832 
   -5.97778  0.00317  10.34628     13.99797  1.37909  1.09215  2.04246  0.15759     0.01682  7608.29023   5350.78604  4.80519         2881.54497     19.61568  0.02293  58577.34343  0.70527  0.00648   13837044.11164  43.23782  18.64122   58614.5544    49.88176       43.17159   34.99194  37.80626   34.5    0.43276    -19.178  0.99425 
   -8.07284  0.00519  13.02203     14.36555  1.86521  0.87683  1.85623  0.28302     0.01957  8209.67307   4890.25883  2.45288         2552.14809     19.85525  0.03981  58575.24836   0.7463  0.00963    5455076.94999  43.57341  18.65981   58614.5544    49.86014       43.19824   31.40222  33.64524   29.5     0.4643  -19.26832  0.99178 
   -7.86172  0.01174  11.70387     14.26115  1.92143  0.96446  2.08904  0.30782     0.01083  7598.84835   5177.12292   4.4048         2916.78977     20.36071  0.12748  58575.45948  0.71956  0.02453     7341845.2085  43.55001  18.65582   58614.5544    49.91997       43.20497   34.66693  38.13127   32.0    0.42858  -19.27141  0.98373 
   -6.68391  0.00157  11.95756     14.10285  1.73019  1.53837  2.09601  0.18452     0.01962   8546.5616    4878.0315  0.36299          3132.5615      19.6777  0.02645  58576.63729  0.91328  0.00329   14305494.68059  43.19615  18.67184   58614.5544    49.85194       43.16458   32.50939  36.70701   31.5    0.47637  -19.24091  0.99724 
   -4.07081  0.01135  13.34296     14.77885   1.6048  0.33975  2.57259  0.13426     0.01592  7245.09467   5363.18759  2.75429         3505.65119     20.46617  0.16252  58579.25039  0.80554  0.02919     734572.34837  44.35773  18.64296   58614.5544    49.89009       43.11704   35.06549  44.86031   30.5    0.42484  -19.32499  0.96875 
   -6.13448   0.0396   14.9134     14.35862  1.82156  1.25081  1.31886  0.31512     0.04001  8364.68276   4767.59106  2.62488         2397.99346     18.43965  0.00153  58577.18673  0.55046  0.05223    7213871.93548  43.32397  18.65086   58614.5544    49.88562       43.18317   32.98474    37.969   29.5    0.43959   -19.1882  0.94299 
   -6.43957  0.06426  15.38765     14.73183   1.5714  0.56685  4.83372  0.14175     0.01229  8432.02604   4547.70746  0.51374         4098.15858     17.56952  0.00021  58576.88163  2.05009  0.31059    1187914.15837    44.016  18.64735   58614.5544    49.83592       43.18737   31.40222  32.45728   28.5    0.41575  -19.19198  0.68388 
   -8.35651  0.00151  13.17627     14.43128  1.72438  0.71036  2.98647  0.18285     0.01614   8250.3947   4513.62637   2.3534         3074.91999     18.92294  0.00465  58574.96469  1.21265   0.0045    3814860.84141  43.68441  18.64437   58614.5544    49.85973       43.16459   33.99312  35.88825   29.0    0.42511  -19.22126  0.99557 
   -5.99451  0.06722   7.31178     13.74802  1.58047  1.03963  1.98167  0.33033     0.01066  9144.55159   3951.45475   1.3091          2492.1623     18.43309  0.00151  58577.32669  0.98851  0.13321   25038453.09516  43.34098  18.65765  58612.47911    49.90496       43.18747    29.1592  40.20097   29.5    0.45099   -19.2251  0.94863 
    -7.3903  0.00319  11.44354     14.37603  1.41877  1.23994  2.41741  0.30863     0.01354  7260.61852   5407.52689  0.15089           5127.706     17.42629  0.00015   58575.9309  0.76019  0.00771    3053401.79127  43.81885  18.65009   58614.5544    49.86987        43.1803   34.66693  35.88825   29.0    0.43111   -19.1514   0.9927 
   -9.10032  0.00143   8.26577     13.75702  1.51466  1.53099  2.79161  0.17106      0.0106  8191.28592   4163.61514  3.18538         2743.30211     19.74367  0.03079  58574.22089  1.11734    0.004   29420677.41939  43.14594  18.60198  58616.28575     49.8692       43.19123   31.72723  35.56324   31.5    0.42969  -19.24113  0.99786 
   -8.88898  0.01119   8.49197     13.78797  1.24923  1.38579  1.76359   0.2939     0.02157  8458.25436   3052.91601   2.4199         3399.87295     16.56618    2e-05  58574.43222  0.75264  0.01974   22209359.04661  43.16094  18.66333   58614.5544     49.8649       43.18909   33.18321  35.12896   30.0    0.44326  -19.22952  0.98604 
   -7.67043  0.00212  13.35733     15.06361  1.52152   0.1902   1.3754  0.29036     0.04222  6815.55866   3445.30467  0.35611         4415.39548     16.23209    1e-05  58575.65077  0.38112  0.00292     188063.50427  44.92538  18.67603   58614.5544    49.79358       43.12562   33.14748  34.89828   31.0    0.38329  -19.14748  0.99655 
   -6.09481  0.00143   10.6885       14.083  1.81144  1.54464  2.04808  0.31706     0.01029  8418.87419   4907.01758  0.75936         3545.57631     19.65616  0.02517   58577.2264  0.86593  0.00292    13112272.1668  43.35136  18.63945   58614.5544    49.94628       43.19457   29.91849  42.38077   29.5    0.48918  -19.22059  0.99818 
   -9.25658  0.00208  14.18678     14.96048  1.90451  0.46685  2.44313  0.30019     0.02104    6933.058   5152.14429  0.18947         4269.84566     18.43902  0.00153  58574.06462  0.70052  0.00509     426970.80827  44.61446  18.65572   58614.5544     49.8523       43.18113   32.82247  33.64524   30.0    0.36031  -19.13433  0.99527 
   -8.11337  0.02212   8.66594     14.73732  1.42243  0.13533  2.24043  0.31394     0.01076  8252.60909   4643.38313  1.38657         3018.64003     17.44427  0.00015  58575.20783  0.91021  0.04955     332543.17825   45.0244  18.66328   58614.5544    49.82731       43.16925   29.33737  33.64524   30.5     0.4336  -19.19896  0.97103 
   -7.23086  0.00183   9.82494     14.33028  1.39508   0.9309  2.02635  0.28337     0.02727  8310.62483   5550.61564  0.25894         2075.50908     20.86626  0.40831  58576.09034  0.83485  0.00371    2732219.07312  43.99227  18.67491   58614.5544     49.8596       43.18903   33.18321  35.12896   29.0    0.42338  -19.56821  0.99732 
    -7.9769  0.10374  13.60459     14.29355  1.76611  1.16302  1.88544  0.30586     0.01825  8113.45414   4864.44107  1.19955         2943.03907      19.4849  0.01697   58575.3443  0.74037  0.19559    7854154.11613  43.35339  18.62615   58614.5544    49.82367        43.1953   31.40222  31.40222   30.0    0.45049  -19.21709  0.83393 
   -5.99743  0.00291  13.53548     14.57433  1.69582  0.82377  3.48122  0.25309     0.01207   7884.5779   4072.74183  4.78824         3568.84772      17.1144    7e-05  58577.32378  1.29097  0.01014    2048728.26995  43.92379  18.62834   58614.5544    49.88984       43.18529   33.02738  37.92636   28.0    0.41273  -19.19447  0.98971 
     -5.449  0.42895  20.85371     14.86614  1.55251  0.11137  2.73016   0.2407     0.01432  8685.52427   4578.33027  0.89862         3755.40487     17.49122  0.00017   58577.8722  1.22859  1.17109    1161303.65224  43.75657  18.63266   58614.5544    49.89171       43.13516   33.14748   44.1019   31.0    0.43101  -19.17527  0.15569 
   -6.34967   0.0026   14.2623     14.58861  1.76754  0.69728   2.1046  0.23516     0.02309  8059.02751   5421.29673  4.84435         2218.89348     18.12724  0.00074  58576.97154  0.81538  0.00547    2219949.47986  43.86149  18.62895   58614.5544    49.86128       43.18685   32.82247  33.64524   29.5    0.46133   -19.2259   0.9941 
    -6.4182  0.19603  21.26249     14.89087   1.8746  1.02287  3.68908  0.23693     0.01555  8869.31859    4447.9819  1.06194          2838.1443      18.3269  0.00118    58576.903  1.73111  0.72318    1300807.13092  43.77231  18.64535   58614.5544    49.85477       43.18711   31.40222  33.64524   29.5      0.387  -19.15768  0.39196 
   -7.20653  0.00389  12.82049      14.2751   1.8209   1.0691  2.81582  0.20123     0.01072  7796.63277   4989.63574  1.38547         3581.62404     19.37743  0.01325  58576.11467  1.02105  0.01094    7829131.80912  43.41961  18.67966   58614.5544    49.83215       43.16603   29.91849  35.12896   30.5    0.44966  -19.19901  0.99056 
   -6.97833  0.00242  12.45623     14.42741  1.68591  0.79087  2.02974  0.26795     0.01174  7223.52366   5180.99417  1.44881         2914.32142     17.14359    8e-05  58576.34287  0.63178   0.0049     3393177.4353   43.7743  18.69094   58614.5544    49.91729       43.18386    29.1592   42.6173   29.0    0.46524  -19.19453  0.99562 
   -6.37066  0.00295  10.74703     14.50448  1.71837  0.71439  1.72891  0.32457     0.01106  6875.44651   5898.32611  0.36449         4203.69983      20.7411  0.30607  58576.95054  0.48753  0.00511     1805336.4966  44.18483  18.64003   58614.5544    49.84925       43.17569   32.82247  35.22329   28.0    0.46827  -19.46412  0.99677 
    -7.0647  0.02383  14.53034     14.54177   1.8922  1.27896  4.40937  0.22641     0.01045  8129.40912   4713.01123  1.31251         4049.87212     19.03619  0.00604   58576.2565  1.73829  0.10509    3060500.86604  43.73547  18.66098   58614.5544     49.8713       43.18277   34.99194  35.56324   29.5     0.4158  -19.20832  0.90485 
   -7.29475  0.00491  13.29141     14.59579  1.86675  0.41928  1.83757  0.24418     0.02415  8640.74249   4263.12884  0.40442         3754.48456     18.02111  0.00058  58576.02645  0.81842  0.00902    1969949.52786  43.99833  18.62766   58614.5544     49.8252        43.1888   31.40222  32.43998   28.0    0.46484  -19.22351  0.99182 
   -7.50008  0.04002  11.02861     14.23845  1.44563  0.72496   1.8462  0.24019     0.01653  7604.48956   4480.56532  1.82157         2259.20126     16.04168    1e-05  58575.82112  0.63686  0.07388    5445078.70374  43.60786  18.65324  58616.28575    49.83857       43.18472   31.56449  33.48296   29.0    0.43549  -19.18404  0.93659 
   -5.57255  0.00128  13.84181     14.30784  1.81994  1.49584  2.00447  0.20314     0.01252  6906.12937   4611.63804  1.09097         4154.06525     16.79552    3e-05  58577.74865  0.57029  0.00257    7844594.71624  43.35195  18.67537   58614.5544    49.80027        43.1064   35.06549  35.88825   28.0    0.48357  -19.21348  0.99745 
   -6.66495  0.11222  18.31929     14.83661  1.61971   0.4596  5.33077  0.11569     0.01037   8831.0207   4819.40676  0.21049         2472.43317     19.34227  0.01222  58576.65626  2.47993  0.59824    1071153.15789  43.92261  18.63864   58614.5544     49.9124       43.16394   31.72723  42.29229   30.5    0.43944  -19.21814  0.45078 
   -8.14037  0.01083  13.73948     14.80091  1.83332  0.34147  2.44991  0.21271     0.01403  7744.14716   4814.70474  0.37768         3492.10777      17.3205  0.00012  58575.18083  0.87644  0.02654     803841.31631  44.35097  18.62576   58614.5544    49.90561       43.19768   31.40222  38.13127   28.5     0.4634  -19.21812  0.97499 
   -8.96875  0.00236  13.46844     14.38675  1.76091   1.1987  3.04786  0.22018     0.01511  8020.78991   4607.96879  0.12168         4927.51504     16.45743    2e-05  58574.35245  1.16965  0.00718    4996793.46552  43.55726  18.66908  58616.28575    49.87362         43.228   31.33874  32.88595   28.0    0.43212  -19.22201  0.99303 
   -7.11792  0.07634  17.32114       14.597  2.08756  0.87311  3.71129  0.19218     0.01026  8084.11436   4794.67596  3.20019         3344.75828     18.98304  0.00534  58576.20329  1.44683  0.28332    3720476.73667  43.54073  18.62089   58614.5544    49.88129        43.2341   32.82247  32.45728   30.0    0.42519    -19.181  0.73683 
   -6.23883  0.04242   6.94648     13.75357   1.7834  0.80801  1.68201  0.31559     0.01093  8399.06852   4505.52245  4.47274         2645.12292     16.03932    1e-05  58577.08237  0.70781  0.07134    24857290.6311  43.44111   18.6498   58614.5544    49.87507       43.14192   29.66238  41.47356   31.5    0.42991  -19.20728  0.97648 
   -9.22027   0.0136  10.18315     14.07885  2.03367  0.90162  1.81294  0.33198     0.01226  7936.96061   3142.74107   2.7538         2899.69553     16.67302    3e-05  58574.10093  0.68127  0.02465   13619738.73144  43.42719  18.66827   58614.5544    49.84162        43.1549   33.97024  35.56324   31.0     0.4082  -19.20062  0.98753 
   -7.45548  0.00362  14.60562     14.53049  1.84016   1.2364  8.52894  0.06281     0.01063  8082.98858   4775.48008  0.21213         5078.23822      20.3556  0.12599  58575.86572  3.32404  0.03089    3167596.10754  43.70393  18.64364   58614.5544     49.8625       43.16967   31.40222  35.88825   30.5    0.38934  -19.32008  0.96843 
   -6.16528  0.00334  15.28031     14.82729   1.9359  0.52073  1.36761  0.25385      0.0212  5856.20502   5734.94543  0.48238         5063.72021     20.02701  0.05912  58577.15592  0.27978  0.00457     929782.76147  44.21908   18.6597   58614.5544    49.85971       43.18275   33.99312  35.22329   30.0    0.41396  -19.20521  0.99512 
   -4.98983   0.0017  12.21316     14.24786  1.49291  1.17764  1.12438   0.3001     0.02526  7045.57728   4533.43007  0.30495         5581.34854     16.21378    1e-05  58578.33138  0.33294  0.00191    6603647.49822  43.44944  18.66515   58614.5544    49.84617       43.15657   34.31813  35.56324   27.5    0.47948  -19.23923  0.99802 
   -6.31227  0.01832   9.61803     13.96682  1.98577   0.7927  2.97004  0.13746     0.01182  8853.95428   4503.91133  3.64352         3317.08054     16.57775    2e-05  58577.00893  1.38888  0.05441   19873417.21642  43.30233  18.65878   58614.5544    49.88306       43.22095   31.40222  33.64524   32.5    0.44231  -19.20801  0.97193 
   -5.98338  0.06223   16.2166     14.68371   1.9101   0.8844   2.7499  0.24844     0.01861  8163.71384   4714.15997  1.14224         3557.36106     19.75075   0.0313  58577.33782  1.09325  0.17112    2001599.05036  43.82861  18.69301   58614.5544    49.84362       43.13958   31.72723  37.80626   27.5    0.42968  -19.21681  0.82619 
   -9.10494   0.0015  11.83967      14.1214  1.70782  1.47664  1.40424  0.30244     0.01734  7045.51357   5962.10056   1.4267          2038.8221     19.61422  0.02285  58574.21626  0.41581   0.0021   12709747.91207  43.25047  18.64934   58614.5544    49.85725       43.17746   34.66693  35.22329   33.0    0.42954  -19.11596  0.99825 
   -7.88932  0.05786  13.65562     14.71413  1.76604  0.53883  3.40438  0.26516     0.01106  8332.98666   4631.07871  0.48948         2748.63899     18.52994  0.00188  58575.43188  1.41015  0.19697    1140710.37885  44.18805  18.68813   58614.5544    49.79537         43.108   34.31813  35.56324   28.0     0.4368  -19.21345  0.83721 
   -8.28231  0.03106  10.92882     14.28168  1.44469   0.5057  5.70238  0.09293     0.01072  9386.34826   4381.50879  3.69658         2236.30644     17.96518  0.00051  58575.03889  2.99693  0.17714    4379067.80563  43.71009  18.65375   58614.5544    49.85567       43.21028    29.1592  32.10013   31.0    0.42074  -19.22096  0.85743 
   -5.94188  0.33847  17.62086      14.2771  1.34788  1.37232  2.50986  0.25059     0.01505  8372.61433   5123.02169  4.44269         2562.53712     17.61364  0.00023  58577.37933  1.04954  0.84951   10847367.50944  42.87112  18.66533   58614.5544    49.84356       43.17054   31.40222  35.22329   33.5    0.42964  -19.18321  0.31396 
   -6.65734  0.00459  12.93847     14.37449  1.48967  0.91404  5.38758  0.11243     0.01197  8646.29018   4200.62074  1.16161         4201.32741     17.49464  0.00017  58576.66386  2.40259  0.02475    4127513.51709  43.60248   18.7139  58616.28575    49.92004       43.18762   30.57945   42.6173   27.5     0.4405    -19.232  0.97213 
   -6.21577  0.00391  14.91566     14.49817  1.83215  1.20013  1.98455  0.33073     0.01142  6514.94876   6022.12214  3.50025         4405.25574     18.36923   0.0013  58577.10543  0.50247  0.00775    3817016.38953   43.6028  18.68743   58614.5544    49.86301       43.10662   36.23614   42.6173   30.5     0.4413  -19.19261  0.99142 
    -7.6249  0.10527  11.79372     14.22385  1.76455  0.70817  1.82394  0.21392     0.01523  7578.37524   3927.04588  1.66939         2437.89358     18.95864  0.00505  58575.69631  0.62487  0.19201    8129116.53421  43.46214  18.70647   58614.5544    49.86666       43.14323   34.99194  40.04928   31.0    0.42082  -19.17187  0.86349 
   -7.76054  0.01256  11.03539     14.33243  1.32147  0.64191   3.2392  0.17381     0.01226  7751.76208   5386.24949  1.70107         3336.36755     18.55109  0.00198  58575.56066  1.16109  0.04069     3232912.8181  43.79473  18.62918   58614.5544    49.94705       43.16581   33.02738  44.65541   32.0    0.43901  -19.20061  0.96004 
   -6.29359  0.00611  12.13378     14.41479  1.36362  0.91449  3.33425  0.20365     0.01863  8452.67373   4777.19708  2.51056         2938.50606      18.3247  0.00117  58577.02762  1.42106  0.02037    2760144.57744  43.79462  18.66248  58616.28575    49.85399       43.16795   33.97024  35.56324   28.5    0.44257  -19.18819  0.97722 
   -4.86304  0.00591  16.10944     14.69494   1.8867  0.63724  2.70828  0.15616     0.03052  8377.81073   4837.78852  0.77058          2802.5922     17.53503  0.00019  58578.45816  1.13392  0.01602    1852644.88193  43.86259  18.61528   58614.5544    49.86232       43.17696   33.02738  35.68334   31.5    0.42482  -19.17936  0.98031 
   -6.95573  0.00235  11.21273     14.12872  1.77732  1.31071  1.83789  0.16589     0.01426  7216.70263   5331.11156   0.5535         2605.64053     20.56586  0.20445  58576.36547  0.57098  0.00432   11470121.24212  43.35962   18.6841   58614.5544    49.89694       43.20447   26.91619  38.13127   32.5    0.43082  -19.35515  0.99698 
   -8.16351  0.00235    4.8578     14.26825  1.55309  0.10972   1.5111  0.33328     0.01086   8093.8183   3213.59795  0.84225         2824.35947     19.73864  0.03043   58575.1577  0.59051  0.00355     989448.32859  45.09177  18.63783   58614.5544    49.81968       43.19055   29.91849  31.34084   33.0    0.41312  -19.20402  0.99915 
   -7.98085  0.00161  10.84937     14.23772  1.48112  0.71192   2.1189  0.31084     0.02359  9423.98379   4333.33343  1.22727         4113.71275     18.59311  0.00218  58575.34036  1.12255   0.0034    5417194.22535  43.63485  18.63103   58614.5544    49.86968       43.20318   31.33874  35.12896   27.5    0.47947   -19.2735  0.99708 
   -8.32211  0.01176   9.31109     14.56207  1.43177  0.22968  2.36899  0.24183     0.01233  8308.23256   4774.84426  0.02242         5899.20883     17.18454    8e-05   58574.9991  0.97545  0.02785     866073.22593  44.54916  18.66218   58614.5544    49.83546       43.16571   32.82247  33.64524   30.5    0.45278  -19.23256  0.98136 
   -4.74538  0.16271  17.28347     14.66127  1.74332  1.41229  3.67734  0.25796     0.01352  9342.57173   4768.39122  0.98472         2537.34004     16.51355    2e-05  58578.57582  1.91467  0.59834    2301031.15054  43.67304   18.6941  58616.28575     49.8554       43.16099   31.72723  37.63295   28.5    0.46234  -19.20689  0.51293 
   -6.76233  0.00276  10.09526     14.32594  2.06345   0.3852  1.72161  0.25917     0.02346  9564.86312   4341.42453  4.81407         2098.04899     18.04584  0.00062  58576.55887  0.93955  0.00475    4352842.47991  43.93643  18.69462   58614.5544    49.87084       43.19394   30.57945  35.88825   30.5    0.47115  -19.24585  0.99751 
    -9.1142  0.00318  11.71188     15.01522  1.43331  0.18689  3.41526  0.17476     0.01087  6962.26183   5625.10644  0.88835         3629.01321     19.93668  0.04802    58574.207  0.98753  0.01086     170207.08479  45.05696  18.64215   58614.5544    49.88055       43.18394   32.82247  37.95796   31.0    0.40284  -19.20677  0.98932 
   -7.02008  0.01262   10.0378      14.1075  1.34989  1.02607  2.23763  0.28645     0.01355  8187.58854   4651.38246  0.38781         3925.41831     17.08062    7e-05  58576.30112   0.8948  0.02823    7698154.53734  43.50948   18.7097  58616.28575    49.87008       43.23418   31.33874  31.34084   28.0    0.45717  -19.22656  0.97713 
   -8.04322  0.08675  12.37822     14.15107  1.71947  0.87032  2.87971  0.13477     0.01429  8291.32921   4535.07256  0.00249          2716.8907     16.36259    1e-05  58575.27798  1.18093  0.24982   12200954.72261  43.23253  18.62147   58614.5544    49.85201       43.18427   34.66693  33.64524   32.0     0.4278  -19.16678  0.80785 
   -6.67628  0.17697  13.77247     14.22526  1.57642  0.95582  2.85469  0.18513     0.01136  8179.46961   4582.81515  0.02887         5784.57663     16.34498    1e-05  58576.64492   1.1393  0.50519    9840083.63273  43.19549  18.65368   58614.5544    49.87426       43.15391    33.9205  40.37428   29.5    0.44632  -19.17426  0.60721 
   -5.80253  0.00424  13.78993     14.51246  1.68244  0.70346    1.812  0.16727     0.01261  5995.55164    5238.4612  0.44856         5989.32809     16.06828    1e-05  58577.51868  0.38855  0.00769     2805117.5181  43.76771  18.64821   58614.5544    49.82808       43.15639   33.97024  34.89828   29.5    0.43942  -19.18813  0.99161 
   -7.37878  0.00139  12.37483     14.72073  1.82244  0.29706  2.90009  0.20264     0.01118  8449.96311    4648.9401    0.209         4550.55259     17.78951  0.00034  58575.94243  1.23523  0.00403     937736.02677  44.37234   18.6854   58614.5544    49.83033       43.12942   34.31813  37.80626   28.5    0.47294  -19.21488  0.99673 
   -6.90608   0.0147   8.88432      14.0957  1.27352  0.54317  1.58869  0.27164      0.0283  9083.34262   4583.38913  4.03687         2278.52821     16.44213    2e-05  58576.41512  0.78191  0.02335    6007172.02894  43.69793  18.63688   58614.5544    49.88978        43.1752   32.98474  40.21201   31.5    0.46674  -19.22325  0.98253 
