 log(Bfield)      Mns    Pspin  cutoff_power  cutoff_wavelength  fnickel    kappa  kappagamma   mejecta  log(nhhost)  temperature  texplosion  thetaPB      vejecta      A_V        MJD_0   log(KE)      M_Ni  Peak_mag     Peak_MJD 
    14.43635  1.59559  2.70804        0.6599         3762.19084  0.00561  0.22181     0.26663   1.79287     17.97382   3308.60427    -7.34253  0.94878  11477.02072  0.00052  59118.15509  52.51691    0.2349  19.24126  59143.45935 
    14.39348  1.54604  2.19626       4.11146          2279.0267  0.04158  0.20509     0.34382   4.23075     19.56404   4014.80776    -7.18984  1.10269  14924.59879  0.02036  59118.30779  52.85791   2.25616  19.27684   59141.5446 
    14.43499   1.7712  3.21103       0.58021          2887.2754  0.10364  0.09061      0.0388   7.13677     17.96288   6229.29232    -9.35761  1.46526   16464.0633  0.00051  59116.14002  52.99984   6.40717  19.20759  59144.56112 
    14.79646  1.92704  3.24609       0.84034         3300.41239  0.13022  0.16044      0.3209   6.99017     19.61759   6539.53932    -9.39531  0.49616  19865.97709  0.02303  59116.10232  53.16087   8.01156  19.18625  59143.40564 
    14.51738  2.09157  2.65534       0.23066         2612.94049  0.02308   0.0963     0.39704   6.74377     20.60127   4504.66748   -20.47364  0.49729  10166.34488  0.22182  59105.02399   52.5753   1.40771  19.20468  59143.40564 
    14.33664  1.86317  4.05385       2.53697         3105.99442  0.01964  0.18844      0.0117    2.1158      17.7411    3656.1337   -11.68952  0.30322    13859.807  0.00031  59113.80811  52.70494   0.86896  19.24516  59147.46568 
    14.40403  1.84836  5.47943        4.6765         2748.21812  0.12463  0.10648     0.04615   4.03595     17.95977   5391.19821   -11.06425  0.61214    16878.066  0.00051  59114.43338  52.95926   6.67723  19.24308  59140.57988 
    14.36696    1.807  2.95204        0.1361         5384.29257  0.04619  0.18809     0.15425   3.27882     17.56936   7822.94195   -10.36457  1.49571  14368.17272  0.00021  59115.13306  52.79435   2.33615   19.2104  59143.40564 
    14.60161  1.86746  1.96621       1.20889         2386.41393  0.04352  0.16932     0.01812   4.24397     16.53184   5909.06526     -5.3632  1.39942  17013.41349    2e-05  59120.13443  52.97205   2.36348  19.22093  59145.48961 
    14.70042  1.63908  3.56259       0.09627         5573.09426  0.13107  0.03668     0.01938  12.29824     18.82076   6002.28735    -9.42025  0.44564  15614.53873  0.00368  59116.07738  53.00587   9.13474  19.14989  59144.56112 
    14.25097  1.39609   3.3663       0.48196         5941.97091  0.05931  0.01942     0.02635  11.81249     19.01355   5616.05556    -9.55724  0.89578  11887.65488  0.00573  59115.94038  52.76535    4.0986  19.20875  59143.45935 
    14.80582  1.61301   0.8672       0.23693         5671.89963  0.09549  0.29678     0.16888   3.77451     19.33323   3828.65291    -3.08308  0.55932  19541.81864  0.01197  59122.41455  53.07862   5.02355  19.22869   59141.5446 
    14.10713  1.43845  3.96358       0.79838         3744.12972  0.06151  0.05315     0.36939   4.53816     18.62782   6994.99552   -11.38193  0.90551  12298.52039  0.00236  59114.11569  52.69785   3.39995  19.18636   59141.5446 
    14.45306  1.53979  4.13968       1.21477         3505.47298  0.27363  0.10003     0.11057    5.6195     19.01595   7196.61998    -8.00523  0.64347  16111.93804  0.00576   59117.4924  52.95607  15.97048  19.21751  59143.40564 
    14.60369  2.01792   3.6027       1.81145         2813.57048  0.17154  0.14794      0.0288   5.05961     18.08763   4773.70849    -5.34022  1.12681  17896.13332  0.00068  59120.15741  53.03585   9.75169  19.24382     59140.59 
    14.40554  1.65361  3.95839       4.96268         3106.51614   0.0722  0.24496     0.01371   3.29943     18.64106   5120.45587    -8.73096  0.82889  14390.78785  0.00243  59116.76667   52.7965   3.65816  19.24911  59144.56112 
    14.52971  1.63693  2.32966       0.39594         3441.01818  0.28934  0.29224      0.2169   1.09057     16.88042   6210.84782    -4.42731  1.07366  13923.39993    4e-05  59121.07032  52.60287  10.02681  19.26779   59141.5446 
    14.21639  1.77195  4.21599       0.05518         5960.90595  0.31751  0.18489     0.02944   2.32826     17.20864   5057.70696   -12.40022  1.40194  15889.74757    9e-05  59113.09741  52.83704  14.48556  19.18051  59141.44442 
    14.34931  1.54368  3.14135       0.90412         2793.98071   0.1562  0.22956     0.02913   4.31951     18.89596     5608.147    -9.66493  0.91078  18100.71132  0.00437  59115.83269  53.02789   8.52238  19.20821  59144.56112 
    15.00663   1.9183  0.71554       1.58204         2195.35542   0.0207  0.07908     0.02542   9.06738     16.45483   9674.31194    -4.48424  0.60515   18702.1064    2e-05  59121.01338  53.13422   1.35107  19.16084  59141.44442 
    14.53062  1.75049  2.61794       0.86625         3381.09713   0.3156  0.11228      0.3347   3.13118     16.92526    5146.5993    -4.59381  0.97831  10517.10643    5e-05  59120.90381  52.51758  15.75047  19.14898  59141.44442 
    14.73597  1.52466  2.14483       0.47602         2932.38928  0.37177  0.14409     0.01217   4.25251     19.47873   4885.88749     -4.8217  0.55398  19121.80159  0.01673  59120.67593  53.07376  20.19944  19.17168  59144.56112 
      14.586  1.77406  4.69066       3.03443         3061.53752  0.38547  0.16707     0.05725   3.04143     19.38397   3844.68654    -5.22745  1.00706  17523.91999  0.01345  59120.27017  52.95738  19.07557   19.2039  59143.45935 
    14.24783   1.8081  5.41404       4.36318         2956.68662  0.17368  0.12986     0.10396   4.48209     18.95144   3281.69164    -9.86735  1.51729   17978.3624  0.00497  59115.63028  53.02623    9.5689  19.21586  59145.48961 
    14.32123   1.8668  1.60297        0.6524         4019.22193  0.05317  0.04463     0.39885   8.84585     21.14698   4724.29186    -6.84336  1.03692  15858.02714  0.77931  59118.65426  52.98855   3.45228  19.15834  59145.48961 
    14.56678  1.79467   4.3906       1.22909         3068.58145  0.08482  0.28534     0.18032   1.58211     19.42145   8629.34874   -13.84956  0.45257  12603.67612  0.01466  59111.64807  52.57906   3.39584  19.22705  59141.44442 
     14.9831  1.64182  1.89343       0.03035         4786.78459  0.22344  0.05846     0.03573  11.28985     19.45367   3057.90947    -7.78786  0.32567  16997.31248  0.01579  59117.70976  53.07179   15.2952  19.20447  59143.40564 
    14.76813  1.87651  1.65521       0.22552         4407.85918   0.1956   0.3055      0.0582   2.20686     16.51359   3906.89694    -8.40353  0.77869  17018.15507    2e-05  59117.09409  52.88919   8.77209  19.21407  59145.48961 
    14.84236  2.03076  0.75675       0.16858         4292.80397  0.08397  0.10607     0.13079   5.14023      17.0896   5942.16763    -5.94363  0.98409  15756.70382    7e-05    59119.554  52.92701   4.79237  19.21918   59141.5446 
    14.55404  1.29026  1.48405       0.96743         5883.21484   0.0133   0.2875     0.42623   1.32852     18.95722   4086.91332     -5.6775  0.61899   9466.31547  0.00503  59119.82013  52.30212   0.49894  19.15436  59149.42242 
    14.80097  1.89884  3.02436       0.47613         5047.69189  0.03913  0.12705     0.38808   3.42242     16.32393   3032.17747    -4.94662  0.60031  14588.79773    1e-05  59120.55101  52.81288   2.00334   19.2556  59143.40564 
    14.93855  1.69683  2.61717       3.77099         2352.84589  0.09253  0.02274     0.33025   27.1507     17.96797   8428.15331    -6.83149   0.4624  18879.38289  0.00052  59118.66613  53.23686   7.50851  19.26155   59141.5446 
    14.36008  1.37463  3.25111       2.66285         2793.63745  0.01294  0.33308      0.0109    2.0992     19.37546   7476.13279    -4.69539  0.48587  16633.79981  0.01319  59120.80224  52.86229   0.57093  19.15532  59143.45935 
    14.71094  2.04346  1.12296       2.44434         2482.52998  0.18835  0.06917      0.0827   13.0819     20.73209   7666.50487    -6.54036  0.98772  17410.62994  0.29979  59118.95727  53.10597  13.29485  19.22151  59143.40564 
    14.56144  1.53587  0.90128       0.15058         5210.74722   0.2921  0.22478     0.02844    2.0808     17.02711   8903.77907    -6.12826  1.26087  15670.04708    6e-05  59119.36937  52.80919  12.85149  19.19553  59143.40564 
    14.59869   1.5881  1.23419       0.80151         5975.09513  0.41304  0.27619     0.17545   1.98617     17.95969   7109.73308    -3.26076   1.0597  13164.64137  0.00051  59122.23687  52.65117   17.8946  19.20696  59143.45935 
    15.03932   1.1938  2.06499       2.15513         3042.24038  0.22317  0.04516     0.12934  10.97794     16.98377   6657.25744    -1.82174  0.23181  16581.18651    5e-05  59123.67588  53.04768  15.18679  19.19113  59144.56112 
    14.51018  1.61273  1.73382       2.76564         2608.02513  0.22261  0.22741     0.01722   7.10839     16.85831   9417.84221    -5.91418  1.06929  21573.86916    4e-05  59119.58345  53.23422  13.74919  19.17518  59140.57988 
     14.6729  1.34458  2.22566       3.61441         3462.71053  0.11761  0.10617     0.40955   9.01783     16.07803   6348.97316    -2.30694  0.65586  22630.51991    1e-05  59123.19068   53.2993   7.66896  19.17083   59141.5446 
    14.66356  1.71816  2.39661       4.25769         3240.42501  0.08546  0.11847     0.24645   7.53393     18.24128   4640.91185    -3.01017  0.92327  16227.00065  0.00097  59122.48745  52.99271   5.35045  19.22165  59144.56112 
    14.61059  1.76889  2.74876       0.09851         5956.04078    0.413  0.10309     0.13096   4.05317     20.61501   8998.76261    -9.26516  0.53937  16123.99554  0.22895  59116.23246  52.92006  22.15304  19.17324  59144.56112 
    14.95565  2.18315  3.62654       2.57789         2568.98292   0.1302  0.10065     0.04581   7.30694     20.76952   6137.22395    -5.28436  0.33867  21607.30885  0.32678  59120.21327  53.23836   8.09331   19.1848  59143.40564 
    14.12627  1.69707  5.18813       1.52967           3597.738   0.0512  0.01907     0.01645  15.30746     18.42704   6051.57995   -11.46483  1.49236  13691.14884  0.00149   59114.0328  52.91098   3.73043  19.17977  59143.40564 
    14.48866  1.63117  2.05783         0.278         3407.36379   0.0409  0.21696     0.01024   4.66092     19.64966   7989.36714     -9.0013  0.86238  17627.38856   0.0248  59116.49633  53.01355   2.27641  19.16356   59141.5446 
    14.52112  1.76843  5.40721       1.72145         3108.83934  0.08509  0.01023     0.15205  32.49132     16.09425   3980.69907     -7.6538  0.94873  13955.77352    1e-05  59117.84383  52.98808   7.12599   19.2444  59145.48961 
    14.78931  1.93342  1.20123       2.25593         2591.75926  0.05399  0.14631     0.27491   6.93557     18.87055   8517.79183     -1.4859  1.17321  22949.14857  0.00412  59124.01173  53.28539   3.31568  19.14133  59146.59011 
    14.20699  1.65792  4.45928       4.51175         2331.99762  0.27007  0.31108      0.0482   1.48915      18.8322   5892.30717   -13.65054  0.66239  15143.29941  0.00378  59111.84709   52.7289  10.57579   19.1651  59145.48961 
    14.55958  1.63197  2.03031        4.6861         2860.36722  0.00993  0.29715     0.15194   5.03341     16.97547   7513.83097     -9.8921  0.67305  14356.36864    5e-05  59115.60553  52.84385   0.56371  19.11669  59143.40564 
    14.47487    1.471  3.26969       0.14193         5776.55119  0.13237  0.27635     0.32345   1.82502     19.08183   4435.73331    -7.97909  0.49042  15395.85474  0.00671  59117.51854  52.77472   5.57298  19.23948  59144.56112 
    15.07238  1.76319  2.76092       1.74008          2578.1333  0.34763    0.253     0.01608   3.80037     17.10885   4954.21526    -3.02018  0.27842  21900.09524    7e-05  59122.47745   53.1784  18.32299  19.24812  59144.56112 
    14.65136  1.48461  2.38133       0.28006         5361.61472  0.05349  0.05836     0.11874   6.92655      19.5399   3160.51545    -5.93191  0.45536  13143.83827  0.01926  59119.56572  52.80116   3.28348   19.1956  59145.48961 
    14.40457  1.72763  2.86203       0.13278         3565.27334  0.15339  0.25023     0.06485   2.53838     16.70969   3755.96368    -7.41389  1.51385  16755.00431    3e-05  59118.08374  52.89483   7.18947  19.14833  59143.40564 
     14.9182  1.47372  1.21317       0.17266         5119.77187  0.23166  0.06973     0.02535   8.96945     16.27862   4301.76436    -7.61626  0.36591  14843.44284    1e-05  59117.88136  52.93246  15.08718  19.15432  59141.44442 
    14.43386  1.85813   3.6779       0.13916         5315.37607  0.19221  0.09442     0.15587   5.37209     20.17509   8397.21995   -15.41692  0.70625  13784.13838  0.08314  59110.08071  52.81567  11.09327  19.18476  59143.44421 
    14.71362  1.88848  0.84001       0.25721          5482.3281  0.01906  0.14091     0.01881   6.14428     18.40053   3352.91313    -6.23511  0.97408  14790.07545   0.0014  59119.26251  52.89122   1.13701  19.20324  59144.56112 
    14.11633  1.73485  4.60395       0.63436         3925.89489  0.16724  0.16367     0.13704   1.41884      17.9207   7892.13122   -11.11939  1.26777  11881.67495  0.00046  59114.37824  52.51039   6.43202  19.21194   59141.5446 
    14.88343  1.58108  2.20212       2.71757          2974.7798  0.18831  0.25035     0.01009   6.07084     19.08557   7042.52081    -4.04315  0.33571  21338.36058  0.00677  59121.45448  53.20834   11.2009  19.16679  59145.48961 
     14.4805  1.48567  2.87247       0.68563           5013.777  0.01229  0.03519     0.01323   3.68435     20.33849   6495.86084   -11.47942  0.35346   7071.75815  0.12112  59114.01821  52.19285   0.64225  19.15756  59146.59011 
    14.09665  1.92463  5.44712       1.49857         2883.31021  0.29507  0.02452     0.01249   14.1605     17.83877   9651.45647   -15.25712  0.98403  13264.28469  0.00038  59110.24051   52.8767  21.16598  19.14885  59143.45935 
    14.75342  1.89071  0.78747       4.39157          2610.4189  0.40657  0.25191     0.02872    5.3855     16.32981   3084.90352    -0.54123  1.55389   23360.4969    1e-05   59124.9564  53.27414  23.47935  19.18692   59141.5446 
    14.88646  1.66409   3.6894       1.77162         3318.67771  0.00776  0.26617     0.38031   2.13762     19.02505   9010.67601    -6.56191  0.28744  13804.66049  0.00589  59118.93572  52.70293   0.34434  19.16439  59141.44442 
    14.50325  2.03355    4.837       1.11305         2531.62156  0.06653  0.06094     0.10514    8.6236     17.16172   8089.30371   -11.15251   0.7405   15788.0497    8e-05  59114.34512  52.98224   4.29516  19.24115   59141.5446 
       14.53   1.7473  3.60117       0.14714         4059.34652  0.19693  0.08051     0.34883    5.6848     16.59772    5352.5859    -7.44631  0.85833  16801.14943    2e-05  59118.05132   52.9937  11.52643   19.1842  59145.48961 
    14.57706  1.64272  2.64561       1.05984         2920.65924  0.15317  0.03038     0.01862  16.08861     17.40842   6989.48568    -5.80033  1.03803  15706.10796  0.00014  59119.69729  53.03451  11.26963  19.17186  59143.40564 
    14.84685  1.56471  1.89163        0.3669         4273.76627   0.0563   0.1433      0.1431   3.08669     16.67073   3078.75177    -4.87524   0.4487  15881.50722    3e-05  59120.62239  52.87377   2.79836  19.19524  59143.45935 
    14.45449  1.77572  6.69946       4.07393         3003.59194  0.34148  0.03539     0.01961  10.48671     18.70205   6132.45776   -11.65675  0.62803  14845.23914   0.0028  59113.84087  52.94738  23.01147  19.24871  59143.40564 
    14.50131  1.81911  4.49206       1.87724         3318.58769  0.46383   0.1692     0.17955   2.26033     17.47678    9343.8903     -7.2489  0.91843  11675.65733  0.00017  59118.24872  52.56527  20.96236  19.17495  59144.56112 
    15.10938  1.69214  2.05424       0.63377         5479.00583   0.0316   0.0836     0.07158   3.92179      18.3951   3455.54265    -2.84131  0.28064  12642.05182  0.00138  59122.65631  52.70487   1.68017  19.21079   59141.5446 
    14.95134  1.84306  4.32644       1.99951         2152.90418  0.15329  0.09798     0.04873   7.19929     18.69091   7938.82231    -6.29851  0.29432  21598.16145  0.00273  59119.19912  53.23649   9.49627  19.24519  59143.40564 
     14.9922  1.84404  0.89662       1.58661         2969.94465  0.07691  0.30409     0.05952   4.41456     17.30705   7414.43117    -2.87872  0.49452  21013.63616  0.00011  59122.61891     53.16   4.22029  19.21444  59144.56112 
    14.74373  1.80794  0.75077       0.31726         2744.73219   0.1527  0.11797     0.42456   7.14406     17.22949   8270.15936    -4.96318  1.14834  20281.97026    9e-05  59120.53444  53.18109   9.44238    19.194  59144.56112 
    14.40329  1.63691  3.03871       2.36269         2329.63011  0.05017  0.26707     0.26643   3.37184     16.67732   4810.44894    -7.08407  1.18319   18171.1749    3e-05  59118.41356  53.00178   2.55777  19.23048   59141.5446 
    14.70229  2.10434  1.01302        4.4807         2289.31705  0.01579  0.29949     0.04976   2.26873     21.08944   3288.68217    -2.47011  0.73184  17911.90853  0.68261  59123.02752  52.93751    0.7146  19.21052   59141.5446 
    14.78698  1.50335   4.7252       4.70092         3586.31584  0.00217  0.15112     0.16784   1.88298     16.15633   3983.46367    -6.31456  0.27621   9057.97751    1e-05  59119.18307  52.31861   0.09235  19.18371  59143.40564 
    14.74853  1.82213   4.6964       3.41573         3334.98689  0.02224  0.17938     0.04522   3.08694     17.15527   5626.48728    -6.97687  0.45613   13763.4547    8e-05  59118.52076  52.74945    1.1053   19.2046  59143.40564 
     15.1524  1.68396  4.11919       0.10852         5774.79944  0.17615  0.20557     0.03215    1.6981     18.68007   5266.46816   -10.37407  0.08931  16041.04758  0.00266  59115.12356  52.79949   7.23233  19.12887  59143.40564 
     14.3534  1.78371  2.98277       0.00904         4530.99285  0.44725  0.11909     0.31422   5.10993      20.6593   6006.48642   -10.60918  1.06571  18345.77964  0.25353  59114.88845   53.0585  25.48913  19.25853  59145.48961 
    14.70612  1.80492   3.4819       3.05564          2589.0094  0.46136  0.32546     0.01487   3.20256     17.53307   8499.48026    -8.17924  0.46495  18572.31073  0.00019  59117.31838  53.01435  23.17574  19.20794   59141.5446 
     14.2985  1.28024  3.33123       4.45006         2823.98262  0.27636  0.29373     0.01411   2.71222     19.88032   9968.85914    -7.68736  0.46056  19110.23583  0.04217  59117.81027  53.01786  13.21809  19.26011  59141.44442 
    14.66112  1.66779  1.12251       1.06102         3838.74775  0.01428  0.05881     0.03612  14.01924     17.97873   6634.99449    -5.34317  0.89042  13845.90192  0.00053  59120.15446   52.9131   1.02258  19.19178  59143.40564 
    14.28976  1.48812  3.24494       0.47588         2532.09545  0.12044  0.07964     0.05388   6.46439     16.92193   7653.69142    -7.51802  1.32774   17424.7577    5e-05  59117.97961  53.03893   7.27361  19.17165   59141.5446 
    14.43089  1.77566  4.30661       0.10087         4695.90442  0.26294  0.15502     0.34243   2.08133     16.48473    6610.7747   -11.58309  0.51858  14168.77169    2e-05  59113.91453  52.72175  11.56974  19.24887  59143.40564 
     13.8631   1.3927  3.51551       0.08711         5598.15601  0.18392  0.06805     0.01404   5.78403      17.5825   3189.57273   -14.55479  1.08498  14854.03396  0.00021  59110.94284  52.88856  10.81116  19.21967  59143.45935 
    14.74191  1.68781   1.9596       2.63667         3357.02029  0.28818   0.0746     0.01413   7.48003     19.44209    5592.5096    -1.45357   1.1953  16491.89249  0.01538  59124.04406  53.00605  18.01156  19.20509  59141.44442 
    14.19816  1.63323  4.43941       0.21437         4079.82787  0.46598  0.22639     0.14117   2.18528     16.49058   3899.90078   -11.73674  1.42557  17877.56415    2e-05  59113.76089  52.93061  20.83193  19.25504   59141.5446 
    14.39564  1.97763  2.88819       0.28129         5599.90913  0.30786  0.14586      0.2677   5.74352     18.44785   7033.43306   -19.11924  1.06438  10195.47393  0.00156  59106.37839  52.56094  18.06564  19.18418  59143.40564 
     14.5606  1.60558  5.59033       4.98227          3221.6264  0.06505  0.01349     0.02493  24.89108     18.14347   9949.81834    -5.36733  0.74246  13546.51193  0.00077  59120.13029  52.94177   5.19691  19.22761  59143.40564 
    14.51652  1.86128  2.19648       0.91004         3476.18294  0.05292  0.29298       0.033   3.72334     16.86683   8233.43795    -3.94619  1.28758   16695.1064    4e-05  59121.55144  52.94024   2.77375  19.19186  59139.44645 
    14.75477  1.43526  2.31537       4.82771         2161.44908  0.22349  0.05817      0.0407   9.26787     20.21439   3000.44246    -5.83746  0.41621  14730.53655  0.09102  59119.66016  52.92897  14.66085  19.21979  59143.40564 
    14.33955  1.47745  4.81907       0.75026         2797.80567   0.1835  0.01332     0.01669  25.43403     19.12393   3647.52381   -11.83492  0.81477  14738.58568  0.00739  59113.66271  53.01671  14.71684   19.2332  59143.40564 
     14.5579  1.59411  3.05059       0.18669         4272.76985  0.36902  0.16933     0.01575   3.91756     16.07984   3733.30955     -4.8499  0.72287  19822.58137    1e-05  59120.64772  53.09543   19.6122  19.22258  59141.44442 
    14.86472  2.09251  5.16342       2.18007         2322.00805  0.16359  0.07478     0.01159   7.90604     16.53415   9708.24071    -7.52895   0.4167  19238.72824    2e-05  59117.96868   53.1454  10.35547  19.24011   59141.5446 
    14.74543  1.50408  3.64277       0.53491         2308.58462   0.0587  0.33211     0.18696   1.06976     17.80135   7980.04129   -13.16273  0.18068  13581.90286  0.00035   59112.3349  52.57779   2.01797  19.14469  59143.40564 
    14.82261  1.76238  0.70461       1.43512          2330.0643   0.0026  0.11507     0.22096   9.14119     20.65174    6091.7742    -5.06024  0.62174  22628.72504  0.24916  59120.43738  53.30053   0.16991  19.18569  59145.48961 
    14.55007  1.63967  1.54278       2.71146         2205.46029  0.08055  0.06214      0.1185  15.41624     19.76577   3938.96947    -7.62308  1.20201  17628.17719   0.0324  59117.87455  53.13112   5.87722  19.28652  59143.40564 
    14.73047  1.91636  4.16301        4.5144         3518.13331  0.00136   0.2445     0.01676   1.75798     17.89954   8729.71165    -6.23189  0.64564   8575.06964  0.00044  59119.26574  52.26077   0.05633   19.2014  59143.45935 
    14.71333  2.14261  3.67885       2.03492         3615.68722   0.0622  0.02152     0.01699  17.99483       19.159   4252.23023    -6.82363  1.02441   9270.19525  0.00801  59118.67399    52.586   4.67733  19.24066   59141.5446 
    14.74327  1.39716  0.80904       0.78369         2830.45292  0.04461  0.12045     0.01694   9.64016     18.21961   6430.99048    -5.54127  0.53795  18794.63265  0.00092  59119.95636  53.14436   2.95186  19.17487  59143.45935 
    14.27707   1.6521  4.49021       3.08776         2160.13453  0.07904  0.03595     0.12468  14.23039     18.69834   3886.60868   -11.31959  0.93686  17392.20991  0.00277  59114.17804  53.11247   5.67543  19.21387  59146.59011 
    14.21599   1.7343  4.39058       1.71432         3086.72566  0.18855  0.14453     0.01885   4.60658     20.17652   7413.43996   -11.00878  1.36499  17155.72393  0.08341  59114.48885  52.98866   10.4626  19.21591   59141.5446 
    14.83193  1.98812  2.18242       3.31123         3395.97672  0.00364  0.22517     0.40032   3.37582     16.93468   7592.03431    -1.63161  0.64412    10202.914    5e-05  59123.86602   52.5006   0.18575  19.19125  59143.40564 
    14.28031  1.36924  4.30708       3.92674         2810.19535  0.00598  0.23325     0.32837   1.03741     17.95587   4505.56536    -11.6395  0.48666  12059.89438   0.0005  59113.85813  52.46891   0.20304  19.18778  59144.56112 
    14.46951   1.5495  3.27796       0.82433         2860.15273  0.06971  0.20415     0.37625   3.05785     16.32329   7603.32312    -7.83105  0.66838  15500.57904    1e-05  59117.66658  52.85149   3.45495  19.26132  59143.45935 
    14.94607  1.70586  4.14464       0.52623         4216.40719  0.34736   0.1553     0.10516   1.23601     18.28799   5833.17149   -11.54168  0.12713    9890.2171  0.00108  59113.95594  52.32791  12.66629  19.25868  59143.45935 
    14.58035  1.91848  3.84944       2.20909         2685.71665   0.4033   0.1795     0.05119   5.18242     16.82818   9640.79938    -8.92581   0.8489  18506.26185    4e-05  59116.57182  53.06761  23.06607   19.1975  59140.57988 
    14.77231   1.5812  2.32358       0.35634         5144.99131  0.35386  0.13998     0.01441    3.5291     18.03207   3026.57719    -5.15628  0.49267  15122.10716   0.0006  59120.34135  52.84781  18.27255  19.12099  59146.59011 
    14.55786  1.71474  4.30425       4.89798         2771.48878  0.11629  0.15372     0.31479   3.73653     17.59806   9975.74424    -4.27218  0.90763  17951.12841  0.00022  59121.22545  53.00367   6.10101  19.19143   59141.5446 
    14.82842  2.09421  1.62785       0.50941         5069.88867  0.02789  0.23316     0.02071   1.98664     17.30552   7793.36195    -4.02771  0.89998  14318.36451  0.00011  59121.46992  52.72418   1.20843  19.14789  59145.48961 
    14.06193  1.70227   3.1733         0.146         2250.67405  0.12199  0.23333     0.03834     2.062     20.61676   5671.61719   -15.84643  1.25253  14646.56391  0.22987   59109.6512  52.74922   5.35099  19.19581  59144.56112 
    14.60971  1.73405  0.84857       0.47464         5861.94734  0.00182  0.01864     0.01963  19.04211     20.00332   3502.29809    -6.79642  1.12991   10805.0241  0.05598  59118.70121  52.72378   0.13856  19.19828   59141.5446 
    14.71462  1.80477  5.04375       2.78401          2963.0524  0.08185  0.06063     0.02389   7.83672     16.86364   4463.14103    -6.70033  0.46789  16819.71191    4e-05  59118.79729  53.02781   5.17054  19.21077   59141.5446 
    14.18305  1.53005   3.9457       4.85771         2457.81923  0.04902  0.29938     0.03789   2.42014     18.38808   8384.13804    -9.76034  1.28261  17127.50402  0.00136  59115.73729  52.90749   2.26366  19.16667  59144.56112 
    14.53991  1.65796  5.00501       3.08938         3018.37419  0.10403  0.16339     0.04186   3.11281     17.16543   4581.63522     -6.7254  0.50613  18076.72756    8e-05  59118.77222  52.98729    5.1828  19.20635  59143.45935 
    14.31866  1.52634  1.50786        1.9137         2418.07533  0.01247  0.22782     0.11896   2.67278     20.90908   6990.63637     -6.4697  1.22166  18133.58331  0.45062  59119.02793  52.97036    0.5938  19.11464  59140.57988 
    14.53325  1.66447  1.23412       0.16427         5805.22836  0.22645  0.09657     0.06973  10.96892     17.24306   6740.17655    -7.78763  1.48179  18196.67149   0.0001     59117.71  53.12836  15.40733  19.17909  59145.48961 
    14.56993  1.97664  3.32842       0.13883         5513.03354   0.2994  0.27244     0.34498   2.46313     19.83403    4982.2347    -7.21978  1.03352  19589.62849  0.03791  59118.27784  53.02654  13.90291  19.13239  59144.56112 
    14.04544  1.45008  3.47983       0.21259         5080.84969  0.12071  0.16874     0.01015   3.11107     18.80606   7532.02964    -7.81116  1.40486  17682.56127  0.00355  59117.68647  52.96807   6.01302  19.20294  59144.56112 
    14.35028  1.32548   1.5674       0.05691         5450.45495  0.10662  0.06123      0.0452  12.10622     16.20914   9265.12986    -9.60914  1.38856  18488.12216    1e-05  59115.88849  53.15117   7.40648  19.21332  59144.56112 
    14.19128   1.5754  2.93256       1.08047          5987.1895   0.0018  0.10079     0.10639   1.45398     19.12255   6352.11748   -10.41736  1.41902   4903.57869  0.00737  59115.08027  51.74563      0.07   19.2261  59143.40564 
    14.28117  1.73326  3.67344       0.41414         4992.94377  0.04923  0.04937     0.02442   7.66782     19.53172   7209.80202    -9.02153  1.26547  12291.60207   0.0189   59116.4761  52.75322   3.09442  19.21866  59143.40564 
    14.58695  1.93997  1.80404       1.21706         3127.11984  0.30343  0.33647     0.01653   4.53656     16.17143   9177.93657    -6.23461  1.33693  19929.46084    1e-05  59119.26301   53.1171  16.77011  19.18847   59141.5446 
     14.8905  1.66487  2.18639       0.07742         3666.82489  0.04942  0.08233     0.38738   11.4527      16.1955   9456.09276   -13.54834  0.28546   14797.9179    1e-05  59111.94928  52.95274    3.3931  19.23124   59141.5446 
    14.57911  1.62927  2.67643       1.88546         2397.03286  0.39015  0.09572     0.41561   7.70548     16.25772   6802.53076    -7.77933   1.0453   18351.5116    1e-05   59117.7183  53.10183  24.55253  19.23026  59143.40564 
    14.85331  1.85105  2.00814       1.96456         2934.73493  0.19639  0.06516     0.03549  19.59489     16.24986    8040.9309    -5.47101  0.65681  21113.85658    1e-05  59120.02662  53.30802  15.00973  19.22227  59143.40564 
    14.87147  1.92299  1.45725        0.5422         5646.00481  0.04052   0.1933     0.11387   1.95657       19.981   7895.97898     -4.7632  0.60952  12394.06966  0.05318  59120.73443   52.5966   1.74659  19.17468  59144.56112 
    14.31596  1.77296  4.69823       1.30902         3412.40787  0.07691  0.28522     0.26221   1.60329     18.26521   5457.62952   -12.78466  0.89854  13147.67735  0.00102  59112.71297  52.61784   3.09398  19.16823  59143.40564 
    14.50943  1.50441  2.74974        1.4986         3628.21442  0.17905  0.07031     0.01813  10.80821     20.24563   6566.70209     -5.1095  0.90649  17256.24646   0.0978  59120.38813   53.0809  12.14361  19.20423   59141.5446 
    14.77369  1.46124  2.24105       0.05072         3047.60644  0.09813  0.13456      0.1126   4.41611     18.47388   4783.57051   -11.42005  0.29461  14014.92062  0.00165  59114.07758  52.80822    5.3855   19.2433  59144.56112 
    14.47368  1.78481  3.16796       2.63773          2221.9051  0.22475  0.24963     0.13649   2.99647     18.78351   6148.89815    -8.46175  1.22615  17207.67726  0.00337  59117.03587  52.93966  11.07355  19.15492  59140.57988 
     14.6616  1.75905  0.97076       0.39608         2994.25262  0.01655  0.33338     0.43745   2.64992     19.07307   8386.74245    -4.03832  1.07047   18728.5856  0.00657  59121.45931  52.99727   0.78583  19.25161     59140.59 
    14.30484   1.7068  4.35438       2.01767         3571.63772  0.06531  0.25048     0.01446   2.08775     18.28744   3484.11046   -10.64738  0.93904  11922.20908  0.00108  59114.85025  52.57224    2.8767  19.15498  59143.44421 
     14.9342  1.95923  1.45947       1.92262         3572.76908  0.06509  0.28265     0.01176   2.88329     19.59227   8549.15051    -3.62037  0.56254  12916.13136  0.02173  59121.87726  52.68555   3.17078  19.18009   59141.5446 
    14.57067  1.52075   4.1326       2.95633         2675.90066  0.20114   0.2913     0.05025   1.83992     19.46562   7221.73788    -8.88082  0.39735  16455.12637  0.01623  59116.61681  52.83373   8.49183    19.222  59144.56112 
    14.46117  1.78286  5.29685       1.49896         3758.57136  0.45833  0.05047     0.22232   4.46503     17.32247   7508.34243    -7.51302  0.84672  10896.71612  0.00012  59117.98461  52.59089  25.22626  19.18382   59141.5446 
    14.63729  2.05127  2.48274       1.56756         2090.56432  0.02105  0.30679     0.17166   2.01423     17.32283   9529.65319    -3.24434  1.38215  17564.33621  0.00012  59122.25329  52.90365   0.91624  19.22136  59143.40564 
    14.29006   1.8691  5.60785       2.22152          3160.4539  0.27926  0.07931     0.02583   5.57304     16.02046   6578.18549    -8.89178  1.16407  15752.15484    1e-05  59116.60584  52.93556  16.26542  19.15079  59144.56112 
    14.57234  1.76585  1.01717       0.16375         4016.63067  0.03733  0.19424     0.01559   4.46847     20.51476   9671.97627    -6.74537  1.03179  18004.61805  0.18176  59118.75225  53.02715   2.05521  19.19574   59141.5446 
    14.71088  1.89051  2.67033       0.11237         5870.16722  0.14414  0.20543     0.12623   2.83282      19.6493   6033.61144    -7.19594  0.67992  17529.41145  0.02478  59118.30169  52.94854   6.98482  19.20158     59140.59 
    15.17427  1.98971   1.3026       1.42444         3399.07881  0.18187  0.02477     0.06251  28.01634      16.0848   9523.39816    -4.40185    0.604  21967.17819    1e-05  59121.09577  53.37086  14.84036  19.27836   59141.5446 
    14.68801  1.95059  3.97733       3.90945         3143.92792  0.08496  0.11047      0.3777   5.32229     19.71507   7736.60631    -4.24419  0.73183  12334.13952  0.02883  59121.25343  52.71811   4.89178  19.21852  59143.45935 
     14.3897  1.49343  1.92105        4.2714         2471.48387   0.2868  0.20216     0.24953   6.19691     17.64478   7515.08687    -3.26608  1.35918  18512.09478  0.00025  59122.23155  53.08709  17.14465  19.22388  59143.40564 
    14.49247   1.7992  2.84498       2.63588         3670.38185  0.00444  0.16453     0.01614   3.11397     18.59877   6967.65123    -3.45358  1.48653   9121.07261  0.00221  59122.04404  52.39319   0.22147  19.19601  59143.45935 
    14.35018  2.04315  3.31143       3.92182          2488.6014  0.11687   0.2849     0.01245   5.02826     20.39086   5135.08173     -6.2402  1.49167  22244.29928  0.13664  59119.25743  53.22409   6.63334  19.17078  59147.46568 
    14.41586  1.61921  2.74386       0.52544         4523.87674  0.21012  0.30104     0.36361   1.22769     18.72381   5304.85636    -9.92587  0.87801   9855.31542  0.00294  59115.57176  52.32367   7.64127  19.18361  59143.40564 
    14.08936  1.57002  4.13903       1.49235         3486.75802  0.01749  0.16131     0.06457   1.61857     18.02615   3651.03451   -12.73765  1.02053   8737.47021  0.00059  59112.75998  52.26439   0.70594  19.20046  59145.48961 
     14.7191  1.64853  1.14256        0.8351         2748.73379  0.05175  0.33287     0.01605   5.41649     17.02354   5011.87704    -7.22445  0.56862  19253.30718    6e-05  59118.27317  53.10681   2.99269  19.20232  59144.56112 
    14.29274  1.73825  2.87208       3.17162         2578.86954  0.24883   0.2177     0.01011   5.63588     20.49059   9929.30661   -10.07464  1.04119  17623.89116  0.17192  59115.42299   53.0343  14.53358  19.25562  59143.45935 
    14.38613  1.63642  3.85875        2.0262         2794.62712  0.21622   0.3209     0.01666   2.56428      18.7547   6629.84623    -9.61836  0.42636  19914.34939  0.00316  59115.87927  53.04623  10.16645  19.20712  59143.40564 
    14.69692  1.60713  1.00192       0.33382         3495.98427  0.21406  0.08503     0.28304  13.35992     18.72509   3309.27814    -5.33875  1.01664   23850.0207  0.00295  59120.15888  53.38119   15.1743  19.25616  59143.45935 
    14.73808  1.74129  5.24073       1.79414         4036.82919  0.05117  0.07861      0.2538   2.52182     16.08997   4654.59716    -5.13666  0.44337  10627.86163    1e-05  59120.36096  52.49855   2.39362  19.17151  59141.44442 
