 texplosion  fnickel    Pspin  log(Bfield)      Mns  thetaPB  mejecta    kappa  kappagamma     vejecta  temperature    alpha  cutoff_wavelength  log(nhhost)      A_V         MJD0  kenergy  mnickel             TSD   log(L0)  Peak_mag     Peak_MJD  log(E_rad)  log(Peak_lum)  Rise_Time     E_fold  tau_1  delta_m15     r_peak     frac 
  -10.81464  0.00756  2.49557     13.32955  1.29914  0.84322  0.91707  0.30525     0.04582  2305.17019   9998.34663  2.74694         3728.66336     18.90836   0.0045  59154.57918  0.02907  0.00693  16470901.77409  44.37144  17.12234  59234.52734    51.26365       44.15453   58.06412  113.94114  136.0    0.04527  -21.05188  0.99958 
   -10.9663  0.00729   3.0065     13.56233  1.68122  0.73646  0.88598  0.30974     0.04487  2179.07903   9958.45154  2.56267         3747.20688     18.99543   0.0055  59154.42752   0.0251  0.00646  10590177.20273  44.51344  17.13059  59234.52734    51.28065       44.18092   56.46343  112.23404  138.0     0.0453  -21.04679  0.99962 
   -11.1163  0.00657  3.14658     13.55917  1.77831  0.80861  1.29697  0.21091     0.03185  2234.29656   9973.10069  2.54221         3743.82603     18.09848   0.0007  59154.27752  0.03862  0.00853  12449751.22678  44.42801   17.1378  59235.42687    51.29044       44.19386   55.46833  109.92134  137.5    0.04322  -21.03346  0.99949 
  -10.61029  0.00482  3.09188     13.63771  1.71982  0.60454  1.46349  0.17314     0.02353  2083.01372   9938.57817  2.71435         3803.66255      18.8653  0.00407  59154.78353  0.03788  0.00706   8096946.56849  44.61556  17.14115  59234.54297    51.27604        44.1692   57.14278  114.86248  138.5    0.04449  -21.03091  0.99957 
  -11.04071  0.00173  2.62581     13.35586  1.42197  0.91425  1.00292   0.2834     0.03958  2259.20618   9968.00982  2.80601           3609.952     17.91203  0.00045  59154.35311  0.03054  0.00174  17681269.08031  44.33569  17.12819  59233.32339    51.27012       44.16582   56.28833  112.40913  136.5     0.0434  -21.03573   0.9999 
  -12.69695  0.00715  2.56963     13.64739  1.29858  1.05287  5.52346  0.13135     0.47651  1349.66067   9161.33715  3.33544          4111.7214     16.23507    1e-05  59152.69687  0.06002  0.03951   4038648.46886  44.95633  17.13683  59234.52734    51.26254       44.15472   57.26744  114.73781  117.0    0.04307  -20.99736  0.99781 
  -10.59429  0.00781  3.12554     13.57105  1.73726    0.765   1.0216  0.26047     0.04153  2221.78966   9913.80871  2.73739         3685.44163     16.10981    1e-05  59154.79953  0.03008  0.00798   11361440.3797  44.46343  17.13347  59233.32339     51.2809       44.17887   57.14278  111.55468  141.5    0.04499  -21.03267  0.99951 
  -10.73519  0.00819  2.87221     13.49223  1.58333  0.80939  0.91185  0.30844      0.0519  2338.40001    9979.7661  2.75608         3516.49735     18.24779  0.00098  59154.65863  0.02974  0.00747  12570920.71721  44.45262  17.12451  59233.32339    51.30928       44.22486   54.48044  107.60144  138.5    0.04642   -21.0317  0.99956 
  -10.63018  0.00428  3.60724     13.68319  2.07941  0.78566  1.12518  0.25196     0.03897  2282.80498   9990.59495  2.75853         3711.82376     17.49354  0.00017  59154.76364  0.03498  0.00482  10807746.27858   44.4387  17.12486  59242.73453    51.21698       44.07869   70.61473    93.1497  137.0    0.04606  -21.04478   0.9997 
  -11.14037  0.00193  3.28489     13.60092  1.86616  0.78385  1.34265  0.21811     0.03365  2356.22957   9994.62896  2.54464         3751.86048     18.30618  0.00112  59154.25345  0.04447  0.00259  11748122.55584  44.43678  17.14103  59234.52734    51.28489       44.19022   56.23249  109.15718  135.0    0.04526  -21.04547  0.99984 
  -11.17506  0.00934  2.92441     13.50197  1.62163  0.81531  0.95394  0.31852     0.04957  2374.32078    9964.2971  2.65747         3565.11388     16.83514    4e-05  59154.21876  0.03208  0.00891  12761610.99216  44.44081   17.1329  59233.27786    51.30637       44.21784   54.44452  109.01757  137.0    0.04329  -21.03611  0.99947 
   -10.2514  0.00419  3.06572     13.65231  1.72791  0.58089  0.97838  0.25011     0.03736  2144.80915   9948.93561  2.67254         3716.84713     17.89602  0.00044  59155.14242  0.02685   0.0041    7477984.3438  44.65952  17.13875  59235.42687    51.27553       44.16852   56.46343  115.54183  141.0    0.04497    -21.026  0.99976 
   -10.6314  0.00438  2.81971     13.49176  1.55042  0.72392  1.22629   0.2259     0.03262  2268.55312   9923.56355  2.92888         3614.60243     17.63767  0.00024  59154.76242  0.03765  0.00537  11889190.04231  44.48373  17.13994  59234.52734    51.27136       44.16744   58.06412  110.63334  136.0    0.04411  -21.04704  0.99968 
  -10.75059  0.01733  2.89686     13.47685  1.57146  0.82508  0.85295  0.33413     0.05597  2374.34458   9995.81692  2.63746         3704.66624     18.48812  0.00171  59154.64323  0.02868  0.01478  13622690.01359  44.40703  17.13769  59233.32339     51.2785       44.17639   56.46343  112.23404  136.5    0.04632  -21.05008   0.9991 
  -11.04689  0.00522   2.6439     13.41931  1.45006  0.79597  0.99821   0.2749     0.04028  2252.63697   9965.71228  2.81316         3519.30416     17.99422  0.00055  59154.34692  0.03022  0.00521  13648219.38291  44.45067  17.12874  59234.54297    51.27188       44.16716   58.25261  110.44485  137.5      0.043  -21.02945   0.9997 
   -10.7575   0.0112  2.94227     13.49362  1.64731  0.86849  1.03849  0.25981     0.04154  2291.97799   9945.08289  2.45439         3653.78909     17.70604  0.00028  59154.63632  0.03254  0.01163  13637061.94322  44.41353  17.11208  59242.73453    51.22414       44.09208   69.79161   93.97282  138.0    0.04314  -21.03133  0.99932 
  -11.30144  0.00611  3.04588     13.55809  1.67687  0.80106  1.52746  0.18385     0.02796  2170.73745   9980.82219  2.27602         3891.20637     18.52705  0.00187  59154.09238  0.04294  0.00933  11054812.87989  44.48237  17.13322  59235.42687     51.2773       44.16899   58.25261  113.75264  138.0    0.04555   -21.0396  0.99944 
  -10.95681  0.01123  3.03591     13.55717  1.67624   0.7236  1.00851  0.28129     0.04688  2384.39539   9999.27754  2.44743         3792.80996     16.80928    4e-05  59154.43701   0.0342  0.01133  11025370.54907  44.48621  17.13132  59234.52734    51.28754       44.19368   56.23249  109.15718  137.0     0.0444  -21.04085  0.99931 
  -10.43832  0.00353  2.80293     13.54629  1.58065  0.62129   1.0451   0.2408     0.03982  2369.65363   9996.82243   2.3913         3697.02825     18.43466  0.00151   59154.9555  0.03501  0.00368   9317520.06362  44.60316  17.12098  59234.52734    51.29099       44.19385   56.46343  112.23404  136.0    0.03994  -21.02964  0.99979 
  -10.97693  0.00995  3.19198     13.52481  1.74873  0.85917  0.96303  0.28565     0.04208  2207.46219   9980.78359  2.79602         3855.15737     18.41604  0.00145  59154.41689  0.02799  0.00959  14758060.04926  44.33442  17.11031  59242.73453    51.24461       44.12569   68.53039   91.11414  138.5    0.04424  -21.04504  0.99939 
  -10.49176  0.00211  3.17881     13.54681  1.77179  0.84806  0.88059  0.32294     0.05382  2366.19296   9971.96051  2.63029         3716.26026     17.33879  0.00012  59154.90206  0.02941  0.00186  13400788.35691   44.3856  17.14086  59234.52734    51.27554       44.17262   56.23249  112.46498  136.0    0.04471  -21.04522  0.99989 
  -10.69342  0.00482  3.04124     13.51598  1.63981  0.83667  1.03076  0.25551     0.03858  2133.81222   9957.71558  2.62515         3822.92319     16.75908    3e-05   59154.7004    0.028  0.00497  13084383.70173  44.40078  17.12341  59234.52734    51.27441       44.17045   56.46343  112.23404  139.5    0.04665  -21.02746  0.99969 
  -10.30219  0.01835  2.67962     13.41825  1.44146  0.81759  0.89116  0.30593      0.0518  2346.29807   9952.77381  2.68736         3632.58498     18.19202  0.00086  59155.09163  0.02926  0.01636  14004487.10584  44.42523  17.13082  59233.32339    51.27677       44.17831   56.46343  112.23404  138.5    0.04394  -21.04937  0.99903 
   -10.6535  0.01458  3.25062     13.55522  1.81788  0.89578  1.03355  0.25598     0.03498   2082.7613   9980.92657   2.6061         3861.54425     17.53734  0.00019  59154.74032  0.02674  0.01506  13831723.15454   44.3636  17.12812  59233.32339    51.30162       44.20992   55.37039  109.95416  138.5    0.04659  -21.04315  0.99908 
  -10.75195  0.00394  3.22888     13.57366  1.83756  0.80339  1.21494  0.22098     0.03448  2312.34106   9970.64727  2.74691         3661.32923      16.8966    4e-05  59154.64187  0.03875  0.00478  12671686.15798  44.41215  17.12548  59234.52734     51.2731       44.17133   56.46343  112.23404  137.0    0.04459   -21.0377  0.99971 
  -11.13652  0.01126  2.91786     13.49599  1.61346  0.81524  1.15529    0.238     0.03609  2242.37005   9999.90056  2.64747         3636.27236     16.40217    1e-05   59154.2573  0.03465  0.01301  12993583.72404  44.43274  17.04703  59239.09596    51.27844       44.19539   62.84808   95.22046  138.0    0.04502   -21.0255  0.99923 
  -11.32548  0.00236  2.89608     13.54243  1.62646  0.70792  1.22887  0.22827     0.03597  2341.82315   9979.54703  2.43767         3637.56683     16.70645    3e-05  59154.06833   0.0402   0.0029  10419043.64857  44.53864  17.12876  59234.52734    51.29678       44.20317   54.48044  110.84411  136.5    0.04133  -21.02833  0.99983 
  -11.15323  0.00523  3.28927     13.62483  1.85966  0.73131  1.21436  0.24028     0.03763  2339.17376    9917.6979  2.49915         3808.99061     16.72935    3e-05  59154.24059  0.03964  0.00635  10514384.59206   44.4823  17.13987  59233.32339    51.26734       44.15921   57.26744  114.73781  137.0    0.04505  -21.04769  0.99961 
  -10.31871  0.00138  2.90556     13.50436  1.59033  0.76169  0.75358   0.3185     0.05054  2176.11172   9967.72436  2.48386         3844.24313      18.4516  0.00157  59155.07511  0.02129  0.00104  12218972.01454  44.45684  17.07981  59235.45739    51.30991       44.22934   58.06412  101.82546  139.5    0.04293  -21.03146  0.99994 
  -10.84665  0.00202  2.74155     13.41605  1.48915   0.8685  0.85096  0.30948     0.04558  2185.90443   9985.53229  2.69075         3664.72318     17.14969    8e-05  59154.54717  0.02425  0.00172  15298212.37237  44.38115  17.13005  59235.42687     51.2822       44.17637   56.46343  112.23404  138.5    0.04477  -21.02519   0.9999 
  -11.89587  0.00235  2.66569     13.35194  1.43275  1.06669  1.35353  0.25734     0.04148  2509.23448   9952.86333  2.67138         3488.52417     17.29796  0.00011  59153.49794  0.05084  0.00318  18694910.55431  44.30167   17.1404  59234.52734    51.28593       44.18346   56.28833  112.40913  134.0    0.04539  -21.05277  0.99981 
  -10.54837  0.00262   3.1639     13.60386  1.74914  0.70066  1.05818  0.27254     0.04979  2465.97358   9986.05209  2.57534          3741.7354     18.79218  0.00344  59154.84545  0.03839  0.00277   10078025.3886  44.50785  17.12761  59234.52734    51.31602       44.22927   55.37039   108.0917  136.5    0.04556  -21.05232  0.99983 
  -11.04304  0.00299  2.84938      13.5811  1.54115  0.61654  1.15203  0.23729     0.03326   2124.9478   9950.70512  2.60674         3751.38227     18.71163  0.00286  59154.35078  0.03103  0.00345   7997775.90119  44.64422  17.13331  59233.27786    51.27514       44.17008   56.46343  112.23404  138.5      0.044  -21.03367  0.99979 
  -11.23997  0.01203  3.50098     13.78347  1.96053  0.56156   1.0309  0.28918     0.04656  2304.38712   9984.11287  2.61003         3803.30867     16.86804    4e-05  59154.15385  0.03266   0.0124   6048171.71278  44.69122  17.12318  59235.42687    51.28923       44.19361   56.46343  108.92625  137.0    0.04663  -21.04697  0.99921 
  -10.72526  0.00555  3.04717     13.57552  1.66211  0.69721  1.30908  0.20733     0.03276   2257.9448   9967.76755  2.72657         3738.34062     17.47206  0.00016  59154.66856  0.03981  0.00726  10121221.10143  44.51648  17.13859  59233.32339    51.26432        44.1596   56.46343  112.23404  137.5    0.04623  -21.04041  0.99955 
  -10.74357  0.00131  3.17239     13.60639  1.79085  0.74455  1.12088  0.26211     0.04546   2414.2651   9987.68864  2.62413         3570.53125     17.87991  0.00042  59154.65024  0.03897  0.00147   10253187.3947  44.50827  17.13696  59234.52734    51.28313       44.18318   56.28833  112.40913  138.0    0.04488  -21.03781  0.99991 
  -10.74452  0.00301  2.82959     13.51194  1.55633  0.74077  1.07264  0.24643       0.043  2351.79559   9986.88466  2.32093         3716.82696     16.58493    2e-05   59154.6493  0.03539  0.00322  10951832.11471  44.51801   17.1219  59234.52734     51.2606        44.1576   58.25261  110.44485  138.0    0.04401  -21.03397  0.99981 
  -10.39472  0.00349  3.32164     13.79866  1.84039  0.46577  1.21283  0.20931     0.03007  2083.87495   9918.62027  2.80476         3831.82399     16.00942    1e-05   59154.9991  0.03142  0.00423   4765541.43131  44.81294  17.14222  59235.45739    51.30562       44.21186   56.23249  109.15718  140.0    0.04774  -21.03354  0.99973 
  -10.70388  0.01239  2.57572     13.50667   1.3837  0.59768  0.97866  0.28033     0.04719  2360.45604   9930.88971  2.62509         3545.88527     17.78376  0.00034  59154.68994  0.03253  0.01212    8266250.6783  44.67078  17.12575  59234.52734    51.28767       44.18582   57.14278  111.55468  138.0    0.04313  -21.03359   0.9993 
   -10.6054  0.01862   3.1441     13.69491  1.78363  0.55438  1.50049  0.18913     0.03197  2439.28455   9973.64544  2.40892         3747.44747     16.95298    5e-05  59154.78841  0.05326  0.02794   6672429.93996  44.70087  17.13671  59233.32339    51.27213       44.17069   56.46343  112.23404  135.0    0.04403  -21.05366  0.99834 
      -10.9  0.00594  2.84907     13.51717  1.54784  0.72671  1.17941  0.25767     0.04936  2575.94744   9994.45175  2.35473         3650.20814     17.75207  0.00031  59154.49382  0.04668  0.00701  10779856.14792  44.51655  17.13298  59234.54297    51.25185        44.1383   58.88264  113.70172  134.5    0.04362  -21.04411  0.99958 
  -11.10206  0.00403  3.08586     13.54725  1.72511  0.77192  0.92169  0.27814     0.04107  2156.70341   9988.80859  2.52944         3849.49812      17.5319  0.00019  59154.29176  0.02557  0.00372  12271000.05204  44.43803  17.12727  59234.54297    51.27614       44.17301   56.46343  112.23404  140.0     0.0421   -21.0315  0.99977 
   -10.9349  0.00574  2.84869      13.5768  1.58261  0.62209  0.95146  0.29332     0.04898  2379.76263   9993.50611  2.50134         3589.03799     18.11501  0.00072  59154.45892  0.03214  0.00546    8372809.6672  44.63606  17.14138  59234.52734    51.27412        44.1702   56.23249  112.46498  137.0    0.04212  -21.02832  0.99968 
  -11.35505  0.00218  2.72316     13.46318  1.47662  0.73322  1.24509  0.22153       0.032  2223.34055   9962.87583  2.79907         3612.19289     16.13977    1e-05  59154.03877  0.03671  0.00271  12046999.83479  44.48709  17.14003  59234.54297    51.29157       44.19598   54.48044  110.90923  138.0    0.04391  -21.02469  0.99984 
  -10.89028  0.00608  3.02082     13.50173  1.67384  0.85768  1.32288   0.1972     0.03052  2206.44137   9999.22673  2.59717         3717.11722     17.57826  0.00021  59154.50354  0.03842  0.00804  14070546.10758    44.384  17.12397  59243.17578    51.22238       44.08087   71.14621   93.99843  140.5    0.04455  -21.01916  0.99951 
  -10.79516  0.00745  3.05734     13.50542  1.72179  0.86743  0.81034  0.31497     0.04489  2157.52143   9995.87311  2.65857         3710.84306     17.84992  0.00039  59154.59866   0.0225  0.00604  14576418.22854  44.37049  17.13773  59234.52734    51.30622       44.21038   56.46343  108.92625  138.5    0.04197  -21.02108  0.99964 
  -10.97292  0.00776  3.06196     13.59354  1.67504  0.70984   1.1178  0.25041     0.04292  2322.65697   9997.71456   2.2423          3882.3284     16.68154    3e-05   59154.4209  0.03597  0.00868    9479168.6157   44.5441  17.11986  59234.54297    51.26135       44.15205   58.08491  113.92035  138.0     0.0452  -21.04097  0.99947 
  -10.84996  0.00647  2.98613     13.52805  1.62661   0.7626  0.88633   0.3037      0.0433  2129.67679   9957.27645  2.72666         3765.94493     16.04371    1e-05  59154.54386  0.02398  0.00573   11836148.1541   44.4567  17.13447   59246.3731    51.23273       44.08965   73.13501   98.24878  140.5    0.04428  -21.03062  0.99965 
  -11.27987  0.00226  3.04042     13.56314  1.69805  0.72845  1.20782  0.21897     0.02966  2113.49785   9999.95371  2.53467         3828.78936       18.746   0.0031  59154.11395  0.03218  0.00273  10898239.87645  44.49557  17.13293  59234.52734    51.27517       44.17433   56.46343  112.23404  138.0    0.04347  -21.03221  0.99984 
  -10.60224  0.00413  2.85267     13.52026  1.53328  0.71386   1.0138  0.27418     0.04042  2196.06902   9981.77142  2.77816         3730.96798     18.93089  0.00474  59154.79158  0.02917  0.00418  10553984.96123  44.52055  17.12944  59234.54297    51.26822       44.16047   57.26744  114.73781  137.0    0.04799  -21.05628  0.99974 
  -10.48386  0.01707  3.12816     13.68847  1.74915  0.60415  0.97673  0.29094     0.05605  2420.84131   9939.13948   2.3093         3674.90717     17.31763  0.00012  59154.90996  0.03415  0.01667    6672381.2294  44.69681  17.13335  59233.32339    51.28769       44.19361   56.46343  108.92625  138.5    0.04623  -21.04168  0.99901 
  -11.04831  0.00128  2.69661     13.34127  1.44966  1.01469  1.10424  0.24049     0.03313  2152.03358   9937.52632  2.82096         3717.68564     17.39545  0.00014  59154.34551  0.03051  0.00141  20331867.35962   44.2603  17.12697  59234.54297    51.29402       44.20051   55.37039  110.01928  138.0    0.04322   -21.0338  0.99991 
   -11.0768  0.00809    2.945     13.47352  1.64001  0.89353  0.89263  0.32752     0.05856  2507.16077   9999.87954  2.57457         3557.05326     16.98528    5e-05  59154.31702  0.03347  0.00722   14920848.4197  44.37173  17.12678  59234.52734    51.26803       44.16218   57.26744  111.43002  135.5     0.0433  -21.04033  0.99957 
  -11.07915  0.00854  2.84713     13.56649  1.54063  0.68008  0.99073  0.32471     0.05285  2363.58686   9987.21719  2.63477          3566.2193      16.9575    5e-05  59154.31467  0.03302  0.00846   8537682.36291  44.61639  17.13512  59234.52734    51.28609       44.18957   55.46833  109.92134  136.0    0.04724  -21.05373   0.9995 
  -10.94095  0.00401  3.05579     13.66404  1.70066  0.56608  0.96909  0.24783     0.03328  1991.21689   9996.89324  2.45632         3936.18621     18.04735  0.00062  59154.45287  0.02292  0.00389   6927948.90962  44.68861  17.13157  59234.52734    51.28366       44.18419   56.23249  112.46498  141.0    0.04391  -21.02746  0.99977 
  -10.62868  0.00675  2.94436     13.60767  1.60737  0.59177  0.90616  0.30125     0.04831  2291.97849   9926.07704  2.66839         3717.25377     17.03149    6e-05  59154.76514   0.0284  0.00611   7880923.14762   44.6404  17.13698  59233.32339    51.29055       44.19484   56.23249  109.15718  138.5    0.04554  -21.03913  0.99963 
  -11.24576  0.02274  2.91171     13.51565  1.55254  0.73237  0.90463  0.31918     0.04618  2228.10889   9964.94089  2.67438         3812.08571     18.03431   0.0006  59154.14806  0.02679  0.02057  11372602.56705  44.47573  17.14635  59233.32339    51.27615       44.16986   55.46833  113.22914  136.0    0.04439  -21.04186  0.99871 
  -11.01695  0.00237  2.60348     13.39425  1.40427  0.77785  0.99763   0.2651     0.03961  2274.07961   9986.15412  2.65331          3713.5466     18.61497  0.00229  59154.37686  0.03078  0.00237   14383851.0938  44.42731   17.1302  59234.52734    51.31027       44.22123   55.37039   108.0917  137.5    0.04184  -21.03974  0.99986 
    -11.248  0.00832  2.32718      13.3399  1.17583  0.71037  0.89919  0.33866     0.06029  2505.01441   9996.83298  2.48892         3678.66778     16.87558    4e-05  59154.14582  0.03366  0.00748  12360189.23841  44.51351  17.11165  59243.17578    51.22981       44.09253   70.72466   94.41998  135.0    0.04329  -21.04457  0.99955 
  -11.43641  0.00363  3.33867     13.59642  1.88509  0.80956   0.9941  0.28257     0.03597  2074.25028   9932.52651  2.94016          3751.0867     18.21243  0.00091  59153.95741  0.02551  0.00361  12515748.44312  44.39957  17.14003  59235.45739    51.27441       44.16042   58.06412  114.52024  138.0    0.04526  -21.03481  0.99978 
  -11.18317  0.01439  2.95983      13.4341  1.59451   0.9787  1.01314  0.29805     0.04635  2360.97688   9987.08009   2.6983         3746.60913     18.26366  0.00102  59154.21065  0.03369  0.01458  17570489.85993  44.28415   17.1267  59234.52734     51.2622       44.15343   58.06412  113.94114  135.5     0.0448  -21.04857  0.99909 
  -10.96956   0.0103  2.84915     13.50494  1.58422   0.8209  1.25596  0.24504     0.04109  2422.61316   9984.52078  2.59037         3461.12874     18.42706  0.00149  59154.42426  0.04397  0.01294  11673182.02309  44.49204   17.1291  59233.32339    51.28292       44.18409   56.23249  112.46498  136.0    0.04564  -21.04682  0.99926 
  -10.84616  0.00347  3.16145      13.6564  1.74386  0.64548   1.0019  0.29242     0.04365  2230.26264   9968.17093  2.61812         3747.67383     18.23032  0.00094  59154.54766  0.02973  0.00348   7876059.55771  44.61428  17.14607  59233.32339    51.27276       44.16685   55.37039  113.32707  136.5     0.0456  -21.04911  0.99979 
  -11.22364  0.11185  2.54663     13.38471  1.39136  0.81832  1.05392  0.28187     0.05001  2522.70451   9983.23236  2.52113         3453.72421     18.67413  0.00262  59154.17018  0.04001  0.11788  14248172.70059   44.4466  17.13562  59235.45739    51.30096       44.20197   56.28833  112.40913  135.5    0.04105  -21.03913  0.99338 
  -10.86664  0.00352  2.85005     13.56192  1.54896  0.59818  1.00314  0.25866     0.03877  2223.79851   9996.96675  2.84228         3682.64155     17.18622    9e-05  59154.52718  0.02959  0.00353    8784634.3547  44.60546  17.14111  59233.27786    51.32193       44.23717   52.92469  109.15718  139.0    0.04361  -21.02323  0.99978 
  -10.80831  0.00304  2.47806     13.43133   1.3278  0.63101  0.80146  0.28817     0.03829  2031.96666   9989.91245  2.48899         3877.72748      18.1137  0.00072  59154.58551  0.01974  0.00243  10387368.81136  44.58725  17.12308  59235.42687    51.27075       44.16646   57.26744  111.43002  140.0    0.04159  -21.02959  0.99986 
  -10.89625  0.00591  2.43524     13.39151  1.26311  0.73521  1.03508  0.28183     0.04915  2418.18194   9997.78676  2.32974         3673.70499     16.49386    2e-05  59154.49757  0.03611  0.00612   11463607.1298  44.53788   17.1331  59234.52734    51.29302       44.19692   57.14278  108.24689  135.5    0.04609  -21.04051  0.99964 
  -10.69895  0.00143  2.96766      13.4567  1.64044  0.92615  1.25897  0.19566      0.0267   2068.5836   9924.24676   2.7479         3750.83039     16.83358    4e-05  59154.69487  0.03214   0.0018  16376138.99021  44.32476  17.13385  59233.32339    51.25355       44.13958   57.26744  115.31691  139.0    0.04429  -21.02369  0.99989 
  -10.92716  0.00943  2.84238     13.45786  1.55323  0.84231  1.58421    0.168     0.02413  2184.76982    9927.6008  2.50116          3792.5604     18.87052  0.00412  59154.46666  0.04511  0.01493  14147680.24217  44.40203  17.13589  59235.42687    51.27479       44.16554   57.26744  114.73781  137.5    0.04242  -21.03348  0.99911 
  -11.06149  0.00422  3.09531     13.54325  1.72341  0.85668  0.99399  0.27898     0.04713  2284.24121   9999.07923  2.31953         3792.42647     17.80042  0.00035  59154.33233  0.03094  0.00419  12563557.06912  44.42471  17.14705  59234.52734    51.29256       44.19165   56.23249  112.46498  138.0    0.04417  -21.03587  0.99975 
  -11.16546  0.00101  2.96179     13.48345  1.60955  0.81465  1.03315  0.27234     0.04075  2272.16532   9977.80654  2.61863         3825.97544     17.39205  0.00014  59154.22836  0.03182  0.00105  14148874.12571  44.38172  17.13227  59234.54297    51.27971       44.17877   57.14278  111.55468  137.5    0.04501  -21.03692  0.99994 
  -11.08961  0.00272  2.86303     13.59591  1.57401  0.61808  1.09493  0.26759     0.04535  2387.83961   9984.17358  2.43026         3622.71812     17.91436  0.00046  59154.30421  0.03724  0.00297   7703012.41667  44.66554  17.10095  59242.73453    51.23755       44.11623   68.54459   91.12963  135.5    0.04605  -21.03888  0.99983 
  -11.69367  0.00242  3.06365     13.52347  1.65179  0.77816  1.28607  0.21445     0.02502  1978.00523   9948.87122  3.20967         3778.45561     17.02753    6e-05  59153.70015  0.03002  0.00311  12921492.19369  44.40301  17.12332  59234.54297    51.26343       44.15345   58.06412  113.94114  139.0    0.04482  -21.03641   0.9998 
  -11.08894  0.00491  3.03554     13.52372  1.68521  0.82913  1.27419  0.22453     0.03384  2280.70633    9966.3964  2.65943         3689.19685     17.09313    7e-05  59154.30488  0.03954  0.00625  12927107.76138  44.41953  17.12874  59235.42687    51.29097       44.18824   56.23249  112.46498  136.5    0.04591  -21.04678  0.99962 
   -10.8121  0.00463  3.19602     13.62625  1.83681  0.68588  1.06387  0.24237      0.0394  2281.37388   9994.33804  2.45177         3744.50185     18.29843   0.0011  59154.58172  0.03303  0.00493   9740801.68044   44.5351  17.14244  59234.52734    51.28167       44.17746   56.23249  112.46498  139.5    0.04246  -21.02724  0.99971 
    -11.052   0.0073  2.81034     13.49206  1.53829  0.76105  1.36495  0.22156     0.04216  2561.86822   9998.07945  2.33227         3647.28893     18.77235  0.00329  59154.34182  0.05344  0.00997  11701611.93947  44.49012  17.12142  59234.52734    51.27442       44.17193   57.26744  111.43002  136.5    0.04479  -21.04986  0.99941 
  -10.78483  0.00228  2.86854     13.56058  1.58115  0.65179  0.81848  0.33405     0.05582  2358.39659   9946.91481  2.45583         3696.92496     18.06324  0.00064  59154.60899  0.02716  0.00186   9140265.76628  44.59154  17.12536  59234.52734    51.26829       44.16202   57.26744  114.73781  138.0    0.04424  -21.03875  0.99989 
   -12.0353  0.00262  2.15182     13.54071  1.07328  0.95014  3.36941  0.20717     0.15317  1516.71119   9622.84812  2.77877         4133.50486     16.13897    1e-05  59153.35852  0.04624  0.00883   3825688.63534  45.05124  17.13694  59233.27786    51.26184       44.15771   57.26744  111.43002  113.0    0.04659  -21.04072  0.99954 
  -10.78414   0.0015  3.00803     13.54639  1.67488  0.73752  0.91153  0.27827     0.04447  2239.31347   9935.12506  2.43032         3809.85878     16.30236    1e-05  59154.60968  0.02727  0.00136  11365508.57702  44.48068  17.11996  59233.32339    51.28363        44.1805   56.46343  112.23404  140.0     0.0441   -21.0266  0.99992 
  -10.46741  0.00389  2.69989     13.45983  1.45799  0.71853  1.00067  0.27225     0.04417  2366.18655   9989.96324  2.57562         3711.73618     17.36347  0.00013  59154.92641  0.03342  0.00389  11874315.28534   44.4953  17.12038  59234.52734    51.26524       44.16293   58.06412  110.63334  135.5    0.04332  -21.04718  0.99977 
  -10.90846  0.00198    3.009     13.57528  1.65399  0.70879   0.9625  0.29361     0.04783  2323.57918   9990.27666   2.5776         3672.28446     16.08395    1e-05  59154.48536    0.031   0.0019   9831895.71766   44.5379  17.13116  59233.32339    51.26842       44.16447   56.46343  112.23404  137.0    0.04701  -21.03756  0.99988 
   -10.2952  0.00837  3.02143     13.53617  1.69504   0.8468  0.86315  0.33655     0.06717  2534.94344   9968.37667  2.51731          3480.6442     17.53611  0.00019  59155.09862  0.03309  0.00722  12164375.65304  44.45251  17.14167  59234.52734    51.28081       44.17813   57.14278  111.55468  138.5    0.04485  -21.04325  0.99958 
  -10.63022  0.00502  3.10311     13.54744  1.72835  0.80585  0.86388  0.32158     0.05335  2357.83033   9989.47342  2.47536         3762.46765     17.50099  0.00018   59154.7636  0.02865  0.00433   12421356.4818  44.42871  17.14197  59235.45739    51.28994       44.18972   56.28833  112.40913  136.0    0.04451  -21.04478  0.99974 
  -10.88476  0.01356  2.24794     13.40284  1.07413  0.88494  1.77243  0.24605     0.03205  1819.60612   9971.05745  2.44974         4049.38278     17.10911    7e-05  59154.50906  0.03501  0.02404   7884186.88063  44.69957  17.12369  59235.42687      51.266       44.15712   58.06412  113.94114  130.0    0.05407  -21.10827  0.99858 
  -10.98958  0.00217  2.47822     13.38857  1.29106  0.77968  1.27385  0.21947     0.04188  2416.16627   9996.93665  2.13957           3793.905     17.95404   0.0005  59154.40424  0.04436  0.00277  12299688.91549  44.50162  17.13481  59232.91016    51.27315       44.17279   55.46833  113.22914  138.0    0.04326  -21.04201  0.99984 
  -10.71443  0.00213  3.05492     13.58416  1.70848  0.67501  0.86047  0.29641     0.04221  2142.50401   9933.13697  2.85229         3685.80088     18.16532  0.00081  59154.67938  0.02356  0.00184  10048493.06443  44.52935  17.14059  59234.52734    51.27862       44.17462   57.14278  111.55468  139.0    0.04431  -21.02585  0.99989 
  -11.15957  0.00358  2.37928     13.42076  1.20569  0.79294  1.37233  0.26916     0.04631  2300.21409   9994.47981  2.10137         3824.19511      17.9022  0.00044  59154.23425  0.04331  0.00492   9129162.82487  44.63676  17.12263  59235.45739    51.28797       44.18177   59.93516  110.44485  135.0    0.04962   -21.0865  0.99972 
  -11.22647  0.00467  3.21345     13.58411  1.85997  0.78581  1.11613  0.26118     0.04378   2472.6326   9989.85854  2.54174         3618.50793     18.30066  0.00111  59154.16735  0.04071  0.00521  12107113.43293  44.44137  17.12405  59233.32339    51.26635       44.15761   56.46343  115.54183  134.5    0.04363    -21.045  0.99969 
  -11.12509  0.00107  3.33363     13.59661  1.94519  0.85329  0.83912  0.31216     0.04765  2205.42726   9992.08622  2.51964         3706.82358     16.81189    4e-05  59154.26873  0.02435   0.0009  12864366.27731  44.40258  17.13322  59234.52734    51.27546        44.1752   57.26744  111.43002  140.0    0.04198  -21.02584  0.99995 
   -10.8462  0.04104  3.05983      13.5864  1.73908  0.80591  1.08737  0.28522     0.05506  2501.16816     9976.727  2.48966         3400.26966     17.46404  0.00016  59154.54762  0.04058  0.04463  10156152.78251  44.53104  17.12253  59233.32339    51.25849       44.15149   57.26744  114.73781  138.0    0.04718  -21.04237  0.99748 
  -10.46829  0.01611  2.54011     13.32989  1.32136  0.91933  0.82303  0.32271     0.05341  2265.64081   9986.00797  2.66216         3713.47874     19.05289  0.00628  59154.92553   0.0252  0.01326  17328289.72663  44.34141  17.12707  59232.91016    51.26312       44.15774   57.14278  111.55468  139.0    0.04522  -21.03981  0.99919 
  -10.91205  0.00183  2.74437     13.42872  1.46126  0.91534  1.13124   0.2756     0.04984  2452.23376   9991.43022  2.30165         3698.63781     17.53594  0.00019  59154.48177  0.04058  0.00207  14190469.21895  44.40469  17.12482  59233.32339     51.2461       44.12935   58.25261  116.15507  135.5    0.04484   -21.0486  0.99988 
  -10.88494  0.00514  2.69771     13.39435  1.45025  0.95303  1.23602  0.24277     0.04216  2432.93758   9984.24918  2.49062         3627.77156     19.13799  0.00763  59154.50888  0.04364  0.00636  15941890.69073  44.36576  17.13318  59234.52734    51.28472        44.1838   56.46343  112.23404  136.0    0.04463  -21.05712  0.99963 
  -10.80001  0.00108  3.19365     13.58463  1.80428  0.83083  1.26638  0.22034      0.0361  2287.57396   9994.94967  2.40851         3717.94634     18.67972  0.00266   59154.5938  0.03953  0.00137  11572435.02268  44.45315  17.14298  59235.42687    51.28726       44.18662   55.37039  113.32707  138.5    0.04478  -21.03826  0.99992 
   -11.5312  0.00304  2.75793      13.4147  1.51146  0.88623  0.85012  0.33686      0.0456  2197.92163   9827.61772  2.80889         3636.56522     19.14482  0.00775  59153.86262   0.0245  0.00259   15811775.2118  44.36809  17.12743  59234.54297    51.28357       44.18728   56.46343  108.92625  137.5    0.04247  -21.04164  0.99985 
  -10.95837  0.01365  2.79134     13.61129  1.50773  0.60691   1.3031  0.23448     0.04742  2471.27991   9928.21036   2.1637         3641.07884     17.22781    9e-05  59154.43545  0.04747  0.01778   6534042.87415  44.74036  17.12399  59234.54297    51.28321       44.18168   57.26744  111.43002  138.5    0.04841  -21.04513  0.99897 
  -10.90429  0.00378  3.45517     13.67959  1.99618  0.74707  1.09043  0.26661     0.04397  2350.89159   9940.71229  2.52677         3665.78098     17.19385    9e-05  59154.48953  0.03595  0.00412   9677626.37409  44.50634  17.13489  59234.54297    51.27669       44.17153   57.14278  111.55468  138.0    0.04633  -21.03892  0.99975 
  -11.03603  0.00755  3.07111     13.52452  1.74558  0.87471  0.96944   0.2705     0.04298  2254.14566   9996.08397  2.25812         3806.52178     16.89495    4e-05  59154.35779  0.02938  0.00732  13655592.36708  44.40088  17.13686  59234.52734    51.26301       44.15693   58.06412  113.94114  139.0    0.04259   -21.0298  0.99957 
  -11.11417  0.01147  2.93098     13.51567  1.64396  0.74563  0.82264  0.31294     0.04552  2198.58048   9990.28157  2.59244         3739.28168      18.7383  0.00304  59154.27965  0.02372  0.00944  12200662.52555  44.46433  17.13381  59235.45739    51.27508       44.16618   58.25261  113.75264  137.5     0.0431  -21.02893  0.99944 
  -11.01194  0.02372   3.3913     13.61086  1.92334  0.83629  0.95667  0.29821     0.05158  2392.15874   9991.77505  2.48017         3762.33218     16.79801    3e-05  59154.38188  0.03266   0.0227  12327555.64951  44.40129  17.15186  59243.17578    51.20965       44.06011   72.47262    97.9074  136.5    0.04446  -21.04301   0.9986 
  -10.90961  0.00443  2.92224      13.5309  1.59486  0.69994  0.82017  0.30809     0.04365  2119.27426   9941.11847  2.61983         3841.49755      17.5299  0.00019   59154.4842  0.02197  0.00364  10969220.09001  44.49996  17.13322  59233.27786     51.2733       44.16815   57.14278  111.55468  138.5    0.04285   -21.0285  0.99978 
  -10.59341  0.00581  3.09017     13.49458  1.71673  0.97773  0.86283  0.32394     0.05258  2263.87497   9985.80889  2.70447         3624.67142      16.6151    2e-05  59154.80041  0.02638  0.00501  15606964.23813  44.33026  17.13732  59233.32339    51.28972        44.1888   56.46343  112.23404  139.0    0.04549  -21.03315   0.9997 
  -12.04825  0.00248  2.39932     13.59931  1.15614  0.91514   4.2627  0.15692     0.21572  1425.14696    9440.8482  3.11806         4170.89062      16.0399    1e-05  59153.34557  0.05165  0.01055   3911786.11479   44.9793  17.12357  59233.32339    51.26243        44.1577   58.06412  110.63334  114.5    0.04579  -21.02578  0.99939 
  -12.22144  0.00148  2.18725     13.58122  1.06128  0.82978   4.0386  0.17929     0.17571  1489.15204   9237.15268  2.88631         4229.94459     16.49131    2e-05  59153.17238  0.05342  0.00598   3243417.07435  45.10388  17.12721  59235.42687    51.26693       44.16042   57.26744  114.73781  114.0    0.04325     -21.04  0.99967 
  -10.55669  0.00283  3.03774     13.59847  1.69617  0.68796  1.09421  0.24594     0.04026  2296.21292   9982.10345  2.47427         3667.47544     16.13971    1e-05  59154.83713  0.03442   0.0031   9235113.77717  44.56777  17.13503  59235.45739    51.28254        44.1789   58.06412  110.63334  138.5    0.04505  -21.02631  0.99982 
  -10.50794  0.00176  2.51226     13.38705  1.33372  0.82641   0.9045  0.31616      0.0649  2564.26409    9980.4287  2.45128         3457.03407     17.58307  0.00021  59154.88588  0.03548  0.00159  13149547.86232  44.47487  17.13833  59233.32339    51.27712       44.17498   56.46343  112.23404  136.5    0.04668  -21.03889  0.99991 
  -10.89714  0.00139  2.53323     13.42117    1.371  0.66979  0.78903  0.30936     0.04393  2170.51347   9986.21609  2.51891         3803.68268     18.18953  0.00086  59154.49668  0.02217   0.0011  11745520.65762  44.52866  17.12143  59234.52734    51.27054       44.16247   58.25261  113.75264  139.0    0.04099    -21.029  0.99994 
  -10.82102  0.00113  2.53284     13.34726  1.33988  0.85465  1.30276  0.19954       0.027  2128.37921   9978.74674  2.75817         3688.02306     17.51374  0.00018   59154.5728   0.0352  0.00147  16127794.63144  44.38112  17.12203  59233.32339    51.27141       44.16553   57.14278  114.86248  138.0    0.04309  -21.02494  0.99991 
   -10.5694  0.00138  2.76796      13.4259  1.49461  0.86856   0.9563  0.28291     0.04651  2308.72933   9985.39763  2.67905         3633.21234     18.72745  0.00297  59154.82442  0.03041  0.00132  14957203.49426   44.3842   17.1382  59234.54297    51.28962       44.18668   57.26744  111.43002  139.0    0.04426  -21.03318  0.99992 
  -11.08765  0.00821  2.95746     13.47488  1.60342  0.91769  1.18961  0.23697     0.03281  2098.27522   9993.01097  2.69516         3749.53312     16.99992    6e-05  59154.30617  0.03124  0.00977  14619790.47402  44.36711  17.13625  59234.52734    51.29141       44.19707   56.23249  109.15718  138.5    0.04497  -21.03515   0.9994 
   -10.6063  0.00197  3.53117     13.75833  2.03557  0.59787   1.2878  0.19715     0.03031  2179.65059   9999.09754  2.52109         3853.39412     17.12454    7e-05  59154.78752   0.0365  0.00254    7172504.1404  44.62602  17.13141  59234.54297    51.26862       44.16058   57.14278  114.86248  139.0    0.04512  -21.02748  0.99984 
  -10.84549  0.00504  3.13781     13.63135  1.77421  0.66919  0.85598  0.31898     0.05138  2290.40488   9982.69778  2.45984         3714.96138     18.36451  0.00129  59154.54833  0.02679  0.00431   8858864.38557  44.57722  17.11717  59233.32339    51.29885       44.20602   57.14278  108.24689  138.0    0.04517  -21.03245  0.99974 
  -10.82894  0.00676   3.2968     13.58422  1.81813    0.862  0.95656  0.29348     0.04153  2116.01342   9983.18831  2.64861         3843.46783     18.54255  0.00194  59154.56488  0.02555  0.00647  12450510.66774   44.3971  17.13463  59233.32339    51.29174       44.19853   54.48044  110.90923  137.0    0.04835  -21.04427  0.99959 
  -11.38211  0.00142  2.53724     13.34834  1.36796  0.96523  1.05771  0.27259     0.04419  2322.90952   9980.17074  2.35616         3585.28802     16.56495    2e-05  59154.01171  0.03405   0.0015  16441040.16604  44.38027   17.1354  59233.32339    51.29283       44.19498   56.23249  112.46498  139.0    0.04372  -21.02618  0.99991 
  -10.87316  0.00222  2.38625     13.37483  1.25369  0.76905   0.9545  0.30879     0.05702  2458.09162   9994.93588  2.34582         3535.79285     18.71615  0.00289  59154.52066   0.0344  0.00212  11796977.86718  44.53983  17.13034  59235.42687    51.27413       44.16634   56.46343  115.54183  137.5    0.04454  -21.04264  0.99988 
   -12.4669  0.00323  2.09867     13.54495  1.02421  0.86131  4.36482  0.17824     0.19893  1525.07413   9106.20059  2.83864         4226.50879     16.93759    5e-05  59152.92692  0.06056  0.01411   3405592.12662  45.10315  17.13128  59234.54297    51.25559       44.14031   59.62838  114.77931  114.5    0.04203  -21.04221  0.99926 
  -11.10803  0.00324  2.55273     13.34383  1.41179  0.82912  0.91933   0.2989     0.04399  2391.69932   9995.48333  2.83355         3558.31123     18.18796  0.00086  59154.28579  0.03137  0.00298  17536543.74634  44.36066   17.1244  59234.54297    51.25709       44.14587   58.25261  114.33174  133.5    0.04067  -21.03464  0.99983 
  -10.87251  0.00796  3.13774     13.48864  1.72235  0.98777   1.0798  0.26863     0.04189  2286.32869   9991.26354  2.67292         3757.24581     18.15786   0.0008  59154.52131  0.03367   0.0086   16591549.1255  44.29185  17.12399  59234.54297    51.30381       44.21288   56.46343  108.86112  136.0    0.04554  -21.04328  0.99947 
  -10.17569  0.01274   2.7178     13.41449  1.49308  0.84414  0.72696  0.33079     0.05073  2198.73056   9980.66168   2.5485         3752.66962     18.79123  0.00344  59155.21813  0.02096  0.00926  15182643.81817  44.39315  17.11835  59234.52734    51.27056       44.17087   58.06412  110.63334  138.5    0.04261  -21.03931  0.99946 
  -10.13399  0.05136  3.13567     13.50481   1.7896  0.88635  1.37179  0.17611     0.03041  2343.64562   9943.06952  2.59405         3702.70832     17.29915  0.00011  59155.25983  0.04495  0.07046  15981404.27503  44.32533  17.13778  59235.45739    51.30558       44.20348   56.23249  112.46498  138.0    0.04287  -21.02383  0.99579 
  -10.87163  0.01345  2.74686     13.50202  1.52818   0.7134   0.9464  0.31653     0.05537  2510.77332   9996.64431  2.58983          3437.6992     16.59207    2e-05  59154.52219  0.03559  0.01273  10607985.42787  44.54971  17.14436  59233.32339    51.26153        44.1513   57.14278  114.86248  136.0    0.04226  -21.03769  0.99928 
  -10.30111  0.00129  2.33717     13.31237  1.22675  0.88834  1.13876  0.24531     0.05461  2588.63752   9993.66988  2.38193         3381.56285     17.99227  0.00055   59155.0927  0.04552  0.00147  14764099.34912  44.45102  17.13355  59234.52734    51.27851       44.17538   56.46343  112.23404  138.5    0.04445   -21.0306  0.99992 
  -11.05954  0.00345  3.32136     13.64385  1.90218  0.71937  0.96986  0.30598     0.04864  2412.57034   9960.65215  2.50285         3728.74518     17.63026  0.00024  59154.33428  0.03367  0.00334  10046388.53793  44.50345  17.13007  59234.54297    51.29063       44.19701   56.23249  109.15718  135.0     0.0429  -21.04982   0.9998 
  -11.09766  0.00104  2.90949     13.50909  1.58907  0.84956  1.44008  0.19936      0.0306  2157.91649   9971.73119  2.48747          3703.9875     18.93207  0.00475  59154.29616     0.04   0.0015  11978974.14964  44.46394  17.13907  59233.32339    51.26784        44.1639   57.26744  111.43002  140.5    0.04693  -21.03525  0.99991 
  -10.73767  0.03323  3.21802     13.57263  1.80298  0.75777  0.96868  0.25947     0.03764  2148.88729   9994.52439  2.72194         3864.05383     18.81006  0.00359  59154.65615  0.02668  0.03219  12408497.24358  44.41594  17.13688  59234.54297    51.27436       44.17284   57.14278  111.55468  139.0    0.04444  -21.03606    0.998 
  -10.72765  0.00123  3.09569      13.5505  1.80568  0.75104  1.29969  0.20434     0.03046  2345.65657   9954.67851  2.74291         3628.91466     18.97085  0.00519  59154.66617  0.04266   0.0016  12734330.58291    44.439  17.13208  59234.52734    51.28642       44.18844   56.23249  112.46498  134.5    0.04133  -21.04059  0.99991 
  -10.89722  0.00897  2.77474     13.48554  1.56727  0.73122  1.07789   0.2377     0.03596  2268.00472   9990.83193  2.70404         3532.08543     17.93686  0.00048   59154.4966  0.03307  0.00967  11976024.22001  44.49923  17.13373  59235.42687    51.25561       44.14148   58.08491  114.49945  137.5    0.04175  -21.02087  0.99945 
  -11.23642  0.00469  2.97948     13.45196  1.65839   1.0068  1.12347  0.26046     0.03996  2338.08749    9959.2351  2.57701           3646.671     18.76234  0.00321   59154.1574  0.03664  0.00527  17055675.42467  44.30838  17.13134  59234.54297    51.29221       44.19685   56.23249  109.15718  135.5    0.04349  -21.04081  0.99969 
  -11.98243  0.00436  2.09894     13.48848  1.00013  0.93995  3.45316  0.19616     0.12606  1547.20896   9525.98587  2.87451         4130.80334     16.16268    1e-05  59153.41139  0.04931  0.01507   4314290.32911  44.98999  17.12699  59234.52734    51.23903        44.1194   60.84546  114.46759  113.5     0.0476  -21.05147  0.99917 
  -10.74406  0.01159  3.08179     13.49113  1.72279   0.9221  1.21578  0.21193     0.03631  2298.76235   9990.65095  2.50594         3738.72284     17.42411  0.00015  59154.64976  0.03832  0.01409  15826743.24227  44.32808  17.13153  59234.54297    51.27311       44.16526   57.14278  114.86248  140.5    0.04387  -21.02256  0.99915 
  -11.13937  0.01338  3.04079     13.48009   1.6924  0.90229  0.81438  0.32077     0.04304  2105.68745   9994.68446  2.65825         3850.64198     17.01941    6e-05  59154.25445  0.02154   0.0109  15926228.50444  44.32926  17.12974  59232.90234    51.25255       44.14476   58.06412  113.94114  138.0    0.04463  -21.04197  0.99934 
   -10.4087  0.00186  2.75135     13.49892  1.49657  0.71787  1.18709  0.22666     0.03808  2311.78615   9945.07615   2.5328         3617.84317     16.28394    1e-05  59154.98512  0.03784  0.00221  10572191.40397  44.54069  17.12725  59234.52734    51.25494       44.14561   58.25261  113.75264  138.5    0.04548  -21.03027  0.99987 
  -10.86597  0.01832  2.99404     13.51653  1.67124  0.83056   0.8091  0.31382     0.05007  2211.27626   9994.70228  2.23578         3888.00715     17.99317  0.00055  59154.52785   0.0236  0.01482  12891680.82346  44.42906  17.13418  59233.32339    51.27299       44.17164   57.14278  111.55468  140.0    0.04197  -21.03165  0.99912 
  -10.56496  0.00429  2.86568      13.4968  1.58034  0.79087  0.96152  0.29518     0.04765  2315.90995   9925.47466  2.77603          3559.9834      18.8564  0.00399  59154.82886  0.03076  0.00413  12229923.88666  44.46572  17.11896  59235.42687    51.27841       44.17628   56.46343  112.23404  138.5    0.04436  -21.04588  0.99976 
  -10.75591  0.00773  2.86611     13.54731  1.55572  0.66281  0.87746  0.28189      0.0406  2084.12314   9982.53636  2.50751         3856.50994     16.71827    3e-05  59154.63791  0.02274  0.00678    9543684.6474  44.56648  17.13193  59235.42687    51.28351        44.1814   56.23249  112.46498  141.0    0.04382  -21.02639  0.99959 
  -11.58947  0.00404  3.06043     13.49376  1.67735  0.86399  0.84683  0.31316     0.04019  2055.85676   9989.20151  2.70014         3892.61219     17.41263  0.00014  59153.80435  0.02135  0.00342  15013487.57151  44.34542   17.1348  59234.52734    51.26927       44.16074   57.14278  114.86248  138.0    0.04427  -21.03212  0.99979 
   -11.1628  0.00656  2.85507     13.51635  1.56228  0.71602  1.01698  0.27102     0.04249  2301.83748   9948.88694  2.44243         3785.36472     17.72014  0.00029  59154.23102  0.03214  0.00667   10967428.2565  44.51127  17.14268  59234.54297    51.29066       44.19151   56.23249  112.46498  137.5    0.04465  -21.04235   0.9996 
  -10.51411   0.0055  3.25876     13.51655  1.85315  1.00235  1.17897  0.21677     0.03593  2269.27508   9982.32696  2.44292         3801.63852     16.53857    2e-05  59154.87971  0.03622  0.00648  16932862.90278  44.28192   17.1428  59234.52734    51.27499       44.16732   57.26744  114.73781  140.0    0.04458  -21.02673  0.99961 
  -11.00827  0.00177  3.27977      13.6721  1.87632   0.6821  0.94609  0.30668     0.05948  2523.72242   9988.57722  2.21288         3680.24542     17.43212  0.00015  59154.38555  0.03595  0.00168    8484200.7122  44.58186  17.14742  59233.32339    51.27419       44.17013   56.46343  112.23404  137.0    0.04501  -21.03383   0.9999 
  -12.33981  0.00166  2.33114     13.59432  1.14352  0.91714  4.43205  0.16362     0.27928  1455.56678    9295.8837  3.07111         4162.12823     16.07317    1e-05  59153.05401  0.05601  0.00734   3737247.41304   45.0194  17.14467  59234.52734    51.27324        44.1699   57.14278  111.55468  115.5    0.04252  -21.02782  0.99959 
  -10.72956  0.00262  2.77174     13.49936  1.55099  0.75559  1.02328  0.27212      0.0424  2266.79793     9920.514  2.69133         3485.14435     19.15335  0.00791  59154.66426  0.03137  0.00268  11096990.59065  44.52874    17.128  59234.52734    51.27691       44.18015   56.23249  109.15718  140.0    0.04384   -21.0358  0.99985 
  -11.15159  0.00196  2.83852     13.51268  1.50766  0.70298  0.90992  0.33931     0.05455  2398.93492   9976.61783  2.62162         3746.82982     16.68741    3e-05  59154.24223  0.03124  0.00178  10640024.33037  44.51402  17.13444  59234.52734    51.26487       44.15651   58.08491  113.92035  135.5    0.04464  -21.05277  0.99989 
  -13.09714  0.00199   2.0311     13.46929  1.01698  1.10692   4.0219  0.21596      0.1283  1544.09726    9184.1621  2.95957         4086.04075     16.09839    1e-05  59152.29668   0.0572  0.00799   4487567.00671  45.00868  17.13595  59234.54297    51.27137        44.1666   57.26744  111.43002  116.5    0.04041  -21.01996   0.9996 
  -10.91332   0.0108   3.1629     13.66974   1.7557  0.61323  0.90659  0.30919     0.05178  2313.34228   9956.08748  2.38066         3804.49911     16.54751    2e-05   59154.4805  0.02894  0.00979   7463701.77523  44.64017  17.11375  59233.32339    51.26974       44.16638   58.06412  110.63334  138.0    0.04424  -21.03608   0.9994 
  -11.24563  0.01562  3.11831     13.54755   1.7554  0.79267  0.97724  0.28789     0.04374  2319.08468   9998.92454  2.60591          3737.7905     18.59692   0.0022  59154.14819  0.03135  0.01526  12732820.20554  44.42046  17.12743  59233.32339    51.29637       44.20531   55.37039  109.95416  135.5    0.04423  -21.04322  0.99908 
  -10.68654  0.00639  3.00263     13.62303  1.65397  0.64635   1.1354  0.23821     0.03714  2166.60402    9963.3104  2.51589         3708.33576     18.22773  0.00094  59154.70728  0.03179  0.00726   7857707.49383  44.63708  17.13244  59234.52734    51.26592       44.15499   58.08491  114.49945  139.0    0.04559  -21.03095  0.99957 
  -10.75355  0.00514  2.93246     13.50868  1.62593  0.83412   0.9191  0.31833     0.05932  2506.33351   9985.00273   2.2931         3648.70065     16.84029    4e-05  59154.64027  0.03444  0.00473  12474565.93483  44.44946  17.13321  59234.52734    51.28492       44.18295   56.23249  112.46498  135.5    0.04458  -21.04561  0.99972 
  -11.15842  0.00407  3.16644     13.57051  1.75995  0.79155  0.98877  0.28529     0.04363  2249.52258   9995.67535  2.52131         3812.94557     16.82719    4e-05   59154.2354  0.02985  0.00403  11842138.72096  44.43977  17.11518  59234.54297    51.28986        44.1931   58.06412  107.32555  138.0    0.04472   -21.0415  0.99975 
  -10.48767  0.00754  2.98142     13.61429  1.64994  0.67754  0.98458  0.30803     0.05185  2316.73114   9999.22666  2.84784          3450.1102      17.9044  0.00045  59154.90615  0.03152  0.00743   8045499.20457  44.63191  17.12943  59233.32339    51.26929       44.16306   57.14278  114.86248  139.5    0.04772  -21.04881  0.99957 
  -11.24662  0.00949  2.53377     13.45341  1.35743  0.64434   0.9873  0.29378      0.0519  2516.24076   9987.42278  2.55796         3550.86424     16.77173    3e-05  59154.14719  0.03729  0.00937  10028704.80246  44.59278  17.13269  59234.54297    51.28762       44.18444   55.46833  113.22914  135.0    0.04183  -21.04153  0.99945 
