 log(Bfield)      Mns    Pspin  cutoff_power  cutoff_wavelength  fnickel    kappa  kappagamma   mejecta  log(nhhost)  temperature  texplosion  thetaPB     vejecta      A_V        MJD_0   log(KE)      M_Ni  Peak_mag     Peak_MJD 
    14.33909  2.02628  2.96946       1.58669         3482.55377  0.08157  0.09601     0.07862  12.46257      17.7902   4892.68434   -13.82358  1.19189   5845.4869  0.00034   59420.6683  52.15364   5.70071  18.45135  59469.60405 
    14.13803  1.35737    2.712       3.56261         3166.53514  0.00243  0.11002     0.07767  10.20983     16.40077   6322.55129   -16.94338  0.71654  5447.79494    1e-05  59417.54849  52.07415   0.16263  18.49197  59469.60405 
    14.21351  1.65838  2.86222       2.13303          2620.7756  0.00443   0.0509      0.0476  22.79207     18.92824   4775.00447     -18.848  0.78857   6145.4466  0.00471  59415.64387  52.24824   0.34863  18.48935  59468.48723 
    14.10894  1.58658  3.26046       3.42786         3576.95102  0.02334  0.04941     0.01765  19.83162     17.79689   4999.16021    -15.6368  1.29731  4896.14328  0.00035  59418.85508  52.03958    1.7876  18.43378  59469.60405 
    14.07166  1.59952   3.3287        2.8378         3380.87297  0.00121  0.09111     0.06898  10.20595     19.26268   5145.88344   -17.22038   1.1553  5266.14309  0.01017   59417.2715  52.04465   0.08133  18.45497  59467.66161 
    13.99981  1.49785  2.41571       3.53504         2110.01755   0.0156   0.0569     0.07718  18.04544     19.85752   6677.33593   -20.15716  1.30927  5860.11774  0.04002  59414.33471  52.18787   1.17389  18.46161  59468.47082 
    14.21743  1.91049  2.73849       0.61877         3261.83925  0.00623  0.03659     0.25388  24.47864     18.15739    3712.3096    -21.1275   1.0616  5067.61585   0.0008  59413.36438   52.0864   0.49602  18.45028  59467.66161 
    14.16333   1.5236   2.3293       4.18894         2282.15962  0.11252  0.11346     0.09411   9.11159     20.25326   4633.45647   -14.41413  0.87983  6251.12802  0.09954  59420.07774  52.18282   7.35375  18.49163  59466.47382 
    14.10581  1.66095  2.63685        0.8462         2010.39819  0.00546  0.03069     0.14474  31.24646     17.92036   3762.89475   -18.64744  1.06092   6213.8505  0.00046  59415.84443  52.28235   0.45402  18.43898  59468.47082 
    14.17752  1.91975  2.94252       0.74969         2773.18229   0.0113  0.05363     0.05876   19.2768     19.53223   3644.85901   -18.60662  1.25274  6070.27607  0.01892  59415.88526  52.22395   0.86079   18.4534  59469.60405 
    14.01664  1.50071  2.92032       1.69788         3720.18702  0.00824  0.05492     0.03938  17.56967     17.89924   7107.12056   -18.50142  1.38204  5064.21022  0.00044  59415.99046  52.05885   0.61692  18.43355   59467.6133 
    14.33056  1.87874  2.34046       2.56582         2648.28684  0.10721  0.08292      0.1731  13.59049     18.65433   3910.09665   -13.33738  1.14797  5972.34097  0.00251  59421.15449  52.18001   7.62658  18.44074  59469.60405 
    14.07468  1.48792  2.31933       0.08347         4514.23571   0.0157  0.05253     0.01435  17.19226     17.57444   3274.00415   -22.35176  0.89572  5581.55584  0.00021  59412.14012  52.14151   1.17035   18.4512  59469.60405 
    14.27378  1.62096  2.60951       1.73232         3130.41781  0.11167  0.09543     0.16158  11.39435     18.55944   5089.52625   -15.40118  0.84424  5914.69654  0.00201  59419.09069  52.15574   7.65893  18.46326  59467.66161 
    14.13151  1.78954  3.00158       4.10131         2458.82983  0.00124  0.14473     0.15613   7.79805     19.48712   6117.59419     -17.461  1.29172  5774.48675  0.01705  59417.03088   52.0987   0.07811  18.44602  59469.60405 
     14.0746  1.45812  2.01293       0.56938         2080.32775  0.02547  0.03362     0.28318  30.48616     17.14854   4132.49584   -21.23758  1.02687  5823.87124    8e-05  59413.25429  52.22419   2.10939  18.44961  59469.60405 
    14.14626  1.58877   2.0604       4.74349         2048.58491  0.04911  0.11611     0.05685     8.137     16.81188   5755.64086   -15.63935  1.12018  5217.96095    4e-05  59418.85253  52.01489   3.12945  18.44599   59467.6133 
    13.97089  1.15171  1.66338       2.09896         2145.53039  0.00319  0.10327     0.17093  10.81096     20.17793   5481.23831   -19.49292   0.8078  5682.60596  0.08369  59414.99895  52.11613   0.21611   18.4488  59471.46755 
     14.0903  1.72592  3.01713       3.55981         2470.56422  0.00138  0.13862     0.12807   7.19141     17.35787   8416.23308   -17.01157  1.55371  5673.20223  0.00013   59417.4803   52.0752   0.08569    18.389   59467.6133 
    14.24434    1.823  3.31147       4.95736         2635.88647  0.00701  0.18293     0.26124   5.71508     18.23772   5035.62267   -16.57135  0.89184  5698.03502  0.00096  59417.92053  52.05504   0.41067   18.4762  59469.60405 
    14.10308  1.39233  1.59264       0.31788         2536.47702   0.0697  0.04873     0.06817  21.77398     18.53894   8513.23338   -17.76116  1.12051  6057.25625  0.00192  59416.73072  52.23201   5.43368  18.44087  59469.60405 
    14.09901  1.20468  2.39513       1.63191          2649.0897  0.00299  0.13056     0.09992    7.3545     18.92554   4620.24204   -19.72169   0.5517  5901.07805  0.00468  59414.77018  52.11167   0.18635  18.43453   59467.6133 
    14.09002   1.3871  2.75605        1.7805         3354.90145  0.01281  0.07265     0.03133  13.47299     17.78667   3116.11342   -17.59058   0.8115   5551.3147  0.00034   59416.9013  52.11575   0.90957  18.44556  59469.60405 
    13.93042  1.29665  2.53478       4.32762         2866.47021  0.00149  0.10475     0.25261  10.81125     17.16538    4175.0543   -16.92561  1.31604  5609.48645    8e-05  59417.56627  52.10488   0.10091  18.43596   59467.6133 
     14.1733  1.89371  3.05286       0.60496         3629.62586  0.02196  0.13829     0.06643   7.54768     19.25012   6126.65596   -19.75849  1.24476   5684.5038  0.00988  59414.73338   52.0818   1.37523  18.44687  59467.66161 
    14.27146  1.73613  3.02972         1.548         2930.65201  0.01449  0.05161     0.04291   18.9954     19.47872   4496.32778   -17.53225  0.73641  5880.88107  0.01673  59416.95962  52.19521   1.10124  18.45272  59468.48723 
    14.17335   1.6953  3.08278       2.96324         2852.30591  0.00304  0.05348     0.06058  17.89972     18.58114   3976.83255   -17.23603  0.94096  5225.95298  0.00212  59417.25584  52.08771   0.22854  18.44866   59467.6133 
    14.12599  1.37227  2.07287        2.3449         2008.77813  0.01779  0.09578     0.13128  10.47625     17.69047   3712.78159   -19.02647  0.73644    5626.307  0.00027  59415.46541  52.10456   1.19876  18.46406  59467.66161 
    14.30407  1.80297  2.69456       1.91369         2313.40745  0.00858  0.04896       0.046  23.26889     18.56834   3584.16288   -18.87696  0.74329  6026.75663  0.00206  59415.61492  52.23295   0.67693  18.43979  59467.66161 
    14.17238  1.58895  2.79932       1.93566         3624.14646  0.03324  0.10864     0.13627    9.3654     18.80488   4701.36614   -15.67512  1.00397  4979.00601  0.00354  59418.81676  51.98782   2.18583  18.43115  59468.47082 
    13.91321  1.29435  2.52615       2.84398         2977.45968  0.00112  0.06478     0.03604  15.24475     20.05769   5008.04212   -18.25088  1.15588  5457.02099  0.06345  59416.24099  52.11166   0.08169  18.47684  59469.60405 
    14.01443  1.48772   2.5148       0.61302         3357.09329  0.00799  0.18944     0.23565    4.5734     19.41664   5075.77206   -19.50625  1.13827  5517.51071   0.0145  59414.98562  52.00251   0.44246  18.42214  59466.47382 
    14.13946  1.28271  2.15549       2.01821         3307.13063  0.15589  0.11896     0.10335   9.84271     17.50623   5537.83839   -12.72181  0.90061   6180.3785  0.00018  59421.77006  52.18029  10.36241  18.43987   59467.6133 
    14.44724  1.89401  2.68138       3.33618         2205.84079  0.00428  0.15334     0.06998    6.0816     17.41454   9186.80697   -16.94644  0.57136  5130.45295  0.00014  59417.54544  51.97051   0.25453  18.43484   59467.6133 
    14.28267  1.56753  1.53216       3.48173         2188.02954  0.15295   0.0863     0.43989  12.40578     18.12295   3023.65776    -9.56402  1.08127  6090.68436  0.00074  59424.92785  52.18892  10.67841  18.45397  59468.48723 
    14.11829  1.56933  2.41761       2.01144         2543.33965  0.01093  0.05813     0.07128  17.82564     18.61954   3232.72282   -17.54161  1.02741  5634.62098  0.00231  59416.95026  52.15276   0.82021  18.47013  59469.60405 
    14.10106  1.72426  3.21949       2.42731         2763.79414  0.01215  0.11247      0.0425   7.87492     16.03464   3562.52271   -16.68237  1.25356  5652.56791    1e-05  59417.80951  52.08114   0.76866  18.43114  59467.66161 
    14.19069  1.88974  2.10191        0.1387         2361.89036  0.00926  0.03947     0.19647   21.3169     17.72897   3618.97875   -21.41972  1.17876  5056.71964   0.0003  59413.07215  52.07349   0.71872  18.47589  59469.60405 
    14.20081  1.82614   3.1839       4.17203         2220.66052  0.00414  0.15668     0.08261   6.30831     18.07279   5252.94709   -18.69826  0.92512  5880.11884  0.00066  59415.79362  52.09282   0.24858  18.43769  59467.66161 
    14.07975  1.39887  2.50696       4.88598         2224.84548  0.00542  0.03748     0.03006   22.9997      19.6668     7560.936   -14.93051  0.84362  5632.30025  0.02579  59419.56137  52.17322   0.42698  18.45952  59469.60405 
    14.06192  1.57118  2.70805       2.87706         2548.36329  0.00325  0.03983     0.03764  24.28014     16.29896   4497.48657   -17.81416  1.23292  5435.97428    1e-05  59416.67771  52.14671   0.25835  18.42584  59469.60405 
    14.19052  1.83956  2.82892       4.65967         2012.78247  0.00134  0.05412     0.04028  18.29269      16.2531   3507.31981   -18.36266  1.08296  5657.72213    1e-05  59416.12921  52.15848   0.10083   18.4895  59467.66161 
    14.12713   1.6112  2.91706       2.19714         2973.89281  0.01413  0.03267     0.14385  32.24853     18.96374   3396.29049   -16.33772  1.07978  5804.21607  0.00511  59418.15415  52.22549   1.18176  18.43836  59468.48723 
    14.20113  1.73609  2.91657       0.72419         3933.71837  0.00367  0.05551     0.03481   17.0692     19.43992   3309.51173   -18.16826  0.88333  5534.49866   0.0153  59416.32361  52.13355   0.27285  18.41994   59467.6133 
    14.38318  1.97069  2.70489       1.03983         2038.19189  0.02763  0.06652      0.0253  14.30921     18.52488   5890.17367   -18.92875  0.68664  5660.31984  0.00186  59415.56312  52.13793   1.98584  18.43773  59469.60405 
    14.09245  1.58928  3.25723       2.50749         3636.86019  0.00265  0.06011     0.05796  15.87439     16.52161   4138.47745    -16.5139  1.12819   5149.0209    2e-05  59417.97797  52.06467   0.19419  18.44315  59468.47082 
    14.18934  1.93023  3.37255       3.74964         2403.72363  0.00274  0.10318      0.0509   9.23548     18.76417   4546.52249   -16.67379  1.15866   5906.2292  0.00323  59417.81809  52.13482   0.17978  18.41785   59467.6133 
    14.16688  1.68811  3.06313       2.14046         3642.61546  0.00174  0.08265     0.03301   12.9007     17.98579   4167.71108   -16.57449  1.08528  5083.36447  0.00054  59417.91738   52.0354   0.12213  18.47949   59467.6133 
    14.19381  1.77072  3.26253       1.61565         3260.87954  0.01211  0.12543     0.44143    7.7019     17.65775   4289.17262    -18.3859  0.93978  5500.17345  0.00025  59416.10597  52.05519   0.76205  18.44719  59471.46755 
    14.24047  1.43312  2.08433       0.89812         3288.57687  0.04607  0.07795     0.02008  11.52053     19.65373   4175.71555   -16.86642  0.64099  5190.31678  0.02503  59417.62546  52.04327    3.1672  18.43337  59466.47382 
    14.20812   1.7341  3.67711       4.87974         3734.40318  0.01418  0.06278     0.17178  15.63182      19.2397   7567.70352   -14.21299  1.07031  4741.44232  0.00965  59420.27888  51.99172   1.03745  18.44205   59467.6133 
    14.31812  1.86044  2.80666       3.69189         2156.06441  0.01641  0.04167     0.03129  24.65213      18.7964   4051.52021    -17.3739  0.77521  5834.10724  0.00348  59417.11797   52.2093   1.30879  18.43087  59469.60405 
     14.0969  1.65976  2.75405       2.18573         2371.49017  0.00497  0.08418     0.06943  10.95427     17.43931     4823.936   -16.90686  1.18393  5617.67852  0.00015  59417.58501  52.10737   0.33828  18.43985   59467.6133 
     14.1601  1.26401  2.43392       2.33485         2816.21185  0.00517   0.0601     0.07115  16.95865     18.38641   5232.86614   -15.65226  0.57188  5933.01479  0.00135  59418.83962  52.19339   0.38434  18.43469  59467.66161 
    14.19663  1.81357  2.40851       1.26854         2802.96126   0.0303  0.05377     0.08045  18.17397     19.37912   3781.40069   -17.44605  1.29332  5266.21427   0.0133  59417.04582  52.09565   2.28264  18.45973  59469.60405 
    14.06347  1.56908  2.75514       0.98133          3548.8134  0.01656  0.03612     0.15734  25.59391      19.2767   3433.03744   -19.89723  1.25302  5302.94023  0.01051  59414.59464  52.12933   1.32946  18.42906   59467.6133 
    14.16125  1.76661  3.28244       1.68575         3630.72298  0.00595   0.0876     0.04961  11.06722     18.55864   4405.51906   -17.60882  1.10659   5199.1261  0.00201  59416.88306  52.04106   0.40541  18.45731  59469.60405 
    14.20297   1.6262  2.32111       1.85177          2057.0692  0.03228  0.06807      0.0497  13.88603     17.80959   4890.09726   -18.62332  0.83976   5716.3133  0.00036  59415.86855  52.14385   2.30655  18.44183  59468.48723 
    14.09916  1.57281  3.02703       4.80934         2637.90914   0.0058  0.03226     0.01917  30.62494     17.23178   3532.47009   -17.25664  1.01109  5694.15644    9e-05  59417.23523  52.20497   0.48081  18.45872  59469.60405 
    14.16639  1.49393  2.39676       2.94362         2744.08754  0.01706  0.06358     0.05669  15.59773     18.75736   3580.94753   -14.23773  0.89141   5233.2714  0.00318  59420.25415  52.07726   1.24753  18.40671   59467.6133 
    14.11497  1.73508  2.91302       2.34854          2595.5731  0.00113  0.09693     0.04404  10.93401     19.16927   6515.83396   -19.79961  1.17432  5523.22808   0.0082  59414.69227  52.09247   0.07696  18.45594  59468.48723 
    14.30451  1.74343  3.30856       2.52137          2844.8387  0.02074  0.12768     0.25451   7.43666      18.1768   7676.99614   -17.22263  0.64025  5803.27977  0.00083  59417.26925  52.09828   1.29427  18.42767  59468.48723 
     14.0485  1.35777  2.01597       4.81909         2025.54077  0.03219  0.03778     0.04146  29.58905      19.1709   6220.40773   -14.91397   1.1814  6212.86968  0.00823   59419.5779  52.27808   2.65227  18.40347  59469.60405 
    14.17115   1.4415  2.49718       0.78095         3714.85697  0.03643  0.09457     0.02232    9.2714     19.87202   4346.25411   -18.96398  0.67348  5391.42788  0.04138   59415.5279  52.05598   2.39014  18.44408  59468.47082 
    14.31559  1.92474  1.60892       1.17394         2314.53571  0.06608  0.03306     0.01672  33.82877     20.32601   4517.37276   -14.98683  1.25909  6314.37358  0.11769  59419.50504  52.30225   5.57183   18.4402  59469.60405 
    14.19934  1.54573  3.13843       4.24856         3182.86559  0.01712  0.07843     0.04317  12.70862     17.55958   6410.25435   -15.33627  0.80207  5149.47112   0.0002   59419.1556  52.04528   1.20121  18.46705  59468.48723 
    14.09473  1.36595  3.00893       2.83601         3605.81435  0.00432  0.17725      0.2242   5.29993     16.86401   3555.81691   -17.23045  0.78682  5076.09697    4e-05  59417.26142  51.94649   0.24846  18.44294  59467.66161 
    14.26028  2.18858  3.13179       0.60415         2050.44097  0.00206  0.08157     0.05404  11.39697     16.80921   5291.43428   -20.69237  1.13827  5820.95502    4e-05   59413.7995  52.14188    0.1416  18.46833   59467.6133 
     14.2248  1.59505  2.47971       2.18927         3143.17079  0.04567  0.06069     0.05616  21.08805     17.75553     5125.973    -14.7978  0.99262  5986.91642  0.00032  59419.69407  52.21928   3.53891  18.44697  59466.47382 
     14.1941  1.55422  2.78309       2.00065         3131.37101  0.00246  0.04135      0.0314  22.66255     18.97182   4078.21078   -16.51972  0.76501  5271.93048  0.00521  59417.97216  52.11461    0.1933  18.45589  59468.48723 
    14.20651  2.00608  2.87559       1.81239         2629.52721  0.00336  0.03879     0.03457  22.63001       16.407    9321.9634   -17.62676  1.43879  5089.45559    1e-05  59416.86511   52.0839   0.26402  18.43712  59469.60405 
    14.13999  1.33508   2.1066       4.41441         2156.30398  0.00336  0.15584     0.05909   6.53297     20.34172   3887.26279   -16.82514  0.61204  5844.98405  0.12202  59417.66674  52.09126   0.20371  18.44426   59467.6133 
    13.97285  1.44275  2.58982       2.90504         2254.03618  0.00113  0.09352     0.28688  10.90965      17.1549   7178.51651   -17.40033  1.34824  6025.07421    8e-05  59417.09155   52.1678   0.07682  18.44279   59467.6133 
    14.11214  1.53942  2.95526       4.70311         2694.08965  0.00957  0.07234     0.04213  12.10886     19.38433    4525.0758   -16.98553  0.93796  5151.00114  0.01346  59417.50634  52.04119   0.66502  18.43906  59468.48723 
    14.17726  1.69601   2.5246       3.23098         2241.95326  0.01922  0.06971     0.08768   12.1123     17.16703   3885.82655   -16.24476  1.03412  5124.73034    8e-05  59418.24711  52.03678    1.3353  18.47282   59467.6133 
     14.0557  1.47869  2.46283       2.45545         2542.72645   0.0076  0.03765     0.21856  23.80152     19.67778   3613.78212   -14.43732  1.10754  5595.22301  0.02646  59420.05455  52.17021   0.60225  18.46051  59466.45291 
    14.09888  1.59336  2.26588       0.84724         4183.99135  0.00102  0.15389     0.08424   6.31514     16.02185   5399.45285   -18.80151  1.34046  4595.09261    1e-05  59415.69036  51.87875   0.06145  18.44325  59469.60405 
    14.12789  1.35048  1.97973       0.89446         2492.25418  0.02888  0.10434     0.06925  10.70459      16.9991   3252.16345   -20.90911  0.73507  5588.37777    6e-05  59413.58276  52.10069   1.95441  18.45646  59468.48723 
    14.33214  1.77566  2.07844       0.19214         2018.74423  0.00443  0.03029     0.26601  30.15465     19.22574   3073.78539   -21.25736  0.65217  5427.89616  0.00934  59413.23452   52.1622   0.36597  18.43702  59468.47082 
    14.22331  1.40119  2.41353       4.40345         2662.92998  0.00304   0.0413      0.0457  25.13889     20.23673   4976.85357   -15.31104  0.57503  5661.68602  0.09582  59419.18083  52.18478   0.24313  18.43773  59467.66161 
    14.22885  1.96092   3.0732       1.78184         3678.35358  0.00146  0.11965     0.29132   9.14981      19.8516   3171.19701   -17.03812  1.28746  5058.27755  0.03948  59417.45376  51.99931   0.09537  18.47289  59469.60405 
     14.2266  1.53198  2.84221       4.56079          2751.5874  0.00727  0.04317     0.11799   25.3143     18.51776   4601.41097    -14.7526  0.71621  5819.53316  0.00183  59419.73928  52.20921   0.58273  18.44923  59468.48723 
    14.03364  1.41334  2.93246       4.35321         3118.20361  0.00722  0.07597     0.04551  14.11511     19.44223   5127.18764   -17.10086  1.00528  5386.72726  0.01538  59417.39101   52.0937   0.51751  18.46827  59468.47082 
    14.15157  1.75652  3.08722       4.31771         2564.47786  0.00536  0.03651     0.07821  28.83708     17.75673   5040.09379   -15.74268  1.19015  5746.62978  0.00032  59418.74919  52.20835   0.43952  18.45623  59469.60405 
    14.31243  1.72294  1.91516       3.87102         2579.29185  0.08725  0.07913     0.08485  17.03055     18.70469   5069.79237   -11.27618  1.14945  6329.79357  0.00281  59423.21569  52.24998   6.49164  18.44261  59469.60405 
    14.18108  1.99981  2.65385       0.17041         2858.17642  0.00109  0.04846     0.04935  20.69061      17.9955   5355.94014   -24.56835  1.33651  5471.09611  0.00055  59409.92353  52.13948   0.08433  18.46841  59468.47082 
    13.96436  1.33806  2.64782       3.55552         3066.64648  0.02466  0.09593     0.05649  12.65646     19.36007   5186.26001   -16.55264  1.32496  5967.45754  0.01273  59417.93924  52.17297   1.72892  18.44508  59467.66161 
    14.12133  1.77222  3.28286       1.33987         3583.56925  0.00337   0.0492     0.01738  19.35954     17.25278   8059.87275   -17.94061  1.30754  5572.28009   0.0001  59416.55127  52.14995   0.25725  18.44993  59469.60405 
     14.0817  1.68244  2.00777       0.07248         3943.01211  0.00188  0.03962     0.02818  25.33124     19.69678    3858.2625   -23.76617  1.34191  5210.45998  0.02764   59410.7257  52.11324   0.15066  18.42585  59467.66161 
    14.24735  1.67519  3.75109       4.87057         3543.98444  0.20644  0.17555     0.03783   5.98167     16.76711   4418.63485   -13.64252  0.94718  5629.33976    3e-05  59420.84935  52.04936   12.2353  18.49216  59469.60405 
    14.22391  1.91193      3.2       3.48595         3087.00556  0.00728  0.09073     0.04338  11.66656     20.39042   4506.08029   -16.06098   1.0226  5585.83094   0.1365  59418.43089  52.10821   0.50163  18.45741  59469.60405 
    14.16439  1.87527  3.29346       2.78223         2954.35669    0.004  0.07356       0.192  12.67378     17.74524   6673.74208   -16.61774  1.33718  5247.19779  0.00031  59417.87413  52.06137   0.28037  18.45324   59467.6133 
    14.13802  1.70394  3.74665       4.97008         3621.66437  0.00267  0.11873     0.11298   8.34894     18.64957   3711.11293    -15.1097  1.16081  5128.26247  0.00248  59419.38218  52.00236   0.17092  18.43305  59469.60405 
    14.20308  1.62668  1.78565       0.59016         2901.55962  0.02802  0.03592     0.02129  24.83756      18.0795   4326.70516   -16.62908  0.99538  5151.36115  0.00067   59417.8628  52.10178   2.23797  18.46084  59468.48723 
     14.1183  1.63137  3.00495       3.43234         3297.76823  0.00257  0.16421     0.12326   6.18572     20.16326      3171.56   -16.43428  1.07261  5096.92459  0.08091   59418.0576  51.96661   0.15327  18.45784   59467.6133 
    14.20189  1.55024  2.23367       4.64533         2212.31557  0.14373  0.13138     0.13763   7.52728     17.44072   4289.13868   -14.70903   0.9847  5551.64378  0.00015  59419.78284  52.06099   8.99635  18.44901  59467.66161 
    14.12809   1.7397  2.72561       3.81883         2151.26655  0.00476  0.11606      0.0589   8.83704     17.05247   4640.94504   -19.13881  1.22073  5432.91768    6e-05  59415.35307  52.05802   0.30878  18.45058  59469.60405 
    14.15264  1.89987  2.94146       2.29332         2071.56624  0.00149  0.05389     0.03258  19.08571     16.13307   7561.59289   -20.35368  1.37945  5701.67728    1e-05   59414.1382  52.16872   0.11345  18.45038   59467.6133 
    14.19847   1.8856  2.39349       0.28498         2901.87562  0.01165  0.03483     0.08489  29.68072     17.08184   4504.74506   -20.67185  1.18676  5678.37624    7e-05  59413.82002  52.20018   0.96037    18.438   59467.6133 
    14.13314  1.83519  2.93793       3.38153         2365.56495  0.01401   0.0791     0.10874  11.99577     20.03407   3239.51083   -16.88648  1.35413  5710.65425  0.06009  59417.60539  52.12993   0.97167  18.44397   59467.6133 
    14.20339  1.51607  2.12664       4.43557         2554.92138   0.1017  0.13544     0.07072   9.38788     18.54579   5133.66007   -13.29737  1.00008  5967.90256  0.00195  59421.19451  52.14541   6.69049  18.47568  59468.47082 
    14.08594  1.57436  2.60585        3.7418         2383.72609  0.00314  0.13139     0.15696   7.20748     16.05801   5400.24045   -16.05943  1.15663  5453.44652    1e-05  59418.43244  52.04111   0.19482  18.43075   59467.6133 
    14.22567  1.97227  3.52319       2.52031         3123.34793  0.00574   0.1519     0.18877   6.39609     19.02776    3805.4348   -14.95875   1.2029  5513.71585  0.00592  59419.53312  52.03838   0.34587    18.428  59471.46755 
    14.11546  1.45744   2.0166       0.06352         3955.32852  0.01016   0.0548       0.035   15.7536     16.53584   4217.93893    -20.8138   0.8066  5452.63324    2e-05  59413.67808  52.11378   0.74417  18.44268  59469.60405 
    14.16337  1.84103  3.20216       3.70897         2620.82662  0.00418  0.09722     0.08163  10.85176     19.71773   4669.47653   -16.77006   1.1609  5760.38651    0.029  59417.72181  52.12829   0.28383  18.44441  59468.47082 
    14.19993  1.71254  2.96323       4.88838         2741.14022  0.01226  0.04019     0.03105  25.80626     20.14838   4381.08782   -14.92989  0.92497  5699.14811  0.07818  59419.56199  52.19256   0.98612  18.44668   59467.6133 
    14.14153  1.75284  2.57281       0.30363          3839.9135  0.01312  0.04994     0.03069  21.40621     18.59318   3567.73905   -20.78016   1.1654  5748.94592  0.00218  59413.71171  52.18526   1.01938  18.45785  59469.60405 
    14.34905  1.85601  2.65193       2.25103         2245.84251  0.00132  0.03023     0.02117  31.35698     19.54434   5595.69157   -17.81399  0.67407  5490.79917  0.01946  59416.67788  52.17517    0.1097  18.44814   59467.6133 
    14.14348  1.65007  3.05195       2.95736          2826.1165  0.00534  0.09009     0.27451   9.73092     18.11787    6446.9496   -15.66239  1.00602  5224.32887  0.00073  59418.82948  52.03324    0.3544    18.466  59469.60405 
    14.09581  1.47322  2.42004       0.79509         3277.46223  0.00508  0.08442     0.05702  10.26575     18.77431   3205.87239   -18.22598  0.88445  5297.43416   0.0033  59416.26589  52.05035   0.34094  18.44289  59468.48723 
     14.0933  1.55753  2.43959       0.87535         3066.69714  0.02538  0.05871     0.05236  17.83509     18.03256   3561.63239   -19.82255  1.12622  5670.01104   0.0006  59414.66932  52.15825    1.9055  18.47591  59469.60405 
     14.1572  1.67361  2.33667       0.39749         3450.85649  0.00381   0.0562     0.03329  17.77648      16.4465   3240.36609   -19.68838  1.02291  5385.34023    2e-05   59414.8035  52.11323   0.28584  18.45863  59468.47082 
    14.19288  1.44868  2.63875       1.62466         3633.05301  0.02379  0.02946     0.16182   38.8261     19.23061   6179.91421   -15.05511  0.80825  5951.68761  0.00945  59419.43676  52.26101   2.05309  18.44571  59467.66161 
    14.11595  1.61307  2.25972       0.42176         3517.86121  0.05458  0.08644      0.0625  12.13388     17.34409   5137.43546    -20.8227  1.19797  5434.59752  0.00012  59413.66918  52.08793   3.79312  18.45417  59468.47082 
    14.23438  1.82934   3.2663       3.14172         3066.61323  0.00225  0.06749     0.11872  16.56606     18.74312   5451.86373   -16.85867  0.94125  5498.89236  0.00308   59417.6332  52.12541   0.16624  18.43101  59466.45291 
    14.23461  2.02517  2.40533       0.65896         2243.90289  0.00621  0.09201     0.08517   9.32788     18.86513     6273.565   -19.24427  1.21737  5205.39058  0.00407  59415.24761  52.02606   0.40764  18.46583  59468.47082 
    14.15198  1.51697  3.10716       2.09856         3709.09559  0.01115  0.06846     0.26317  12.99732     19.47386     3573.929   -15.84218  0.82259  5231.56804  0.01654   59418.6497  52.06103   0.78624   18.4709  59468.48723 
    14.17714  1.59145  2.58274       3.02594         2708.85484  0.01135  0.06335     0.20569   18.0115     19.84153   4833.03156   -17.04872  0.87984  5705.70927  0.03857  59417.44315  52.16452   0.85328  18.43322  59467.66161 
    14.03681   1.4463  2.02728       3.22379         2078.00246  0.05806  0.09172     0.11111  11.69934     20.16277   3708.51454   -17.02537  1.18221  6135.73072  0.08082  59417.46651  52.19002   4.00442  18.45371  59468.47082 
    14.07961  1.66303  2.64828       0.74029         3315.75746  0.02468  0.13055     0.15192   7.76663      19.6201   4980.98618   -17.94094  1.27609   5954.0518  0.02316  59416.55093   52.1249   1.55567   18.4466  59468.48723 
    14.19131  1.93903  3.20843       1.69193         3206.67983  0.00114  0.04684     0.21434  20.29451     18.71676    3850.0053   -17.11896  1.36147  5272.04347  0.00289  59417.37291  52.10571   0.08753  18.43553  59468.47082 
    14.07841  1.68981  2.35922       0.68021         2078.38468  0.00487  0.10177     0.06949   9.97482     19.97051   5114.93916   -19.93668  1.26023  6003.01735  0.05191   59414.5552  52.15625   0.32479  18.46253   59467.6133 
    14.10907  1.57746  2.20401       0.29908         3868.53358  0.00508  0.10199     0.05665  10.59362      18.0877   4734.60804   -21.94589  1.03812   5387.6877  0.00068  59412.54598  52.06795    0.3434  18.43356   59467.6133 
    14.12744  1.78817  2.60223        2.1265         2205.54572  0.00136  0.17083      0.1073   4.79009      19.5839   6744.40373   -16.16504  1.33028  5424.94389  0.02131  59418.32683  51.99304   0.07649  18.45028  59469.60405 
      14.121  1.45136  2.79739       4.21352         2649.96064  0.00272  0.10065     0.03879   9.30671     18.56039   3359.11254   -16.84306  0.81067   5365.3508  0.00202  59417.64881  52.05213   0.17886  18.46405   59467.6133 
    14.06255  1.11017  2.20391       4.87247         2931.58044  0.05614  0.12828     0.04523   8.02356      16.6256   7110.28879   -14.30112  0.69058   5247.2114    2e-05  59420.19076  52.01836   3.56546   18.4392  59467.66161 
    14.35555  1.72401  3.10403       2.93749         3267.27859  0.00104  0.16932     0.08617   6.45129     18.15447   6348.71152   -14.61285  0.64054   5308.7381  0.00079  59419.87902  52.00637   0.06258  18.44431  59468.47082 
     14.3727  1.58249  1.14656       0.01901         4112.23285  0.05555  0.04397     0.07698  32.31187     18.21917   4235.66039   -20.02196   0.7299  6296.13838  0.00092  59414.46991   52.2963   4.64778  18.45316  59469.60405 
    14.06438  1.59797  3.13061       4.19731         2799.50685  0.01227  0.08563     0.08694   11.6939     19.06778   5876.33503    -16.6699  1.22115  5639.91218  0.00649  59417.82198  52.11679    0.8463  18.45585  59469.60405 
    14.11847   1.4087  2.14631       1.03646         3683.51548  0.00121  0.06417     0.04226  14.86859     17.80604   4188.09051   -17.97717  0.87052  4802.56033  0.00036  59416.51471  51.99853   0.08785   18.4392  59468.48723 
    14.06477  1.57143  3.35759       3.90334         3252.85947  0.01286  0.06949     0.09045  15.00908     18.30355   3729.52842   -17.00182  1.18418  5534.97051  0.00112  59417.49005  52.12263   0.93306  18.46442  59469.60405 
    13.93272  1.17316  2.43239       3.07965         3162.03157  0.00128  0.08783     0.05794  10.19224     16.55047     8194.547   -15.66959  0.99155  5046.75708    2e-05  59418.82228  52.00757   0.08556  18.44342  59468.48723 
     14.0866  1.44408  2.61288       2.48823         3547.46997  0.00258   0.1404     0.10396   7.40799     19.97859   6514.96791   -15.68601  0.98646  5043.03235  0.05288  59418.80586  51.97592   0.16061  18.47091  59469.60405 
    14.20563  1.57128  2.88291       1.76195         3460.46779  0.01392  0.03582     0.01754  27.71697     17.38683   4045.40691   -16.52822  0.81023  5409.98995  0.00014  59417.96366  52.15288   1.13379  18.45374  59467.66161 
    14.06128  1.51138  2.53271       4.38387         2013.00013  0.00113  0.14883     0.47018   7.06288     19.44286   5392.32883   -18.55741  1.01803  5968.73823   0.0154  59415.93447  52.11747   0.06992  18.46427  59468.47082 
    14.27083  1.90895  3.20049       0.83975         3834.59827  0.04932  0.07804      0.0575  12.65313     19.49202   3249.77513   -16.90529  0.95956  5892.52997  0.01725  59417.58658  52.16197   3.45768  18.46437  59468.48723 
    14.11395  1.37528  2.01634        4.5879         2089.30005  0.03634  0.09754     0.03853   9.70461     16.38684   9031.08523      -16.51  0.86066  5183.82789    1e-05  59417.98187  52.02622   2.40845  18.45165  59468.48723 
    14.26442  1.68132  2.65253       3.11181         2152.74177  0.00882  0.03455     0.03059  29.18065     20.26145   3911.65509   -17.12963  0.65718  6312.22773  0.10143  59417.36225   52.2908   0.72509  18.42936  59469.60405 
    14.03786  1.58423  3.14538       4.09945         3103.36368  0.00558  0.15655     0.11682    6.3903     20.15429   3696.75337   -15.83739  1.25545  5673.65511  0.07925  59418.65448  52.06312   0.33591  18.46346  59471.46755 
    14.13902  1.70998   2.7992       1.36296          3077.2411  0.00587  0.06434     0.03093  15.32855     18.56475   3609.16134    -17.4702   1.1408  5539.49331  0.00204  59417.02168  52.12516   0.42761  18.41958   59467.6133 
    14.10625  1.43089  2.73286       4.73689         2708.96018  0.00697  0.08396     0.03868  13.85293     19.91971   4647.77312   -17.37531  0.78661  6009.12705  0.04618  59417.11656  52.18703   0.49794  18.43887  59467.66161 
    14.36204  1.87401  3.19281         1.862         3809.98738  0.05023  0.10662     0.23042   8.17089     19.89004   4799.96554   -14.39868  0.75186   4844.2113  0.04313  59420.09319  51.95075   3.20342  18.44903  59468.48723 
    14.21264  2.02814  2.98109       3.20947         2354.37754  0.00102  0.07989     0.18825  12.67182      18.2257    3521.1391   -20.27247  1.38392  5182.35382  0.00093   59414.2194  52.05055   0.07166  18.45496  59468.47082 
     14.2264   2.0864  2.93792       0.64616         2518.75989  0.01377  0.04672     0.10064  22.20297      19.0457   5803.15407   -18.22113  1.51528  6011.73761  0.00617  59416.27074  52.22703   1.07765  18.45648  59469.60405 
    14.10289  1.64202  3.25583       3.27625         3137.75394  0.00364  0.03504     0.02873  25.91261     17.27516   5514.28911   -16.02288  1.21177  5290.93245   0.0001  59418.46899  52.12833   0.29282  18.41245  59466.47382 
    14.19861  1.92699  3.39676       4.14677         2922.42796  0.01411  0.06265     0.03811  17.62127      19.7201   3049.16248   -16.48949  1.32113  5664.22743  0.02916  59418.00238  52.15635   1.05696  18.44268  59468.48723 
     14.1335  1.88945  3.30174       4.58855         2143.76505  0.00819  0.05596     0.11474  18.05329     18.56161   3992.61095   -16.46739  1.50447  6340.16994  0.00202  59418.02449   52.2563   0.61593  18.46354  59469.60405 
    14.07969  1.64626  3.07562       3.86361         2691.67283  0.00431  0.11006     0.08512   8.75163     16.14917   6279.45312   -16.53303  1.27086  5589.42206    1e-05  59417.95885  52.08175   0.27915  18.42819  59468.48723 
    14.25241  1.37744   1.5162       4.96925          2645.9854  0.10085   0.1129     0.06229  11.21158     18.92502   4864.66514    -9.89719  0.86358  5634.10653  0.00467  59424.59468  52.11204    6.8934  18.47402  59467.66161 
    14.01498  1.58671  2.89586       3.45614         2143.04179  0.00557  0.11944     0.06119    6.9301     16.86138   6159.27223   -17.87748  1.35866  5819.84752    4e-05   59416.6144  52.09359   0.34203  18.44983   59467.6133 
