 texplosion  fnickel    Pspin  log(Bfield)      Mns  thetaPB  mejecta    kappa  kappagamma      vejecta  temperature    alpha  cutoff_wavelength  log(nhhost)      A_V         MJD0   kenergy  mnickel           TSD   log(L0)  Peak_mag     Peak_MJD  log(E_rad)  log(Peak_lum)  Rise_Time    E_fold  tau_1  delta_m15     r_peak     frac 
  -10.03347  0.00512  0.85026     14.33862  1.67716  1.52011  3.24435  0.29305     0.02386  12845.36267   7817.62218  0.09849         3649.34944     18.84821  0.00392    58593.431   3.19335  0.01661   23673.11861  48.26006  18.60998  58629.34911    51.17637       44.71446   12.00233  25.73691   21.5     0.5605  -21.28688  0.99997 
   -7.39409   0.1392    0.973     14.50775  1.60291  0.85333  5.77715  0.16232     0.03714  16268.20679   4631.86467  0.12156         2802.73515     16.20405    1e-05  58596.07038   9.12054  0.80419   13597.11638  48.36408  18.61749  58629.34911    51.13252       44.69489    10.4089  25.41779   22.0    0.57561  -21.70207  0.99778 
   -9.68507  0.08003  1.33953     14.45452  1.56533  0.71902  6.26017  0.14125     0.01778  13734.04595   7706.39487  0.08397         4188.98776     17.88714  0.00043   58593.7794   7.04386  0.50101   32157.78632  47.70226   18.5663  58629.34911    51.20144       44.76284    10.4089  25.41779   22.5    0.53411  -21.43971  0.99532 
   -7.35031  0.00173  1.24486     14.37323   1.6702   0.9505  7.10491  0.06122     0.02452  12161.61959   6472.14285  0.08888          4827.7584     18.21592  0.00091  58596.11416   6.26857  0.01231   43088.65065  47.66701  18.59107  58627.56931    51.10494        44.6737   15.11018   21.2284   25.0    0.58873  -21.56557  0.99991 
    -7.0776  0.05104  1.14732     14.44714  1.79225  1.01891  3.31501  0.22764     0.01653  11300.47008   9942.45703  0.70709         3096.87104     18.76837  0.00326  58596.38687   2.52525  0.16919   27945.19195  47.95657  18.60876  58629.34911    51.34823       44.93913   11.13504  22.10457   20.5    0.53405  -21.52766  0.99924 
   -7.92012  0.08026  3.03115     14.17543  1.65418  1.38632  2.70767  0.25303     0.02879  14161.35682   5183.23028   1.7361         2427.86064     16.78094    3e-05  58595.54435   3.23916  0.21733  629150.46167  45.72546  18.58862  58627.56931    51.14259       44.70715   11.13504  24.01713   24.5    0.57889   -21.6086  0.98883 
  -10.14361   0.0113  1.70907     14.29218  1.58084  0.91092  5.71765  0.13475     0.02159  13429.20943   9080.39849  0.08864         4878.48174     20.09948  0.06986  58593.32086     6.151  0.06461  111653.10733  46.95434  18.57802  58629.34911    51.03755       44.57087   15.11018  23.87689   21.0    0.51972   -21.5771   0.9989 
    -8.2061  0.00244  1.02908     14.38184  1.72721  1.22493  4.22948  0.14067     0.02765  12008.86756   3776.81882  0.11336         5289.55181     16.86397    4e-05  58595.25836   3.63847   0.0103    29267.2338  48.01491   18.5813  58627.56931    51.14319       44.70534   15.30046  22.43879   23.5      0.568  -21.49554  0.99996 
   -8.69678  0.00217  0.84359     14.39137  1.82902  1.30467  4.62411  0.15483     0.01213  12358.26363   3091.47703  0.03234         5484.72559     16.67094    3e-05  58594.76768   4.21279  0.01004   19932.47824  48.37924  18.58626  58627.56931    51.04289       44.58926   15.53008  23.45699   22.0    0.65024  -21.42599  0.99998 
   -8.18139  0.03759  0.76161     14.25356   1.5044  1.28747   4.4582  0.11401     0.01442  11002.45499   5669.67382  0.15045         5563.06933     19.38712  0.01355  58595.28308   3.21933  0.16758   25207.96464   48.2812  18.60294  58629.34911    51.13446       44.66836   12.75503  25.41446   22.5     0.5862  -21.53063  0.99966 
   -4.66084  0.05482  1.29418     14.53032   1.7047  0.96265  7.68102  0.14039     0.02159  16677.99853   4522.84592  0.91331         2895.10539     18.39779  0.00139  58598.80363  12.74483  0.42106   23057.36038   47.9137  18.57015  58627.56931    50.95029       44.48682   13.84946  24.63362   22.5    0.54042  -21.60171  0.99759 
   -4.54275  0.09136  1.43139     14.77108  2.12375  0.62917  7.27679  0.13616     0.01143  15404.43324   5279.65011  1.24679         2157.28394     18.35942  0.00127  58598.92172  10.30051  0.66478   11594.92507  48.22016   18.6123  58629.34911      51.096       44.70369    9.45398   21.2284   22.5    0.61092  -21.60431   0.9965 
   -6.62089  0.23073  1.06255     14.70687  1.96129  0.63041  5.33486  0.13519     0.01446  13668.80157   5706.81982  0.36585         2138.05242     17.35999  0.00013  58596.84358   5.94581   1.2309    7930.62209  48.60938  18.56725  58627.56931    51.14087       44.71039   17.02274  20.71651   22.0    0.60419  -21.55478  0.99689 
   -2.30819  0.00844  1.89116     14.58817  1.87819  0.84255  6.50595  0.10589     0.01484  13420.85652   9050.50454  3.23883         2231.50452     17.69965  0.00028  58601.15628   6.99034  0.05493   41560.35132  47.37045  18.58413  58629.34911    51.45258       45.02146   13.94144  22.22732   22.0    0.46094  -21.52476   0.9992 
   -9.13714  0.04519  0.86626     14.64524  1.78241  0.62279  7.98594  0.13044     0.01079  13835.07353   8695.04814  0.18539         2904.90888     18.29482   0.0011  58594.32733   9.11835  0.36088    6362.62231  48.84092  18.62775  58627.56931    51.07215        44.6319   15.53008  21.91326   20.0    0.57965  -21.35429  0.99942 
   -9.53213  0.00527  1.75819     14.52015  1.64072  0.53775  2.27756  0.30248     0.06019  13413.08628   6180.52598  0.10397          5182.6994     20.01527  0.05754  58593.93233    2.4443  0.01201   42923.08115  47.36106   18.5556  58629.34911    51.07805       44.63504   10.34827  25.41446   24.5    0.53351  -21.58752   0.9998 
   -4.28032  0.02119  1.28008      14.3578  1.52137  1.23984  3.46469   0.2883     0.06376  17230.92614   3027.48813  1.17894          2073.4175     18.13467  0.00076  58599.18414   6.13634  0.07341   44557.56335  47.58768  18.58993  58627.56931    51.04687       44.62929     11.646  21.97223   22.5    0.56469  -21.69293  0.99943 
   -9.11817  0.00569  1.34642     14.40489  1.65916  0.83073  3.18815  0.24064     0.02093  12085.96172   9756.66503   0.2442         3247.51619     16.20993    1e-05  58594.34629   2.77798  0.01814   43280.67633  47.59408  18.60671  58629.34911    51.10634       44.66464   13.56331  23.88004   19.5    0.55572   -21.4463  0.99984 
    -4.3018  0.04756  1.62166     14.58096  1.67851   0.7242  4.49984  0.20576      0.0382  15459.60825    5030.9804  1.10996         3168.30669      19.5766  0.02096  58599.16267   6.41537  0.21403   28231.45636  47.62312  18.60137  58629.34911    51.21541       44.80326   12.02888  22.22732   23.5    0.53067  -21.65325  0.99743 
   -5.61422  0.00983  2.42432     14.34286  1.32906  0.52171  1.56071  0.23191     0.07317  12926.65897   7604.04874  1.11334         2278.56115     17.04977    6e-05  58597.85025   1.55568  0.01535  149562.94422  46.44838  18.55606  58627.56931    51.07201       44.63737   15.11018  22.33316   26.5      0.548  -21.53008  0.99929 
  -11.03879  0.01967  2.64758     14.07452  1.70715  1.48988  3.13841  0.17615     0.01335  12304.34597     3602.387  0.13544         2819.55599     17.75176  0.00031  58592.42567   2.83435  0.06172  788395.37415  45.75867  18.55624  58629.34911     50.9851       44.51771   15.06183  23.42125   25.0    0.58868  -21.51746  0.99767 
   -2.35918  0.00352  1.99004     14.55701  1.79401  0.83798  2.95032  0.32814     0.03883  16517.62706   8031.48007  2.86194         2447.85616     18.63118  0.00238  58601.10529   4.80166  0.01039   50739.41893   47.2196  18.58943  58629.34911    51.00503       44.54083   11.65075  26.60039   21.0    0.54274  -21.64302  0.99981 
   -8.04248  0.00111  1.27356     14.46829  2.01611  1.28834  3.67199  0.16861     0.05806  13185.51068   8816.83278  0.07025         2034.29494     17.93833  0.00048  58595.42198   3.80822  0.00408   35139.83335  47.81752  18.59328  58627.56931    50.95844       44.47931    13.0654  25.07829   21.0    0.54093  -21.54262  0.99998 
   -8.71833  0.08853  1.70607     14.58222  1.84605  0.67603  5.90115  0.11216     0.05705     14543.67   3688.99426  0.04134         5843.65121     16.56764    2e-05  58594.74614    7.4458  0.52243    34168.3068  47.53747  18.63243  58629.34911    51.32925       44.90931   10.75834  23.66769   25.5     0.5274   -21.5704  0.99349 
  -10.22057   0.0019  1.08696      14.6522  1.70617   0.4047  3.27403  0.16784     0.01631  10687.92582   3899.57164  0.07559         3878.80439     19.33975  0.01215   58593.2439   2.23099  0.00623    9286.74082  48.46057  18.58656  58627.56931     51.1987       44.75914   10.81592  24.16643   24.0    0.54743  -21.36202  0.99997 
   -3.62699  0.01641  1.15696     14.71684  1.76203  0.61939  6.57738  0.17899     0.02806  17127.83865   3373.43973  2.06918         2326.06654     18.92809  0.00471  58599.83748  11.51026  0.10797    8068.47582  48.48143   18.5806  58629.34911    51.03335       44.58691   10.92322  25.59917   22.5    0.51611  -21.59407  0.99962 
    -7.1192  0.00151  1.72664     14.56788  2.16839  0.88695  2.08608  0.31214     0.05181  12430.91392   9659.54352  0.98334         2045.05403     19.88469   0.0426  58596.34527   1.92294  0.00316   43912.83327  47.48799  18.62366  58627.56931    51.35253        44.9485   10.75834  21.75513   21.0    0.50696  -21.56167  0.99997 
   -7.79413  0.26811  1.36461     14.48345  1.84484  0.75395  4.10889  0.23939     0.01027  12916.35718   9412.60955   0.7074         3058.66638     20.41062  0.14301  58595.67033   4.08914  1.10163   34425.81084   47.7279  18.56852  58629.34911    51.10824       44.66749    13.3879  22.95068   21.5    0.54245  -21.70178  0.99153 
   -5.95701  0.07286  1.02272     14.72809  1.98845  0.70795  4.87247  0.25596     0.02447  17016.75374   5497.89634  0.38578         3008.03274     19.05456   0.0063  58597.50746   8.41647  0.35501     6755.4962  48.71819  18.57542  58627.49914    51.10515       44.67577   14.11404  21.03813   21.5    0.64592  -21.69119  0.99938 
   -6.17057  0.01063  1.19081     14.28658  1.44694  1.44101  5.56636  0.17454     0.02357  15679.32399   7956.38738  1.25911         2010.15249     18.31665  0.00115   58597.2939   8.16306  0.05915   50907.53275  47.57083  18.61596  58629.34911    51.05705       44.62211   13.00644  22.78002   21.0    0.52828  -21.58678  0.99957 
   -5.05623  0.16711  1.63101     14.72817  1.99514  0.57705  2.57743  0.25428     0.02804  11446.51504   9921.49735  1.32224         2771.29631     19.70998  0.02849  58598.40824   2.01447  0.43071   17233.25369  47.90754  18.56343  58627.49914     50.8344       44.37134   17.21301   21.2124   22.0    0.43788  -21.52252    0.996 
   -5.44193  0.00232  0.78658     14.66198  1.91785  0.85708  2.86465  0.31202     0.04427  14488.34665   3793.17014  0.48989         3625.66466     16.23026    1e-05  58598.02254   3.58704  0.00665     5225.9252  49.04201  18.58231  58627.56931     50.9651       44.51704   18.32259  21.84111   22.0    0.53732  -21.67706      1.0 
   -6.93538   0.0148  2.04488     14.31947  1.63193  1.08929  3.63457  0.28822     0.02483  15340.29628   9411.24906  1.11769         2604.62747     18.82385   0.0037  58596.52909   5.10208  0.05379  145518.42438   46.6973  18.64641  58627.49914     51.1117       44.68041   10.34827   23.7978   19.5    0.55194  -21.62924  0.99874 
   -7.15335  0.07947  1.50022      14.5486  1.82726  0.84888  5.02334  0.21358     0.02502  16284.09613   5185.12318  0.91126         2005.91704     17.78118  0.00034  58596.31111   7.94598  0.39919   30530.52772   47.6936  18.58678  58629.34911     50.9938       44.53455   13.84946  24.63362   22.5    0.56864  -21.61547  0.99654 
  -10.42331  0.00765  0.90943     14.41484  1.79104  1.11661   5.0555  0.20754     0.01326  13618.65332   7109.31797  0.00977         3924.90619     16.01637    1e-05  58593.04116   5.59319  0.03869   20359.83413  48.29563  18.59006  58629.34911    51.03599       44.56632   15.11018  23.87689   22.0    0.58705  -21.28583  0.99991 
    -8.2725  0.02177  1.26743     14.27603  1.59985  1.17917  4.04934  0.31386     0.01474  15355.46129   9210.17906  0.16213          2145.9314     17.10201    7e-05  58595.19197   5.69557  0.08814   66938.87658   47.4414  18.57244  58629.34911     51.1223       44.69747   10.34827   23.7978   19.0    0.59665  -21.60596  0.99927 
   -8.15711   0.0283   1.7961     14.38959  1.75545  1.21014  5.29411  0.19981     0.03338  15109.80397   9176.31332  0.35565         4177.13789     16.77018    3e-05  58595.30736   7.21005  0.14982   87434.49465  47.06289  18.60618  58627.56931    51.10937       44.70193   11.28507   21.2284   21.0    0.49457  -21.63832  0.99772 
   -8.07772  0.07745  3.17611     14.40706  2.03945  0.99736  2.34089  0.26689     0.03625  13430.12667   9698.68198  0.70387         2963.02664     17.48521  0.00017  58595.38675   2.51865  0.18129  293088.69916  46.10757  18.59681  58629.34911    51.11113       44.69158     9.5642   24.3097   20.0    0.54256  -21.59114  0.99253 
  -10.16223  0.00385  0.74414     14.36343  1.68969  1.15069  3.73247  0.21766     0.01404  11347.45904   9867.99936  0.10053         5534.95956     18.90088  0.00442  58593.30223   2.86695  0.01437   16295.46099  48.54128  18.66306  58629.34911     51.2315       44.79406   15.30046  20.86831   19.5    0.57109  -21.24042  0.99998 
   -7.51293  0.00195  1.94216      14.5046   1.5578   0.5408  2.24192  0.29451     0.05167  14308.37032   8597.36874  0.15976         3618.80222     17.78212  0.00034  58595.95154   2.73796  0.00437    53417.9545   47.1571  18.60175  58629.34911    51.10482       44.58695   20.84785  25.05352   20.5    0.61148  -21.61395   0.9999 
   -9.19288  0.26741  2.09887     14.24509  1.65927  1.44952  3.17652  0.18548     0.02653  12838.48796   6713.90652  0.19476         5058.20979     16.16927    1e-05  58594.27158   3.12325  0.84945  219549.28139  46.50326  18.58299  58627.49914     50.9431       44.48948   16.64197  21.84111   24.0    0.56878   -21.5652  0.97979 
   -5.51723  0.00546  1.99641     14.63819  2.02161  0.72676  3.94708  0.21472     0.02513  14262.12084   3713.46033   0.7684         3195.91503     19.36796  0.01296  58597.94723    4.7893  0.02156   39594.93217   47.3764  18.59503  58627.56931    51.04077       44.59708   11.65075  24.68783   22.5    0.58012  -21.61675  0.99967 
   -7.52587  0.02425  1.18871     14.53262  1.79096   0.8998  6.05557  0.13697     0.02197  14523.02682   4317.16087  0.14892         4787.73797     16.39751    1e-05  58595.93859   7.61897  0.14683   20221.39911  48.06596  18.60782  58627.56931    51.04613       44.56792   11.70728  24.86324   21.5    0.59338   -21.6125  0.99935 
     -9.602   0.3375  1.82019     14.46309  2.11774  1.37574  5.15589  0.17675     0.03053  15888.74472   7901.59423  0.05587         5122.87137     20.31442  0.11459  58593.86246   7.76444  1.74013   77221.36278  47.18675  18.58085  58627.49914    51.20452       44.83949   13.84946  18.72613   22.5    0.54613  -21.65773  0.98023 
   -7.01176  0.00232  0.88648     14.56794    1.872  1.01041  6.08062  0.17734      0.0397  15781.34743   4001.96469  0.18454         3213.68316     16.43097    1e-05   58596.4527   9.03365   0.0141    9990.38907  48.64623  18.59345  58627.56931    51.18281       44.72916   17.02274   21.2284   22.5    0.49899  -21.63599  0.99998 
   -9.50813  0.00857  1.53878     14.28062  1.62258  1.10413  4.44414   0.1533     0.01833  12617.04023   9260.70296  0.09851          4948.4886     19.49027  0.01718  58593.95634   4.22017  0.03809   97978.99128  47.11357  18.60541  58629.34911     51.1269       44.66029   11.47534   26.7758   20.0    0.57222  -21.51356  0.99951 
   -3.63692  0.00575     0.91      14.7735  1.89842  0.57569  5.10331  0.25932       0.032  19171.36707   8913.06808  1.82352         2211.97234     20.35595  0.12609  58599.82755  11.18884  0.02935    4142.70205  49.01187  18.57823  58627.56931    51.03518       44.61185     11.646  22.78002   18.5    0.60658  -21.75732  0.99996 
  -12.07117  0.14339  1.90495     14.32649  1.77296  0.77275  2.71099  0.31267     0.01458  12184.02731   8711.36821  0.02809         2115.34662      18.9962  0.00551   58591.3933   2.40069  0.38874  132829.39692  46.83448  18.61656  58627.56931    51.00243       44.53656   13.84946  25.07829   21.5    0.52084  -21.43112  0.99295 
    -7.5927  0.11353    1.341     14.31173  1.52132  1.24192  6.88972  0.11844     0.02413  15273.50405    5225.7182  0.07057         4556.82451     18.03841  0.00061  58595.87177   9.58751  0.78222   60456.86087  47.41476  18.61183  58627.56931    51.14888       44.71646   12.20148  22.95068   23.0    0.58079  -21.63463   0.9926 
   -5.98952  0.14276   1.6918     14.50717  1.80284  0.93061  4.63317  0.22878     0.02486  15966.35068   8182.27478  0.83078         2600.46509       18.259  0.00101  58597.47495   7.04558  0.66143   46358.69724  47.40197  18.58168  58627.49914    51.06442       44.62048   17.93915  21.03813   20.5    0.58174  -21.62639  0.99197 
  -10.32827  0.00187  1.85219     14.37433  1.79797  1.05271  8.59111  0.09161     0.01112  12505.13689   3025.34415  0.20201         5713.72611     17.86581  0.00041   58593.1362   8.01408  0.01611  102165.06647  46.97895  18.58454  58629.34911     50.9332       44.44059   15.06183  25.50808   24.0     0.5246  -21.48027  0.99974 
   -7.32316  0.10474  4.11841     14.66151  1.89639  0.30515  1.68194  0.32321     0.03572  14908.78578   7426.39966  2.15834         2659.71309     17.62178  0.00023  58596.14131   2.23008  0.17617  141963.41414  46.16514    18.603  58627.49914    51.07081        44.6187   17.02274   21.2284   23.0    0.62638  -21.65541  0.98628 
  -10.11304   0.0024  1.59802     14.25019  1.71468  1.51023  3.75901  0.15373     0.01996  11470.40279   8608.51589   0.1426         3231.18703     18.19713  0.00087  58593.35143   2.95025  0.00902  128464.92736  46.98708  18.59141  58627.56931    51.22871       44.81268   12.20148  22.78086   22.5    0.53854  -21.41668  0.99988 
   -9.49207  0.17664  0.96006      14.3665  1.89957  1.41849  2.90999  0.18385     0.01728  10686.32983   8276.00752   0.1095          3512.1156     17.52722  0.00019   58593.9724   1.98233  0.51403   30065.47372  48.10483  18.56592  58627.49914    51.09491       44.69085   15.06183  19.59614   22.5    0.58577  -21.33357  0.99866 
   -8.69154   0.0803  1.65754     14.47465  1.90605  0.88185   5.0079  0.18522     0.01169  13018.52044    8123.8226  0.74018         2123.36681     17.20182    9e-05  58594.77293   5.06298  0.40211   54648.75656  47.37247  18.61387  58629.34911    51.20459       44.77851   10.81592  24.16643   22.0    0.55008  -21.48174  0.99543 
    -7.4257  0.12431  1.09326     14.36847  1.52871  1.02372  6.06569   0.2551     0.01581  15929.04116   3492.54323  0.39396         3820.56815     19.20178  0.00884  58596.03877   9.18092  0.75401   31092.01595  47.88307  18.60244  58627.56931    51.11946       44.68372   11.47534  22.95068   24.0    0.49683  -21.68585  0.99605 
   -7.69704  0.09632   0.7406      14.4742  1.87287  1.17792  3.47605  0.28792     0.01758  13393.65346   7706.99974  0.49644         2160.56094     18.27763  0.00105  58595.76743   3.71973  0.33482   10742.28736  48.77109  18.60409  58627.56931    51.11929       44.67372   12.02888   23.7978   21.5    0.52475  -21.51141  0.99973 
   -8.51268  0.02664  1.47689     14.37722  1.61275  0.78277  4.98945  0.23533     0.01069  14419.69814   3253.07269  0.51873          2277.1391     17.14156    8e-05  58594.95178    6.1886  0.13293   57496.72724  47.37807  18.58444  58627.56931    51.14464       44.71845   12.20148  22.95068   23.5    0.57856  -21.56205  0.99842 
  -10.83887  0.01801  2.77252     14.32855  1.40756  0.38732  2.32456  0.32869     0.02148  13460.69377   9272.46066  0.81595         2957.31206     17.23357   0.0001  58592.62559   2.51249  0.04186  221275.22256  46.18663   18.6119  58627.49914    51.26917       44.88746   12.20148  19.60456   22.0    0.54626  -21.59402  0.99767 
   -7.92733  0.05912  0.77934     14.61374  2.09489  1.04601  3.35105  0.26851     0.04479   14032.6286   8688.41588  0.18395         3152.05099     19.51227  0.01807  58595.53714   3.93629  0.19812    6997.50672  48.96161  18.61174  58629.34911    51.11986       44.67872   12.75503   23.7978   20.0    0.52605  -21.66016  0.99988 
   -4.23683  0.24366  1.70026     14.50998   1.7044  0.90581  4.35021  0.23086     0.02492  15574.02951   4804.03255  1.14845         2941.23708      18.2301  0.00094  58599.22764   6.29418  1.05997   43696.92123  47.39893  18.56226  58627.49914    50.90925       44.44636   17.44495  22.95068   23.5     0.5658  -21.59297  0.98611 
   -10.0599  0.01117  1.15203      14.2406  1.65249  1.28929  2.84015  0.20566     0.01579  10237.02953   4161.17384  0.12639         5095.26614     16.80988    4e-05  58593.40456   1.77548  0.03171   67247.96322  47.53638  18.63031  58629.34911    51.19259       44.76639   12.02888   23.7978   24.5    0.53403    -21.365   0.9998 
   -4.50909  0.00728  1.97635     14.28617  1.68216  1.34551  2.77098  0.31716     0.01845  12933.89683   4310.02643  2.94497         2134.70927     16.42753    1e-05  58598.95538   2.76516  0.02017  163332.14843  46.68991  18.63445  58629.34911    51.03708       44.60366    9.87388  24.63362   24.5    0.52655  -21.52535  0.99958 
  -10.11734  0.11811  0.90786     14.49218  1.81046  0.83907  6.06336  0.23692     0.01495  15923.51463   4666.99021  0.08124         5009.81335     20.34269   0.1223  58593.34713   9.17104  0.71614   14364.00675  48.45332  18.60166  58627.49914    51.05634       44.62567   11.88269  22.77528   23.5    0.56014  -21.49712  0.99842 
  -10.26302   0.0979  1.25756     14.50745  1.46208  0.38072  3.01544  0.20696     0.01218  10988.89842   9576.68848   0.1554         3890.41276     20.13189  0.07527  58593.20145   2.17213  0.29521   20745.97193  47.91782  18.63674  58629.34911    51.34556       44.93614    9.56279  22.95068   21.0    0.54228  -21.49403  0.99699 
  -10.66731  0.05804  1.25876     14.30913  1.52891  0.92363  5.58966  0.12605     0.01246  11798.58039   8792.54867  0.11482         4680.47064     17.56081   0.0002  58592.79716   4.64165  0.32445   54177.42431  47.51952  18.61321  58627.56931    51.04421       44.51207   22.95068  25.03751   21.5    0.55696  -21.37162  0.99714 
   -8.00776  0.00476  1.06765     14.51366  1.99923  1.38897  5.73046  0.16795       0.026  14568.55565   6036.32593  0.27667         3966.83675     19.88243  0.04238  58595.45671   7.25521  0.02727   19870.54992  48.21464  18.56334  58627.49914    51.06607        44.6455   17.46859  19.59614   22.5    0.54787  -21.63995  0.99994 
   -9.29456  0.04622  2.10204     14.06092  1.44634  1.51884   3.1231  0.25847     0.01488  12203.53856   7693.39593   1.0662         2327.49459     17.94474  0.00049   58594.1699    2.7745  0.14434  448259.69968   46.1323  18.56801  58627.56931     51.1998       44.82087   11.70728  19.12557   24.5    0.49491  -21.50734  0.99563 
   -9.79042  0.14493  0.92434     14.29172  1.45294  0.99541  2.70935  0.25744     0.03669  12617.94692   7069.17547  0.02625         4367.13996     19.17275  0.00827  58593.67405   2.57317  0.39267   30081.33119  48.02113  18.57719  58627.56931    51.07448       44.63499    9.79472  24.86324   23.0    0.55359  -21.39618  0.99843 
   -7.44383  0.19086  3.31876     14.30677  1.98267  1.49196  3.79327  0.14174     0.01549  11515.81838   9634.72407  1.48654         2774.22464     18.76946  0.00327  58596.02064   3.00075  0.72397  493726.38278  45.83066  18.63005  58627.56931    51.17105       44.71377   10.75834  25.58024   22.5      0.531  -21.53251  0.96683 
   -5.62992  0.05935  1.28719     14.62101  1.74967  0.71729  6.27312  0.18162     0.02578  16969.42445    3234.5858  1.10871         2367.81812     18.26542  0.00102  58597.83455  10.77568  0.37233   15418.51141  48.10447  18.57367  58629.34911    51.14987       44.70244   11.13504  25.41779   22.5    0.51556  -21.63007  0.99791 
   -7.86176  0.13462  1.39207     14.60375  1.76629  0.44224  3.19599  0.21005     0.01284  12183.45775   8879.69322  0.25051         4572.43296     20.42327  0.14723  58595.60271   2.82991  0.43025   19710.69051  47.93388  18.57607  58627.56931    51.10412       44.66933   11.88269  22.77528   21.5    0.62871  -21.73999  0.99606 
   -8.13807   0.2751   2.5993     14.22214  1.59074  1.04015  1.77002  0.27879     0.05599   14442.2812   9808.85747  0.35706         2251.07785      16.0204    1e-05   58595.3264    2.2023  0.48694  358801.40505  46.08588  18.64793  58629.34911    51.11685        44.6333   12.02888  28.13481   19.0    0.62383  -21.60625  0.98072 
   -9.18798  0.01068  0.73644     14.35362  1.66858   1.1531  6.31481  0.23917     0.02375  16935.11324   9921.12876  0.33163         2880.40563     20.64967  0.24797  58594.27649  10.80349  0.06745   16489.00976  48.53972  18.59328  58627.56931    51.11988       44.70847   13.42956   21.2284   18.5    0.55822  -21.66336  0.99991 
   -9.39744  0.00439  0.78512     14.61176   1.7595  0.60817   3.6986  0.29127     0.01682  13709.72686    5051.6076  0.05457         3071.29945     19.18969   0.0086  58594.06703   4.14688  0.01624    6019.41895  48.94481  18.59224  58627.56931     51.1692       44.72011   11.13504  24.01713   22.5    0.60649  -21.34209  0.99998 
   -5.43137  0.00309  1.38487     14.12158  1.28497  1.35963  2.75172  0.23414     0.02169  12658.09611    5588.7735  1.40761         2079.94033     16.15483    1e-05   58598.0331   2.63008  0.00851  130726.07939  46.97856  18.58994  58629.34911    51.20187       44.70654   12.20148  27.51173   23.0    0.59415  -21.54391  0.99987 
   -8.68264  0.03517  1.14943     14.47056  2.01887  1.47587   4.0996  0.17109     0.03433  13057.91631   7779.28867  0.12859         2580.57783     18.10492  0.00071  58594.78183   4.16981   0.1442   28363.95781  48.00022  18.60068  58627.49914    51.13349        44.7099   17.02274  19.31585   22.5    0.52521  -21.43632  0.99952 
   -7.22107  0.11277  2.27987     14.31184  1.71462  1.16509  2.58827  0.28069     0.04241  15098.90258    6293.7547  0.87334          2034.6387     16.46316    2e-05  58596.24339   3.51987  0.29189   196847.2447  46.49307  18.55653  58627.56931     50.9395       44.50389    13.3879  23.39536   22.5     0.5821   -21.6262  0.99208 
   -6.32258  0.02488  1.97994     14.47975  1.66008  0.74005  3.74356  0.22851     0.01855  12713.25491   7782.73785  0.79497         4145.47604     16.83283    4e-05  58597.14189   3.60932  0.09315   66334.55913  47.07393  18.60654  58627.56931    51.22892       44.82104   11.13504  22.10457   23.0    0.53399  -21.61398  0.99804 
   -4.95282  0.00139  0.82209     14.60313  1.93568  0.99783  6.61523  0.23542     0.01675  17874.42983    7001.8782  1.29815         2116.04786     19.30528  0.01122  58598.51164  12.60772  0.00919    7554.76335  48.84762  18.56239  58627.49914    51.17272       44.73807   12.20148  22.78086   21.5    0.61687  -21.70853  0.99999 
   -4.62358   0.2387  1.49352     14.44464  1.34429  0.74404    5.414  0.17512     0.02484  15303.33559   7485.29546  1.34369         3119.75358     17.58878  0.00022  58598.84088   7.56341  1.29231   35928.79946  47.49347  18.60729  58629.34911    51.33348       44.92177   11.47534  22.95068   23.5    0.49383  -21.59779  0.98151 
  -10.02973  0.00369  0.82304     14.44403  2.03809  1.42697  7.38864  0.07921     0.01242  10754.00075   8049.01771  0.20716         2346.80244     18.24015  0.00097  58593.43473    5.0972  0.02727   16589.08618   48.5274  18.60629  58629.34911    50.97866       44.51739   11.28507  25.49819   23.0    0.48154  -21.23255  0.99997 
   -9.48791  0.18436  0.87322     14.29099    1.514  1.37293  6.57061  0.12273     0.01328   13515.4595   7767.77862  0.02624         2388.87859      17.8161  0.00036  58593.97655   7.15969  1.21133   28068.05854  48.11851  18.62904  58629.34911    51.18749       44.75443    13.3879  22.95068   22.0    0.56412  -21.39105  0.99671 
   -4.04674  0.00697  0.87059     14.62086  1.85449  0.93688  3.35995  0.31497      0.0564  16004.06346   3816.00573  0.88856         2923.50059     19.49449  0.01735  58599.41773   5.13359  0.02342    7480.85761  48.78349   18.6201  58627.49914    51.15341       44.70809   15.11018   21.2284   23.0    0.45046  -21.62399  0.99998 
  -10.33712  0.09625  0.77572       14.505   1.6242   0.5997  4.27165  0.13226     0.01163  10807.26891   7166.24204  0.04347         2091.42774     17.24706   0.0001  58593.12734   2.97615  0.41113    8869.01113   48.7522  18.57928  58629.34911    51.02916       44.57215   11.70728  24.86324   23.5    0.55872  -21.26207  0.99921 
   -7.86231  0.00306  1.74004     14.32666  1.70049  1.21618  3.16479  0.25655     0.03524  14639.93384   6517.75118  0.37172         2164.95198      17.6752  0.00026  58595.60216   4.04623  0.00968  106214.68802  46.99212  18.60233  58627.56931    51.04989        44.6035   11.88269  23.88004   22.0    0.58375  -21.62106  0.99985 
   -8.41064  0.08133  2.51391     14.27585  1.74921  1.52488  3.26606  0.17868      0.0616   15034.5775   6657.58491   0.2104         2423.64887     17.75067  0.00031  58595.05383   4.40386  0.26562  288178.29318  46.25133  18.63965  58627.56931    51.09024       44.64785   13.42956  23.14096   24.5    0.55966  -21.60036  0.99145 
   -4.57441   0.1547  1.91251     14.69662  1.93433  0.58578  4.10461  0.17914     0.02249  13814.85717   8451.93433  1.84944         2138.93877     18.90862   0.0045  58598.89006   4.67295  0.63499   26565.16327  47.56786   18.5621  58627.56931    51.08215       44.65224    9.79472  24.86324   21.5    0.49413  -21.54999  0.99072 
   -3.62721  0.20351  3.06455     14.55106  1.73552  0.69357  3.31127  0.25913     0.02161  14221.95257   7309.33165  2.64498         3286.85867      17.3339  0.00012  58599.83726   3.99522  0.67386  119636.05436  46.45768  18.57684  58627.56931    50.99287       44.52742   15.06183  23.42125   22.5     0.5825    -21.612  0.96813 
   -7.23881  0.00925  2.95705     14.36705  1.57048  0.61235  2.30277  0.29252     0.02758  13564.78275   5224.27937  1.03984         3041.37797     17.23999   0.0001  58596.22565   2.52757   0.0213  235211.58917   46.1517  18.59191  58627.56931    51.03965       44.58198    13.3879  24.86324   23.5     0.5821  -21.58927  0.99886 
   -6.81578  0.01122  1.52338     14.45817  1.92842  1.52023  3.38572  0.19589     0.06189  12996.59421   4835.59978  0.56189         2862.80641     18.12149  0.00073  58596.64869   3.41143  0.03798   50384.45755  47.48613   18.5916  58627.56931    51.16966       44.71301   12.06131  24.27728   24.5    0.50297  -21.53631  0.99969 
    -5.3833   0.0551  1.85958      14.6113  1.56623  0.53017  3.17169  0.31648     0.07422  17730.80773   5235.66769   1.1325         2166.50951     17.24799   0.0001  58598.08117   5.94806  0.17475    30123.2424  47.44597  18.59723  58627.49914    51.10476       44.71073    13.7905  18.95491   22.0    0.54402   -21.6485  0.99656 
   -7.76096  0.03885  1.57663     14.72638  1.82459  0.42047  2.65277   0.2046     0.04271  12034.94035   9127.90486  0.23282         3249.08184     17.20859    9e-05  58595.70351     2.292  0.10305   14848.81986  47.96286  18.56213  58627.56931    51.09065       44.64142   14.28945  22.77528   21.5    0.53943  -21.52728  0.99887 
   -7.57235  0.00328  1.60871     14.32906  1.53141  0.90347  4.45597  0.16636     0.01766  12973.22302   7075.89279  0.41279         2928.76955     16.54477    2e-05  58595.89211   4.47369  0.01461   80862.07172  47.13324  18.58302  58627.56931     50.9854       44.52862   12.86608  24.83294   22.5    0.57716  -21.55523  0.99977 
   -3.97926  0.13627  1.88771     14.39045  1.76084  1.39804  3.59995  0.18799      0.0266  14090.47989    4173.5772  1.49092         2375.80988     18.79595  0.00347  58599.48521   4.26358  0.49055   96494.31946  46.97819  18.56353  58629.34911    51.03738       44.59411    12.6455  23.87689   22.5    0.55467   -21.5714  0.99183 
   -9.56072  0.01183  2.01962     14.29142  1.78974  1.35075  2.44867  0.28444     0.03884  13645.28069   3656.87899    0.116         2597.15912      18.7666  0.00325  58593.90375   2.71971  0.02897  177139.13092  46.66278  18.56571  58627.56931    51.10825       44.66188   11.47534  24.35135   23.0    0.57679  -21.53609  0.99942 
   -7.11301  0.00966  0.78363     14.45305  1.69761  1.22998  7.02206   0.1251     0.03562  14635.84521   9004.45288  0.12278         5863.83544     19.74789  0.03109  58596.35145   8.97279  0.06784   12016.27202   48.6307  18.60919  58629.34911    51.12187       44.65423   13.94144  25.41446   21.0    0.54238  -21.59676  0.99993 
   -8.00203  0.07027  0.73231     14.49376  1.67879   0.8416  6.21281  0.12784     0.01212  12320.80945   8194.73903   0.2384         3873.15561     17.76806  0.00033  58595.46244   5.62592  0.43657    8603.55044  48.82977  18.56689  58627.49914    51.30228       44.93785    10.4089  19.89234   21.5    0.56134  -21.57836  0.99954 
   -7.45855  0.01528  2.17429     14.54781  1.56967  0.46684   3.7241  0.15668     0.03169  13456.80614   6673.75159  0.43597         2770.05174      16.6027    2e-05  58596.00592   4.02284  0.05691   55287.79182  47.04739  18.60724  58629.34911    51.14005       44.69332   11.70728  24.05544   24.0    0.53542  -21.57186  0.99838 
    -9.1533  0.00209   1.2095     14.39725   2.1022  1.24943  2.60816  0.22723     0.01979   11233.1385    9672.0208  0.10049         2939.19391     20.09745  0.06953  58594.31117   1.96319  0.00545    45835.0346  47.76511  18.56813  58627.49914     50.9863       44.53241   18.32259  20.66448   20.0    0.56804  -21.48517  0.99997 
    -8.2133  0.01924  1.01569     14.43616  1.82463  1.55332  3.66027  0.22979     0.03807  14180.06977   3128.69581  0.09832         5894.97544     18.97168   0.0052  58595.25116   4.39032  0.07044   23453.11214   48.1463   18.5936  58629.34911    51.17566       44.70881   15.30046  24.05544   22.0    0.57192  -21.55689  0.99982 
   -7.93112  0.14021  1.78689     14.59125  1.54523  0.47947  4.64867   0.1986     0.02098   14611.0647   6864.47662  0.34979         3725.52659     17.42668  0.00015  58595.53335   5.91997  0.65178   30095.16325  47.47515   18.6145  58629.34911    51.23035       44.82191   10.81592  22.57364   23.0    0.58671  -21.61938  0.98779 
   -7.10547  0.00288  1.98962     14.34168    1.777  1.19814  6.12355  0.14305     0.01057  13342.24668   8719.28922  0.93512         2745.28654     17.28181  0.00011  58596.35899   6.50262  0.01765  135418.38516  46.78931  18.58199  58629.34911    51.25902       44.85029   10.81592  22.42369   21.0    0.56363  -21.57867  0.99966 
   -5.06942  0.00449  0.86489     14.73241  1.93111  0.69187  5.72469  0.18749      0.0424  16939.40331   8626.84467  1.00721         2008.21874     17.39364  0.00014  58598.39504   9.79885  0.02573    4599.74779    49.018  18.57228  58627.56931    51.32546        44.9419   10.28893  21.51712   20.5    0.57727  -21.63239  0.99998 
   -9.28906  0.01766  1.20395     14.34368  1.69175  1.16057  6.69421  0.15651     0.01149  13890.00529   9733.95126  0.38973         2395.94587     19.84404  0.03879  58594.17541   7.70427  0.11824   46774.96802  47.66595  18.59343  58627.56931    50.98707         44.528    12.6455  25.05352   19.0    0.59047   -21.4786  0.99926 
   -5.42692  0.17897  2.07425     14.50004  1.88996  1.12782  3.63285  0.26648     0.02751  15109.56389   7478.58532  0.85914         3715.82078     17.79298  0.00034  58598.03754   4.94741  0.65018   75494.04416  47.03366  18.58574  58629.34911    51.04972       44.61321    12.6455  23.14096   22.5    0.60625  -21.62969  0.98836 
   -1.21548  0.00587   0.7334     14.68604  1.48797  0.49595  4.82159  0.14763     0.01527  13508.71398   9794.06689  2.24454         2023.84742     17.45594  0.00016  58602.24899   5.24862  0.02828    3155.14416  49.21174  18.58872  58629.34911    51.18029        44.7672    9.79472  22.78086   19.0    0.58448  -21.44322  0.99997 
  -10.34533  0.03003  2.56036     14.30011  1.79666  0.81861  2.11561   0.2928     0.02657  13058.68136   3761.99383  0.03447         5830.03338     18.79871  0.00349  58593.11913   2.15209  0.06354  274576.77841  46.26805  18.63025  58627.56931    50.99735       44.57643   12.91733  22.24462   23.5     0.5998  -21.57075  0.99793 
    -9.9259  0.22709  1.30367     14.42357    1.816  0.57353  3.88708  0.20014     0.02313  14707.52547   4861.03821  0.12917         3989.64045      20.9265  0.46906  58593.53857   5.01568  0.88271   40750.91569  47.68749  18.60893  58629.34911    51.13121       44.66722   11.13504  25.92968   24.5    0.55042  -22.01268  0.99302 
   -7.85734  0.12794   2.2013     14.52409   1.6121  0.48549  2.46721  0.27841     0.02305  12637.43412   6623.01041  1.51387         2031.22585     17.04123    6e-05  58595.60712   2.35045  0.31567   64921.21411  46.97849  18.58931  58629.34911    51.17707        44.7287   13.94144   23.7978   24.0    0.54742  -21.52352   0.9912 
    -7.8481  0.00306  1.88273     14.33978  1.76705  1.43173  3.98378  0.26072     0.02777  15305.49031   4043.15376  0.49737         2597.84655     17.31576  0.00011  58595.61637   5.56695  0.01218  121641.10684  46.88143  18.61232  58629.34911    51.16525       44.71546   12.75503   24.3097   23.0    0.55246  -21.62226  0.99979 
   -6.19933  0.00694  1.14578      14.4362  1.71556   1.1623  4.03114  0.19276     0.04196  14539.67997   6888.11543  0.14805         5936.37388      16.2009    1e-05  58597.26513   5.08352  0.02797   28055.34738  47.93703  18.63131  58629.34911    51.32058       44.88866   10.75834  23.81764   21.5     0.5555  -21.61196  0.99988 
   -3.95478  0.03152  1.46366     14.45375  1.98417    1.559  1.94844  0.33017     0.02446  11698.39491   8132.85519   1.9054         2238.13315     17.47191  0.00016  58599.50969   1.59062  0.06142   48838.94503  47.54678  18.56319  58629.34911    51.03152       44.53698   14.28945  27.04506   22.5    0.54064  -21.52016  0.99956 
   -4.29211  0.10839  0.73028     14.60745  1.67533  0.76705  3.84262  0.20789       0.036  14269.41561   8205.34501  0.82481         2509.67424     18.83953  0.00384  58599.17235   4.66731   0.4165    5058.23417  49.06196  18.62608  58629.34911    51.23596       44.78757   11.47534  24.69342   22.0     0.4774  -22.01709  0.99969 
   -8.21257  0.00749  1.44193     14.39732  1.51792  0.79804  4.29963  0.16536     0.04419  14638.69484   5174.66681  0.11444          2148.1085     17.92852  0.00047  58595.25189   5.49621  0.03218   47022.47641   47.4599  18.56952  58627.49914    50.98975       44.51823   20.23515  22.28578   23.5    0.54617  -21.58088  0.99962 
   -8.20531   0.0353  1.49503     14.17161  1.35681  0.93236  3.19615  0.12349     0.02278  11071.69673    6496.4435  0.26761         2894.24965     16.72763    3e-05  58595.25916   2.33713  0.11284  127767.82783  46.94564  18.59289  58629.34911    51.16918       44.72593   10.08978  25.73691   25.5    0.55201  -21.48987  0.99814 
   -8.45428  0.00441  1.43224     14.33933  1.68599  1.39845  3.76487  0.21295      0.0346  14181.33956   8639.76199  0.12109          3399.2012     19.15615  0.00796  58595.01018    4.5166  0.01661    67304.7473  47.35562  18.59091  58629.34911    50.97445       44.50786   14.27777  23.86592   20.5    0.59334  -21.53584  0.99984 
   -6.69183  0.01086  2.79753     14.23566  1.50434  0.91178  2.99924  0.28131     0.02012  13672.04417   5825.23594  1.52799         3377.16804     19.62555  0.02346  58596.77264    3.3443  0.03257  369312.07267  45.98525  18.61185  58629.34911    51.29105       44.86268   12.32146  23.84731   23.5    0.55924  -21.64054  0.99834 
   -7.09965   0.0027  1.04486     14.35696  1.44376  0.77685  2.47739   0.2753     0.02338  11689.37642   9748.76156  0.86295         2134.23223     19.45167  0.01572  58596.36481   2.01932   0.0067    28282.0312  47.93871  18.62557  58629.34911    51.01059       44.56399   15.85791  22.28578   20.5    0.54309  -21.51576  0.99996 
   -1.72274  0.02836  0.74998     14.43893  1.68371  1.54737  3.10725  0.29645     0.01634  12623.37167   9644.74248  2.83746         2255.49594     17.58312  0.00021  58601.74173   2.95362  0.08813    11649.6527   48.6787  18.55958  58627.56931    51.16228       44.67654    13.3879    25.968   20.5    0.50007  -21.40121  0.99992 
   -6.74189   0.0111  2.51897     14.46578  2.07033  1.24823  4.00331  0.14589     0.02957  12786.34631   5702.21988  0.62097         3526.77733     16.73535    3e-05  58596.72258   3.90426  0.04443  142801.74231   46.6277  18.60225  58627.56931    51.29988       44.87939   13.94144  20.63453   24.0     0.5427  -21.54423   0.9989 
  -10.46906  0.01467  0.70146       14.677  1.92087  0.56273  4.88608  0.12045     0.01455   10933.7252   7638.53455  0.01963         2428.81747     16.25273    1e-05  58592.99541   3.48437  0.07169    3884.33558  49.27103   18.6039  58627.56931    51.20042       44.75179   12.32146  24.01713   23.0    0.55948  -21.19061  0.99995 
  -15.62619  0.02052  3.12021     14.64606  1.54314  0.11284  2.71843  0.17574     0.02218  13346.94561   9614.01671  0.10485         3805.07168     16.53101    2e-05  58587.83828   2.88875  0.05579   71197.89621  46.61642  18.59388  58627.56931    51.10922       44.65564   11.47534  24.86324   24.5    0.46025  -21.58986  0.99647 
   -8.62391  0.00198  3.13242      14.3753  1.88219  0.67529  1.99708  0.26371     0.02202  12398.82341   6033.10437  0.46543         3443.53398     18.70598  0.00282  58594.84056   1.83141  0.00395  304539.95317   46.0681  18.62351  58627.56931    51.06434       44.60262   17.46859  22.24462   24.5    0.59425   -21.5805  0.99982 
    -5.6142  0.02964  2.01704     14.73679  1.72775  0.36631    1.979  0.22149     0.19387  14000.00638   4298.26619  0.06609         5379.80711     16.23035    1e-05  58597.85027   2.31381  0.05865   21934.84443  47.55576  18.58707  58629.34911    51.24529       44.81449   11.47534  23.10063   26.5    0.63055  -21.58156  0.99878 
   -5.08408  0.00479  0.70427     14.64104  1.65599  0.72597  4.20373  0.22505      0.1301  15761.07902    4040.8187  0.50839         3171.90689     18.56205  0.00203  58598.38039   6.22923  0.02014    3983.46186  49.19217  18.60722  58627.49914     51.0231       44.56591   17.21301  21.77405   23.5    0.49132  -21.57425  0.99999 
  -10.42219  0.00532  0.78669     14.43671  1.46372  0.76947  4.80576  0.18213     0.03176  13444.93952   8488.43714   0.0211         4981.16895     16.28734    1e-05  58593.04228   5.18211  0.02558   11257.95872  48.59124  18.57928  58627.56931    51.01572       44.55164   11.88269  25.42376   21.0    0.49378   -21.2467  0.99995 
   -8.80282  0.12406  1.02024     14.41372  1.79424  1.37794  3.24644  0.28956     0.03379  14634.64869   7486.22401  0.04862         3220.04733     19.01877   0.0058  58594.66165   4.14762  0.40274   25802.92854  48.09365  18.55621  58627.56931    51.27274       44.86637    13.3879  20.86831   21.5    0.61548   -21.4786  0.99884 
   -5.06078  0.00819  1.57096      14.4408   1.8601   1.5307  4.10204  0.18723     0.23271  15690.83386   7377.67178  1.02032         2024.34293     18.94115  0.00485  58598.40369   6.02448  0.03359   55986.04677  47.39797  18.55773  58627.49914    51.10822       44.69921   14.28945  20.86272   23.0    0.51093  -21.61427  0.99968 
   -7.59732  0.26046  1.34435      14.8811  1.92164  0.39062   6.2131  0.12982     0.01421  13926.83335   6808.48421  0.77877         2139.83465     16.57111    2e-05  58595.86714   7.18853  1.61829    5575.83488  48.54918  18.58384  58627.56931    51.07685       44.62504   15.83632  22.33316   23.5    0.56381  -21.56298  0.99091 
   -7.45168   0.0177  0.85935     14.39065  1.66114   1.1908  3.75086  0.26314       0.021  12040.54968   9584.97519  1.96247          2089.8943     18.86547  0.00408  58596.01279   3.24378  0.06639   18847.26534  48.34567  18.57537  58627.56931     51.0392       44.59085   17.46859  21.50869   22.5    0.40569  -21.55438  0.99987 
   -7.18376  0.00297  1.06094     14.67031  1.80175  0.64871   3.6391  0.22789     0.11795  14927.94624   3673.95198  0.12349         3970.75269     16.03527    1e-05  58596.28071    4.8375  0.01081    8595.48009  48.53889  18.59297  58629.34911    51.16222       44.71865   11.47534  24.35135   23.5    0.55219  -21.55663  0.99997 
   -5.40185  0.24188  2.03228     14.43489  1.68278  0.65998  2.69934  0.26212      0.0154  13269.58375   8912.09151  1.44231         2230.04346     19.84421  0.03881  58598.06262    2.8353  0.65292   87103.15602  46.93887  18.63217  58629.34911    51.10271       44.64436   14.28945  23.88004   21.5     0.6268   -21.6114  0.98563 
  -11.48605    0.333  1.95253      14.3927  1.96861  0.81311  3.10432  0.20557     0.01061  10664.89039   8695.25943  0.05072           3715.015     17.43131  0.00015  58591.97842   2.10623  1.03373  114228.47405  46.92403  18.56234  58629.34911    51.10979        44.6845   13.56331  22.26338   23.0    0.53207  -21.36135  0.98343 
  -14.48254  0.07023   2.4247     14.11112  1.58983  1.16917    3.787  0.23256     0.02201  12687.44606    9523.3592  0.04611         4800.92991     18.86039  0.00403  58588.98193    3.6364  0.26598   520293.5079  45.98463  18.56279  58627.49914    51.12985       44.69523   14.11404  22.43879   22.0     0.4792  -21.48554  0.99071 
   -6.55021  0.23504  2.92944     14.30826  1.52637  0.84783  2.92751  0.21213     0.02449  13114.48645   9402.57303  1.27298         3301.99899     18.47287  0.00165  58596.91426    3.0035  0.68807  294115.56663  46.05042  18.57614  58629.34911    51.02976       44.58392   13.61984  23.68661   21.5    0.57179  -21.58136  0.96379 
   -4.81969  0.07227  0.99318     14.37434  1.20112  0.72366  8.02896  0.10542     0.01574  14545.38514   4903.68781  1.12205         2679.39007     17.70523  0.00028  58598.64478  10.13297  0.58022   19623.72389  48.06159  18.58188  58627.56931    51.10553       44.67398   11.47534  24.35135   23.0    0.54395  -21.63601  0.99653 
   -7.02469  0.06695  1.53107     14.85804  1.66894  0.34024  4.17663  0.23407     0.13714  16362.82399   6441.06915  0.52646         2615.92754     17.36144  0.00013  58596.43978   6.67067  0.27961    6985.15859  48.27712  18.57167  58627.56931    51.16629       44.69653   13.94144   24.3097   24.5    0.52498  -21.61411  0.99701 
   -5.89611  0.00658  2.03274     14.74828  1.79735  0.26882  1.57765  0.29847      0.0125  10357.31255   7860.60024  0.74246         2638.32605     16.50031    2e-05  58597.56836   1.00956  0.01038     21981.349  47.56526  18.59121  58629.34911     51.0881       44.62739    9.79472    25.968   24.0    0.59637  -21.50077  0.99979 
  -11.74259   0.0224  2.07736     14.29652   1.5352  0.56656   4.1774  0.17333     0.01237  12571.70802   5354.13645  0.16406         4523.84952     20.35391   0.1255  58591.72187   3.93842  0.09358  157025.08143  46.62402  18.58172  58629.34911    51.18726       44.75139   13.94144  22.39714   25.0    0.52052  -21.63738  0.99746 
   -9.65241  0.00308  0.76552     14.40818  1.70515  1.47265  4.79705   0.2159     0.02771  14105.93842   3564.83427  0.08713         5512.64671     16.51607    2e-05  58593.81206   5.69384  0.01476   14162.51457  48.58155  18.56258  58627.56931     51.0552       44.61305    9.73819  25.42376   23.0    0.54492   -21.2897  0.99998 
   -2.50478  0.23814  0.91075     14.65152  1.90586   0.8087  3.73647  0.29194     0.01597  15423.41405   8002.45214  2.76031         2072.74678     19.42472  0.01477  58600.95969   5.30212  0.88981     7305.7198  48.76647  18.60824  58627.56931    51.17878       44.73093   17.38842  22.26338   21.5    0.53968  -21.61997  0.99884 
   -5.35296  0.05785  1.90088     14.63327  1.79079  0.60857  5.88745  0.14894     0.01639   13726.8447   7460.40399  1.95646         2489.48587     18.38117  0.00134  58598.11151   6.61753  0.34061   32525.26668  47.45176  18.56085  58629.34911    51.11817       44.67393   12.02888   24.3097   23.0    0.49598  -21.56349  0.99437 
   -8.86646  0.05083   1.6018     14.39238   1.8631  1.43631  4.78595  0.14762     0.03003  13863.92634   6107.19638  0.06242         3826.36275     18.90877   0.0045    58594.598   5.48741  0.24326   72864.64424  47.26735  18.58973  58629.34911    51.01275       44.54674   13.42956  25.05352   23.0    0.57224  -21.49788  0.99744 
   -8.38292  0.00684  2.69529     14.65514  1.81265  0.34885  3.29967  0.19942     0.01255  11715.09664   9977.85203  1.27077         2522.58752     17.14764    8e-05  58595.08155    2.7014  0.02256   59850.14783  46.88888  18.60056  58629.34911    51.11364       44.64116   13.94144  25.41446   21.5    0.51256  -21.54984  0.99919 
   -5.33144  0.00303   1.1117      14.4168  1.51511  0.96149  6.15077  0.30566     0.02148  19233.65447   7883.55732  0.86908         2946.46016     18.76879  0.00326  58598.13302  13.57313  0.01861   25505.47761  47.95068  18.52386  58625.16905    50.92059        44.4874   19.12557   19.8615   21.5    0.59618  -21.74545   0.9999 
  -11.74564  0.15386  2.55826     14.24893  1.76798  1.02562  3.52999  0.23299     0.01567  13669.98237   3837.79134  0.16201         2764.92798     16.12606    1e-05  58591.71883   3.93492  0.54312  341452.05225   46.1671  18.62117  58629.34911    51.22666       44.79643    13.3879  22.78086   24.0    0.59072  -21.49985  0.98219 
   -8.51248  0.01912  1.21349     14.47025  1.51028  0.56621  2.64336  0.24064      0.0257  12259.71885   7432.95407  0.20907         5833.17107     20.22933   0.0942  58594.95198   2.36998  0.05054   23683.71091  47.90538  18.61148  58627.56931    51.33337         44.935    9.57192  22.23412   22.0    0.59737  -21.64609  0.99958 
   -10.9301   0.0152  1.00909     14.29035  1.70078  1.21184  3.69726  0.16141     0.01703  10578.97245   9903.26463  0.05441         3287.77021     18.09956   0.0007  58592.53436   2.46828  0.05618   42231.08806    47.866  18.57854  58629.34911    51.01077        44.5062   15.11018  26.96608   20.0    0.51066  -21.28017  0.99977 
   -2.78633  0.00185  0.80382     14.74264  2.03286  0.85341  3.54159  0.28043     0.08809  17496.84602   7009.28342   1.3505         2269.69591     19.28415  0.01069  58600.67814   6.46763  0.00656    3989.84587  49.16568  18.56271  58627.56931    51.04524        44.6255    9.56279  24.05544   23.0    0.50366  -22.37413      1.0 
