 texplosion  fnickel    Pspin  log(Bfield)      Mns  thetaPB  mejecta    kappa  kappagamma      vejecta  temperature    alpha  cutoff_wavelength  log(nhhost)      A_V         MJD0  kenergy  mnickel            TSD   log(L0)  Peak_mag     Peak_MJD  log(E_rad)  log(Peak_lum)  Rise_Time    E_fold  tau_1  delta_m15     r_peak     frac 
   -3.55922  0.00586   8.0327     14.44221  1.75761  0.69851  3.82938  0.02796     0.01816   8493.95784   4795.18356  1.85005         5589.44893     18.92619  0.00469  57861.94078  1.64807  0.02245  1374148.58659  44.56601  17.73455  57882.62037    50.50577       44.00933   14.45143  26.49429   32.0    0.56059  -21.07856   0.9924 
   -6.11989  0.01445  6.66371     14.68776  1.64052  0.34617  2.74998  0.08043     0.05249   9165.97381   4517.36489  1.48682         5540.35699      20.4792  0.16747  57859.38011  1.37821  0.03973   284907.86898  45.38169  17.83246  57885.34205     50.4838        43.9074   19.26857  29.78729   32.5    0.52005  -21.12785  0.98983 
   -4.26484  0.00344   7.6096      14.7603  1.77383  0.33052  3.24856  0.03949      0.0265   8730.97699   4673.71832   1.5769          5670.5301     19.91655  0.04584  57861.23516  1.47722  0.01117   287640.46708  45.29618  17.74408     57884.47     50.5797       44.08116   14.45143  23.42595   32.0    0.57924  -21.09992  0.99665 
   -4.46463  0.03403  7.35942     14.65029  1.62778  0.39855  3.55492  0.05224     0.03174   9275.45713   4669.93967  2.25691         5057.19634     20.25915   0.1009  57861.03537  1.82443  0.12097   409752.19314  45.13423  17.79298  57885.34205    50.48186       43.91418   19.26857  28.84923   30.0    0.59299  -21.13908  0.96278 
   -6.02912  0.00936  8.26786     14.57902  1.90243   0.5995   5.0113  0.05068     0.02931   9344.40021   4126.88982  1.69593         5609.72571     19.97578  0.05254  57859.47088  2.61024   0.0469   839227.04598  44.78949  17.78519  57885.34205    50.55413       44.00895      16.86  26.49429   31.5    0.50826  -21.02624  0.98523 
   -5.93215  0.00109  8.40371     14.42572  1.85257  0.83248  3.71127  0.05058     0.01763   7300.15651     4943.151  1.98886          5862.7799     18.43382  0.00151  57859.56785  1.17981  0.00404  1710356.12695  44.45459  17.78945  57882.62037    50.47668       43.92841      16.86    30.364   32.0    0.49674  -21.00029  0.99861 
    -7.9214  0.01521  7.79812      14.4287  1.75294  0.76555  3.18009  0.08355      0.0299   7916.48208   4034.49204    1.839         5670.03098     19.94982  0.04949   57857.5786  1.18886  0.04836  1374571.51992  44.59047   17.8038     57884.47    50.55262       44.03242   14.45143  24.08572   32.5    0.46102  -20.95639  0.98468 
   -4.86423   0.0269  8.29559     14.67791  1.96043  0.53129  3.70151  0.04791     0.02626   8600.82791   4572.79338  1.65708          5805.9229     18.29882  0.00111  57860.63577  1.63338  0.09957   552118.44721  44.98147  17.82237  57885.34205    50.48377       43.92003   19.26857  28.84923   30.0    0.57744  -21.11103   0.9704 
   -5.65696  0.01254  8.71822     14.63843  1.93694   0.3867  1.03261  0.12858     0.07884   9360.20791   4427.77102  1.80528          5543.3556     18.17604  0.00083  57859.84304  0.53968  0.01295   722664.38889  44.81617   17.8116  57882.62037    50.47823       43.92792   14.45143    30.364   34.5    0.46651  -20.94763  0.99545 
   -4.85166  0.06387  7.47204     14.33004  1.66937  0.96348  3.32973  0.05178     0.03119    9981.2719   4467.27927  1.21793         5643.31486     18.52113  0.00184  57860.64834  1.97883  0.21266  1893079.35631  44.46735  17.73129     57884.47     50.5275       44.00633      16.86  26.49429   31.5    0.56446  -20.97874  0.93674 
   -6.73891  0.00346   8.0949     14.49079  1.80208  0.57782  6.21564   0.0365     0.01447   9201.36373   4605.71563  2.18247          5199.0894     19.22903  0.00941  57858.76109  3.13919  0.02148  1144033.23283  44.64976  17.93764  57885.34205    50.48485       43.89634   19.26857  31.31143   32.0    0.48638  -21.00283  0.99284 
    -3.8348  0.04498  9.77992     14.53494  2.09514  0.68366  0.61986  0.13801     0.09064   7568.61147    4858.4217  2.31977         5611.81436     17.61335  0.00023   57861.6652  0.21181  0.02788  1584269.62585  44.40956  17.80091     57884.47    50.51961       43.94822   19.26857  27.23861   33.5    0.54991  -21.05222  0.98919 
   -5.80963  0.08852  7.50804     14.12297  1.74048  1.48976  2.95509  0.04563     0.02004   9522.59835   4729.56796   1.4849         5771.09596     20.14399   0.0774  57859.69037  1.59849   0.2616  5171306.60359  44.04486  17.69804  57885.34205    50.48238        43.9351   19.26857  27.23861   33.0    0.46664  -21.05341  0.92566 
   -5.67908  0.00805  8.20025     14.21381  1.80029  1.46174  2.93349   0.0534     0.02428   8834.80425   4720.28099  1.91879         5577.79696     18.65941  0.00254  57859.82092  1.36586  0.02361  4199367.06443  44.07335  17.77284  57885.34205     50.5277         43.997      16.86  25.29171   32.0    0.51072  -21.01668   0.9919 
   -4.64728  0.18232  8.52947     14.80686  1.73579    0.291  1.97279  0.10641     0.10168  11253.40171   3920.62074  2.04512         4940.91829     17.42391  0.00015  57860.85272  1.49031  0.35967   285387.00446  45.19106  17.86599     57884.47    50.47644       43.89507   19.26857  30.62799   32.5    0.57204  -20.98867   0.8763 
   -4.54808  0.04195  7.71733     14.32377  1.77323   1.4831  3.14099  0.07157     0.04049   9684.45811    4573.4461  1.53052         5594.51422     18.14576  0.00078  57860.95192  1.75729  0.13177  2207926.19855  44.39869  17.88798     57884.47    50.46582       43.88819      16.86  32.19586   30.0    0.56518    -21.059  0.96098 
   -8.52376  0.02355  9.07445     14.53216  2.04916  0.77236  2.77126  0.11529     0.03678   7804.68886   4195.97121   1.9883         5685.21584     16.09231    1e-05  57856.97624  1.00697  0.06526   1351169.3765  44.53407  17.91596     57884.47    50.45389       43.86008   19.26857  31.31143   33.0    0.42957  -20.88495  0.97798 
     -5.302  0.10736  8.37583     14.45591  1.76292  0.85256  3.79065  0.06394     0.03384   9242.22631   4345.77216  1.71852          5466.8987     17.40659  0.00014    57860.198  1.93149  0.40695  1406983.21355  44.52073  17.82774  57882.62037     50.5243        44.0333   12.04286  26.73717   31.5    0.53958  -20.96387  0.87008 
   -3.26277  0.16273  6.78956     14.28663   1.5797  1.37154  1.64283  0.14075     0.43864   12315.3046   3288.53389  1.26473         5040.64432     19.72732  0.02965  57862.23723  1.48631  0.26734  1806376.24088  44.54693  17.83788  57885.34205    50.50596       43.94685   19.26857  27.23861   29.0     0.6522  -21.09834  0.92976 
   -4.64728  0.00186  6.62956     14.37896  1.41949  0.56736  1.87745  0.09235     0.05382   9967.81992   4749.99747  1.63247         5253.48909     17.42766  0.00015  57860.85272  1.11275   0.0035  1011555.69972  44.77302  17.86311  57882.62037    50.47095       43.91834      16.86   31.2578   31.0    0.54695  -21.01377  0.99888 
   -7.93335  0.00983  7.53351     14.17173  1.69562  1.09665  2.75027  0.06814     0.01129   6811.94231   5098.82013  2.28022         5606.49409     19.53571  0.01907  57857.56665  0.76128  0.02703  4052037.19006  44.13651  17.87254  57885.34205    50.48331        43.9026   21.67715  29.78729   30.5    0.44873  -21.00176  0.99139 
   -6.50618  0.00303  7.55194     14.45235  1.90785  1.03216  3.69696  0.07746     0.01857    7353.8442   5211.61385  1.87182         5934.51768      19.8538  0.03968  57858.99382  1.19262  0.01121  1258290.88987  44.69349  17.75543     57884.47    50.56662       44.07411   14.45143   24.3286   29.0    0.48398  -21.10025  0.99706 
   -5.13668  0.01061  8.58572     14.44194  1.84879  0.71897  3.72278  0.05061     0.02877   9062.13828   4202.47501  2.22521          5203.0947     19.53666  0.01912  57860.36332  1.82371   0.0395  1653393.37172   44.4498  17.85724     57884.47    50.48769        43.9253      16.86   31.2578   33.5    0.52217  -20.97422  0.98586 
   -4.94884  0.00774  8.85913     14.49074  1.90734  0.67793  4.11034  0.03802     0.02519   9059.12824   4030.86197  1.87788         5354.04671     17.52236  0.00018  57860.55116  2.01223  0.03183  1450591.15483  44.49295  17.75248     57884.47    50.48887       43.90091   19.26857  30.62799   33.5    0.51914   -20.9314  0.98841 
    -5.2025  0.01061  8.89972     14.30281  1.96345  1.49717  1.90084  0.07593     0.05893   9090.65098   3827.89656  1.66284         5539.12618     16.42974    1e-05   57860.2975  0.93705  0.02016  3580729.65624  44.10914  17.81757  57888.06374    50.47205       43.88444   20.90542  28.99115   35.0    0.51448  -20.94027  0.99287 
   -5.12342  0.04559  7.52412     14.30668   1.7456  1.56969  3.10259  0.06229     0.02937   8622.83893   4625.62103  1.52166         5853.31668     19.11387  0.00722  57860.37658  1.37611  0.14145  2235183.55669  44.40857  17.71838     57884.47    50.48129       43.93313   19.26857  27.23861   30.0      0.553  -21.07014  0.95931 
   -7.25518  0.00299  7.72508     14.20535  1.68891  1.39298  5.03132  0.04902     0.01308   8040.07322   4844.99804  1.88729         5694.66131     16.09232    1e-05  57858.24482  1.94012  0.01505  3635246.56334  44.16011  17.80984  57885.34205    50.48418       43.92465   19.26857  28.84923   31.0    0.45046  -20.94594  0.99497 
   -4.16909  0.29937  8.94183     14.37617  1.78642  0.98826  2.00516  0.08223     0.04038   9185.01358   4514.07995   2.3685         5271.52138     18.61206  0.00227  57861.33091   1.0091  0.60028  2345943.83937  44.24766  17.80312     57884.47    50.48955       43.95374      16.86  28.90286   31.0     0.5686  -21.10388  0.80136 
   -5.86832  0.00127  7.80837     14.54022  1.73256    0.702  5.04956  0.04691     0.01318   5814.12156   4482.36146  2.58657         5881.29768     18.46845  0.00163  57859.63168  1.01824  0.00642   815061.12063  44.81122  17.85877  57885.34205    50.48074       43.86499   21.67715  33.72001   30.0    0.45249  -21.05855  0.99791 
   -4.09573  0.45849  8.01639     14.44759  1.56921   0.8728  2.88031  0.07327     0.04038   10360.7322   4238.41362  1.65926          5402.9464     20.19649  0.08734  57861.40427  1.84437  1.32058  1192011.25444  44.58029  17.88309     57884.47    50.47286       43.90574   19.26857  28.90286   31.5    0.57799  -21.13318  0.65527 
   -5.50144  0.00396  7.92863     14.30207  1.84273  1.23953  3.54497   0.0627     0.03161   9620.19269   4527.45582  1.65797         5454.38626     20.12033  0.07329  57859.99856  1.95707  0.01402  2676339.84112  44.30837  17.77568  57882.62037    50.48793       43.96631      16.86  27.70028   31.5    0.51759  -21.04159  0.99568 
   -4.50611  0.00475  5.50814     14.00356  1.22757  1.43843  1.86667  0.10092      0.0675  10146.89855   4494.61783  1.96153         5126.07848     20.51238  0.18076  57860.99389  1.14646  0.00887  3402058.20708  44.34414  17.72293     57884.47    50.53238       44.02588   14.45143   24.3286   31.0    0.56654  -21.23006  0.99758 
   -2.57457  0.41041  8.26915     14.37205   1.5479  0.98923   2.4284  0.04154     0.02081   8117.70534   4809.56732  2.16487         5519.28438     16.96419    5e-05  57862.92543  0.95458  0.99665  1771617.30407   44.3753  17.78714  57885.34205    50.49796       43.94958   19.26857  27.23861   29.5    0.66979  -21.21851  0.69791 
   -5.46403  0.00293  8.30891     14.30567   1.7705  1.19241  1.98092  0.08133     0.03834   7418.20745   4425.93158  2.80582          5306.3525     17.52012  0.00018  57860.03597  0.65027   0.0058  2777574.22171  44.23419  17.74905     57884.47     50.5073       43.97128      16.86  26.49429   31.0    0.53304  -21.10675  0.99791 
   -7.70243  0.00206  7.17002     14.21139  1.60278  1.49307  2.35663  0.14807     0.04812   8980.13961   4519.87625  1.59006         5861.68904     18.80535  0.00355  57857.79757  1.13366  0.00486  2890335.46713  44.30173  17.79063  57885.34205    50.52657       43.96638   19.26857  27.95543   31.0    0.44508  -20.94301  0.99849 
     -5.501  0.02469  7.52862      14.2525  1.62679  1.27997   4.1541  0.06121     0.05346  10469.49161   3825.06937  1.78168         4973.36279     18.11514  0.00072    57859.999  2.71616  0.10256  2676625.89865  44.29916   17.7581  57888.06374     50.4706       43.89872   20.90542  28.99115   32.0    0.55218  -20.95487  0.96676 
   -4.79372  0.00714  6.96621     14.29775  1.53899  0.86043  4.09336   0.0576     0.03176  10612.19718   4584.96775   1.4817         5458.89197     16.61135    2e-05  57860.70628   2.7499  0.02924  1760157.21714  44.52454  17.85649     57884.47    50.50237       43.97347      16.86  27.70028   30.0    0.56264  -21.03279  0.99096 
   -5.45603  0.01015  6.57356     14.76257  1.67021  0.30638  4.87536  0.04992     0.03507    9935.3596   4406.46732  1.45571         5192.90436     20.53787  0.19169  57860.04397  2.87079  0.04946   200009.38986  45.55497  17.69702     57884.47    50.49604       43.97149   19.26857  25.29171   31.5    0.54256  -21.13135  0.98805 
   -5.00491  0.07119  7.46662     14.18491  1.60172  1.12964  2.06587  0.06242     0.02799   8675.35123   4847.08696  1.92466         5806.10609      17.3682  0.00013  57860.49509  0.92748  0.14706  3538617.07023  44.17835  17.77881  57882.62037     50.4846       43.94123   14.45143  28.90286   31.0    0.52209   -21.1262  0.95223 
   -4.99096  0.00105  7.08448     14.20428   1.6076  0.76412   1.0176  0.07097     0.02492   6941.63287   5170.42026  1.90763         5970.13643     19.19326  0.00867  57860.50904   0.2925  0.00107  2924505.45289  44.30835  17.81368  57882.62037    50.46203        43.9112      16.86  29.64718   33.0    0.44998  -21.04497  0.99967 
   -4.48551  0.44082  8.13725     14.49088  1.70065  1.38453  3.19465  0.09864      0.0554  10553.19537   3769.39751  1.98428         4994.93302     20.13212  0.07531  57861.01449  2.12236  1.40828  1090474.04106  44.64089  17.66836  57882.62037    50.50906       43.97564   14.45143  26.49429   30.5    0.57201  -21.08311  0.66279 
   -5.71668  0.05283  8.62129     14.25255  1.84377  1.25005  3.78759  0.05504     0.02398   9740.85621    4609.0866   2.4047         5048.68083     19.81988   0.0367  57859.78332   2.1438   0.2001  3977117.89352  44.06384  17.89127  57885.34205    50.46393       43.87775   20.90542  29.67459   32.0     0.4918  -20.98651  0.93118 
   -3.69473  0.05132  6.28641     14.24546  1.26955  0.88491  4.44961  0.03393     0.01709   7416.94788   4645.08541  2.18451         5519.76211     18.99727  0.00552  57861.80527  1.46016  0.22835  1504319.55788  44.59835  17.88137  57885.34205    50.49332       43.92852   19.26857  29.78729   29.5    0.61117   -21.1429  0.92849 
   -4.49939  0.00255  8.78778     14.46761  2.05523  0.89432  1.58785  0.08443     0.05993   8901.72679   4702.49012  1.60862         5639.13358     19.82276  0.03694  57861.00061  0.75056  0.00404  1710882.23851  44.46073  17.83895  57885.34205    50.46376       43.90759   19.26857  28.84923   32.5    0.56225  -21.04639   0.9987 
   -5.69974  0.02014  7.80064     14.17843  1.63551  1.38927  2.15551  0.05878     0.04052   8468.43767   4426.26099  1.91807         5613.31667     18.66898  0.00259  57859.80026  0.92211  0.04342  4063186.08746  44.08937  17.70935  57885.34205    50.49784       43.92766   19.26857  28.84923   35.0    0.51541  -21.00881  0.98459 
   -7.20705  0.13948  8.75161     14.30965  2.06016  0.86991  1.90652  0.10659      0.0382  10344.58822    4315.2106  1.70815         5060.14979     17.44615  0.00016  57858.29295  1.21701  0.26592  3520351.81213  44.15198  17.77536     57884.47    50.54227       43.98249      16.86  27.70028   32.5    0.46369  -20.89538  0.91993 
   -7.71978  0.13857  8.29146     14.41022  1.86937  1.42779  3.62169  0.10304     0.01805   7602.36085   4798.12507  1.81743         5778.52435     18.52531  0.00186  57857.78022  1.24864  0.50185  1804398.92505  44.44695  17.82918  57888.06374    50.46507       43.89473   20.90542  28.15044   30.5    0.41055  -20.90027  0.85876 
   -5.75553  0.01601  6.71011     14.11771  1.38449  1.27547  5.43571  0.04233      0.0143   8504.79386   4663.35989  2.52398          5174.5708     19.12642  0.00743  57859.74447  2.34537  0.08703  3366169.09827  44.22954  17.68648  57885.34205    50.58507       44.04722   14.45143   24.3286   30.5    0.49095   -21.0554  0.97122 
   -5.17956  0.00119  8.51866       14.592  1.92623  0.55159  2.39859  0.08305     0.04616   9316.54348   4490.87169  1.83442         5665.33396     16.21353    1e-05  57860.32044  1.24192  0.00286   849681.41396  44.76355  17.86993  57888.06374    50.46493       43.88108   20.90542  28.15044   31.0    0.53216   -21.0686  0.99905 
   -8.24455  0.22192  7.78448     14.22204   1.4308  1.23669  5.41361  0.07104     0.01195   9054.72834   4554.95976  2.01727         5270.52833     18.63759  0.00241  57857.25545  2.64768  1.20141  2895847.07987  44.18019  18.04325  57888.06374    50.42197       43.81204   20.90542  32.08316   30.5    0.43199  -20.89817  0.65677 
   -4.90079  0.00195  8.19356      14.3439  1.92635  1.18887  0.91438  0.21603     0.13432  10075.17697   4643.61835  1.73978         5281.19996     19.94414  0.04885  57860.59921  0.55368  0.00178  2464274.50083  44.33495  17.84551     57884.47    50.52046       43.98023      16.86  27.70028   31.5    0.56865  -21.07808  0.99945 
   -8.37189  0.02009  8.02911     14.93702  1.77175  0.17934  1.87557  0.11436     0.02941   7656.70495   4711.22177  1.80339         5795.92216     18.18784  0.00086  57857.12811  0.65591  0.03768   141748.64545  45.55639  17.79783  57885.34205    50.48401       43.92103   19.26857  28.90286   32.5    0.43507  -20.89879  0.98735 
   -4.41735  0.03851  8.36565     14.37311  1.80752  0.94708  2.32293   0.0966     0.10466  11277.21676   3610.15116   2.3066         4810.11962     18.61245  0.00228  57861.08265  1.76225  0.08946  2107035.78882  44.35726  17.86403  57885.34205    50.47475       43.88769   19.26857  30.62799   31.5    0.59874  -21.03508  0.96925 
   -5.21419  0.04622  7.39326     14.43025  1.81126   1.4934  2.89798  0.12449     0.13422   8535.15554    3615.8328  1.90649          5388.0296     16.41224    1e-05  57860.28581  1.25935  0.13395  1267573.88069  44.68618  17.81819  57882.62037    50.50892       43.96161      16.86  29.64718   29.0    0.48686  -20.99039  0.96487 
   -5.53824  0.00913  7.70059     14.35456  1.79202  1.04735  2.42833  0.10086     0.11484  11198.41613   3967.11378  1.05333         5452.72927     19.10236  0.00703  57859.96176  1.81655  0.02217  1927889.40462  44.46406  17.82276  57885.34205    50.46345       43.88796   20.90542  28.15044   32.5    0.55503  -20.93342  0.99333 
   -6.72715   0.0075  8.07695     14.36461  1.84833  0.89546  1.51219  0.14551     0.06765   9691.68768   4499.43071  1.50412         5586.63416     18.08138  0.00067  57858.77285  0.84729  0.01134  2088693.37627  44.40125  17.79925     57884.47    50.52002       43.97339      16.86  29.64718   31.5    0.50123  -20.97522  0.99638 
   -4.57388  0.01299  8.04699     14.32402  1.78836  1.06912  0.84251  0.14297     0.09582   8431.11159   4644.95653  2.03785         5382.02562     19.26259  0.01017  57860.92612  0.35725  0.01095  2418227.09973  44.32654  17.83825  57885.34205    50.48969       43.91572   19.26857  28.84923   32.0    0.57268  -21.10417  0.99637 
   -8.73954  0.00413  7.62421     14.50745  1.80418  0.58657  3.92882  0.07425     0.01638    7700.2007   4940.48271  1.93855         5646.37827     20.20516   0.0891  57856.76046  1.38961  0.01624   940978.81426  44.78716  17.85885     57884.47    50.52945       43.98711      16.86  28.90286   31.0    0.42832   -21.0072  0.99523 
   -8.52672  0.00333  7.78262     14.43043  1.78502  0.76848  3.78322  0.08434      0.0166   7706.46459   4990.50292  2.16237         5571.56818     19.86363  0.04058  57856.97328  1.34029   0.0126  1383095.81457  44.59738  17.89745  57888.06374    50.48369       43.85671   20.90542  29.67459   30.0    0.42871  -20.98324  0.99609 
   -3.96313  0.31878  9.62679     14.58898  1.97727  1.13517  3.41655  0.07032     0.04068   9584.69625   3481.34535  1.66406          5390.5387     18.77978  0.00335  57861.53687  1.87228  1.08914  1129487.74826  44.54507  17.82356     57884.47    50.49412       43.95108   19.26857  26.49429   31.0    0.58634  -20.98601  0.69413 
   -3.92541  0.05011  6.50129     14.34831  1.38848  0.73902  3.63515  0.05191      0.0501  10363.55939   4376.03634  1.25878         5906.80328      18.4057  0.00141  57861.57459  2.32899  0.18217  1095785.56964  44.74566  17.80347  57885.34205    50.48032       43.89211   21.67715  29.78729   30.0    0.62478  -21.04939  0.94567 
   -3.38156  0.00313  7.70058     14.35174  1.72564  0.78848   1.0068  0.08337     0.05463   7646.12473   4764.81892  1.88158          5827.0482     20.06493  0.06451  57862.11844  0.35112  0.00315  1880801.28429  44.45841  17.86386  57885.34205     50.4793        43.9017   19.26857  29.78729   34.0    0.53372  -21.13119  0.99898 
    -8.3025  0.02531  7.48387     14.18264  1.67873  1.27921  2.59775  0.07708     0.02291   7492.08433   4805.36711  1.87353         5672.66449     20.21805  0.09179   57857.1975  0.86982  0.06574   3765033.7215   44.1698  17.82754     57884.47    50.50769       43.96608      16.86  29.64718   33.5     0.4451  -20.97719  0.97945 
   -5.85056  0.00787   7.3064     14.44537  1.63163  0.50218  1.74514  0.09796     0.04982   9972.36871   4570.56685  1.44777          5531.0578     19.74514  0.03089  57859.64944  1.03527  0.01374  1040162.38717  44.73696  17.84151  57885.34205    50.48482       43.87419   20.90542  29.67459   33.0    0.47853   -20.9692  0.99565 
   -5.31761  0.00257  8.06821     14.23227  1.82077  1.20645  1.29222   0.1232     0.07741  10303.09465   4500.19048  1.40908         5727.16509     19.15363  0.00791  57860.18239  0.81827  0.00332  3776451.45238  44.13846   17.8086     57884.47    50.54778       43.98794      16.86   31.2578   33.0    0.50097  -20.97692  0.99891 
   -4.99202   0.0503   7.2626     14.21983  1.54848  0.81853  1.87885  0.08169     0.03835   9583.80101   4609.29833  1.99027         5538.37716     19.07123  0.00655  57860.50798  1.02943   0.0945  2755748.23667  44.29633  18.01268  57888.06374    50.47393       43.86341   23.31399  31.23009   31.5     0.5119  -21.07421  0.96874 
   -4.57889  0.05968  6.44191     14.46205  1.48574  0.51109  5.00519  0.02748     0.01147   7071.89664   4612.53589  2.00302         5736.37565     20.67087  0.26038  57860.92111   1.4932  0.29869   681845.24174  44.98907   17.8724  57885.34205    50.50202        43.9457   19.26857  27.95543   32.0    0.54209  -21.27219  0.92261 
   -6.14302   0.0014  7.33172     14.26885  1.63621  0.86599  1.56939  0.11448     0.05381   9516.40301    4684.1748  1.47243         5715.07931     16.25288    1e-05  57859.35698  0.84782  0.00219  2367877.86614  44.37791  17.65832  57882.62037    50.52979       44.04784   14.45143  23.42595   32.5    0.50911  -20.99087   0.9993 
   -5.83163  0.00101  8.53532     14.21548  1.87152  1.54106  1.59368   0.0738     0.02053   6422.90118    4958.5921  2.39728         5534.88626     18.21976  0.00092  57859.66837  0.39218  0.00161  4693462.72978  44.00711  17.80672  57885.34205    50.46739       43.88255   20.90542  29.67459   32.5    0.47515   -20.9868  0.99943 
   -5.80375  0.02065  8.10195      14.2625  1.81322  1.01802  1.58782  0.06574     0.02148   6699.69496   5291.66019  2.06135         5959.90673      16.4057    1e-05  57859.69625  0.42515  0.03279  3299484.29246  44.19167  17.88103     57884.47    50.49025       43.90865   19.26857  30.62799   33.0    0.48443  -21.06339  0.98914 
   -5.84477  0.01147  7.79932     14.74248  1.76402  0.36093  3.05406  0.09024     0.04736   9581.27705   4377.30866   1.7504         5362.80945     19.41121  0.01432  57859.65523  1.67245  0.03503   326194.33558  45.21776   17.8923  57885.34205      50.488       43.92412   19.26857  27.23861   30.5    0.51643   -20.9938  0.98898 
   -6.40786  0.03045  6.49029      14.1075  1.40167  1.11355  4.63179  0.03161     0.01601   8252.56907   4631.29536  1.56965         5865.07669     20.33519   0.1202  57859.09214  1.88172  0.14103  3341822.34212  44.26698  17.79776  57885.34205    50.50739       43.96199   19.26857  26.49429   35.0    0.47851  -21.03429  0.95762 
   -5.22143  0.05586  7.81011     14.53793  1.77981  0.68735  3.73672  0.07929     0.07033  10202.95198   3810.71171  1.27712         5711.90686       17.037    6e-05  57860.27857  2.32043  0.20872   846516.36619  44.80627  17.88041     57884.47    50.47061       43.89864      16.86  32.19586   31.0    0.53072  -20.96341  0.93857 
   -5.99739  0.09989  7.67617     14.16607  1.55384  1.45197  3.40143  0.06717     0.04039  10829.60146   4141.53534   1.8282         4765.17745     17.37662  0.00013  57859.50261  2.37965  0.33979  3957046.82737  44.09259  17.90946  57885.34205    50.44915       43.82923   23.31399  33.49558   33.5    0.52058  -20.88286  0.88665 
   -6.26249  0.02525  6.52496     14.53776  1.63846  0.31267  2.95787  0.03174      0.0119   7103.05208   4907.18719   1.9817         5761.43522      20.7838   0.3377  57859.23751  0.89022  0.07469   544366.00937  45.11823  17.95383  57882.62037    50.60295       44.05218      16.86  29.64718   35.5     0.4313  -21.23724  0.98134 
   -7.38108  0.00617  7.84354     14.51719  1.66253  0.44305  2.13558  0.13116     0.05446  10036.30531   4497.00778  2.55861         4891.11205     19.73542  0.03021  57858.11892  1.28319  0.01318    877469.3168  44.75736  17.89339  57885.34205    50.49012       43.90927   19.26857  29.78729   32.5    0.45738  -20.90514  0.99531 
   -5.67053  0.04678  7.65083     14.36377   1.6395  0.98412  3.78505  0.06732     0.02155   7671.10558   4637.94681  2.17278          5582.6182      16.8236    4e-05  57859.82947  1.32866  0.17705  1668824.71366  44.49373  17.86357  57885.34205    50.45053       43.86876   23.31399  28.99115   30.0    0.49672  -21.02042  0.94307 
   -4.72034  0.01823    8.605     14.22412  1.87639  1.21483  2.60016  0.03729     0.02117   8209.71426   4696.63869  1.96957         5586.08883     17.90811  0.00045  57860.77966   1.0454  0.04741  4596157.22315  44.01027  17.83825  57885.34205    50.50971       43.95376   19.26857  27.95543   35.5    0.47222  -20.96102  0.98318 
   -7.50223  0.01843  7.72548     14.21535  1.70523  1.42572  3.19215  0.07348      0.0261   8731.31604   4546.71248   1.7416         5610.40986     18.49218  0.00173  57857.99777  1.45168  0.05883  3505497.76778  44.18003  17.82076  57885.34205    50.47161       43.89025   19.26857  31.31143   32.0    0.48525  -20.96619  0.98091 
   -3.91816  0.00112  7.23646     14.23741  1.69941  1.54049  1.46545  0.10612     0.08301  10347.66289   4576.83488  1.43663         5361.94757     20.12424  0.07395  57861.58184  0.93601  0.00165  2769155.50095  44.33774  17.85623     57884.47    50.47304        43.9105   19.26857  28.84923   31.5     0.5913  -21.09216  0.99952 
    -6.3404  0.00629  7.47043     14.19565  1.61389  1.09376  1.66988  0.09717     0.04404   8642.30431   4576.76208   1.7522         5519.53631     17.81087  0.00036   57859.1596    0.744   0.0105  3396934.08137  44.19894  17.87257     57884.47    50.49515       43.93929      16.86  29.64718   33.5    0.49055  -20.95621  0.99647 
    -4.7619  0.13269  7.72739     14.17943  1.49618  1.43702  2.65659   0.0813     0.07321   10632.8879   3741.60683  2.72619         4747.21187     17.46245  0.00016   57860.7381  1.79165   0.3525  3630882.13938  44.10775   17.7917     57884.47     50.5339       44.01543      16.86  26.49429   32.0    0.57736  -21.01249  0.87577 
   -6.80051  0.00314  7.74608     14.89052  1.79321  0.28473  1.55834  0.20275     0.06643   7913.01051   4844.84741  2.14363         5522.82779     17.39465  0.00014  57858.69949  0.58207  0.00489   165414.04693  45.52574  17.91903  57888.06374    50.45717       43.86569   20.90542  29.67459   30.5    0.47364  -21.01142  0.99851 
    -5.1586  0.00939  7.44622     14.67851  1.58448  0.36539  6.44599  0.02972     0.01376   8051.34561   4737.73058  2.29743         5352.90569     19.21479  0.00911   57860.3414  2.49261  0.06053   358557.93384   45.1703  17.67355     57884.47    50.48503       43.93706      16.86  27.95543   30.0    0.55469  -21.07337  0.97979 
   -5.40105  0.03632  7.88082     14.27137  1.69698  1.13018  1.61907  0.12482     0.06628    9471.8989    4527.0216  1.92868         5127.06645     17.72248  0.00029  57860.09895   0.8665  0.05881   2804723.5019  44.25749  17.87508  57888.06374     50.4405       43.85201   20.90542  29.67459   32.0    0.51934   -20.9576  0.98004 
   -4.84267  0.00862  9.30406     14.46154   2.1255  0.96709  1.62374  0.08671      0.0445   7995.51355    4616.3142  1.88888         5617.70366     17.17613    8e-05  57860.65733  0.61921  0.01399  2039536.01465  44.34943  17.74258     57884.47    50.56309        44.0283   14.45143  26.49429   32.5    0.53355  -21.02135   0.9952 
   -7.45268  0.25934  8.73148     14.62088  1.73795   0.3417  3.53365  0.06675     0.02459  10625.51022   4405.09894  2.04548         5095.75132     19.03937  0.00608  57858.04732  2.37985  0.91643   705116.74984  44.77845  17.83907  57885.34205    50.51934       43.96534   19.26857  27.95543   33.0    0.45007  -20.93683  0.72228 
    -6.4426   0.0021  7.76575     14.29933  1.67343  0.85577   2.2084  0.07486      0.0298   8119.56755   4567.31642  1.85231         5738.11647     18.76988  0.00327   57859.0574   0.8685  0.00463  2361192.92196  44.33895  17.70747     57884.47    50.58424       44.05681   14.45143  27.70028   33.0    0.47956  -20.98117   0.9984 
   -5.16861  0.00894  7.60572     14.12586  1.70514  1.55812  2.09946  0.03748     0.01148   6295.47905   5472.12523  2.19103         5858.01795      16.4192    1e-05  57860.33139  0.49635  0.01878  5130231.69839  44.02819  17.57247  57882.62037    50.51853       44.04915   14.45143  23.42595   32.5    0.49267  -21.10456  0.99394 
    -3.6702  0.03398  8.28823     14.51371  1.87963  0.72616  1.49657  0.10129     0.09993   9851.25028   4478.92733  1.63368         5336.57344       16.121    1e-05   57861.8298  0.86637  0.05085  1125613.18162  44.65461  17.67051     57884.47    50.46455       43.90258   19.26857  27.95543   31.5    0.62095  -21.04829  0.98366 
    -6.1559  0.05242  7.07202      14.3762  1.56141  0.73703  2.47532  0.08329     0.02353   7575.22512    4839.1514  1.89995         5639.67921     17.82463  0.00037   57859.3441  0.84732  0.12977   1282406.0184  44.65525  17.94914  57888.06374    50.47907       43.87477   23.31399  31.23009   30.5    0.49116  -21.04688  0.96082 
   -4.64908  0.08488  8.38388      14.4174  1.83015  0.94862  3.68918    0.056     0.03111  10027.58129   4467.52686  1.74087         5286.16437     18.83287  0.00378  57860.85092  2.21284  0.31314  1747386.75567  44.44205  17.75635     57884.47    50.51346       43.99224   14.45143  27.70028   30.5    0.57008  -21.03355   0.9017 
   -6.09006  0.17415  9.29188     14.53349  1.99313  0.85788  3.86996  0.05543     0.02136   8719.76771   4545.92992  1.67423         5548.02491     19.09946  0.00699  57859.40994  1.75527  0.67394  1369562.55041  44.49559  17.81547  57885.34205    50.51387       43.93701   19.26857  27.95543   32.0    0.51602  -20.98414   0.7979 
   -3.74573   0.2218  8.33005     14.27729   1.7717  1.22475  1.38085  0.05971     0.04438   8380.53283   4683.33166  1.65091         5817.35149     19.64233  0.02438  57861.75427  0.57852  0.30627  3183539.25458  44.17303  17.69096     57884.47    50.61421       44.09329   14.45143  23.42595   34.5     0.5289  -21.03979  0.89983 
   -7.27776  0.00477  7.40647     14.52446  1.53147   0.3705  1.93906  0.07691     0.02839   7403.63639   4502.86532  2.11919         5688.75857     18.44535  0.00155  57858.22224  0.63403  0.00925   696997.67844   44.8715  17.97717  57888.06374    50.45274       43.82228   23.31399  33.49558   34.5    0.46099  -20.94564  0.99667 
   -6.38617  0.04655   7.3639     14.23347  1.52815  1.08858  7.01325  0.03085     0.01004     8455.806   4757.18822  1.86262         5600.57575     16.47628    2e-05  57859.11383  2.99127  0.32646  2625723.31759  44.29955  17.84392  57885.34205    50.59958       44.05363      16.86  27.70028   31.0    0.50907  -21.01252  0.89661 
   -6.65736  0.00784  7.26668     14.48641  1.58443  0.55596  5.63634  0.04494      0.0169   8474.55805   4572.08839  1.95313         5438.01762     19.50013  0.01757  57858.84264  2.41467   0.0442   827054.10336  44.82851  17.76105  57882.62037    50.55339       44.06174   14.45143  24.08572   31.0    0.47689  -20.99241  0.98584 
   -3.39568  0.39739  7.07186     14.44441  1.46634  1.04866  3.52054  0.06287     0.03717  10619.91081   3851.73245   1.3101          5254.9088     19.53351  0.01898  57862.10432  2.36853  1.39903    879614.8789  44.79172  17.70992     57884.47    50.52557       43.99583      16.86  25.29171   30.5    0.64106  -21.03345  0.67722 
   -5.51684  0.01912   7.2478     14.22051  1.53989  1.45069  1.98312  0.12611     0.07263   9207.74507   4424.66022  2.14716          5031.5586     18.70451  0.00281  57859.98316  1.00296  0.03793  2720780.40242  44.30123  17.86618  57885.34205    50.50892        43.9339   19.26857  28.90286   30.5    0.53594  -20.97104  0.98739 
   -5.29506  0.08717  7.45329     14.35076  1.71097  1.14778  3.12104  0.07619     0.05791   9798.84204   4301.96339  1.53287         5464.27433     19.99065  0.05437  57860.20494  1.78762  0.27207  1754807.71649  44.51316  17.89494  57885.34205    50.46553       43.89486   19.26857  29.78729   31.0    0.56482  -21.06753  0.92387 
   -5.09353  0.03692  8.09859     14.32809  1.72584  0.81377  2.22601   0.0635     0.03495   9271.79884   4910.40188   1.9576         5562.84864     18.03638   0.0006  57860.40647  1.14152  0.08218  2319786.62255  44.32358  17.93943  57885.34205    50.48778       43.89015   21.67715  31.31143   32.5    0.53813   -21.0411  0.97131 
   -4.09555  0.00466  8.33653     14.51107  1.92003  0.76513  3.04899  0.05507     0.09571   10790.7394   3758.35525   1.3184         5190.79288     16.03663    1e-05  57861.40445   2.1178  0.01421  1177484.18641  44.63923  17.74117     57884.47    50.53048       44.01782      16.86  26.49429   33.0    0.61416  -20.95825  0.99547 
   -4.54771  0.22466   7.4481     14.44011  1.39204  0.42973  2.89991   0.0433     0.02067   8968.15724    4633.2891  1.98481         5378.50782     18.62941  0.00237  57860.95229  1.39129  0.65148   944802.29205  44.69307  17.88021     57884.47    50.47684        43.9043      16.86  32.19586   33.5    0.50622  -20.98018  0.78464 
   -6.26264  0.00554  7.83399     14.18092  1.63535  1.18744  1.59379  0.09454     0.05192   8645.20998   4519.27534  1.91881         5604.76225     17.92184  0.00046  57859.23736  0.71057  0.00884  4050936.14498  44.08693  17.83534     57884.47    50.53945       44.03049      16.86  26.49429   34.0    0.49682  -20.95239  0.99679 
   -5.15402  0.28889  7.69503     14.81391  1.68205  0.31049  1.50813  0.11999     0.05146   8459.14528   4721.25938  1.75564         5883.31136     17.03926    6e-05  57860.34598  0.64375  0.43568    217894.5815  45.38402  17.78566  57885.34205    50.47885       43.89727   19.26857  30.62799   30.0    0.57767  -21.14273  0.87372 
   -6.32592   0.0062  7.64724       14.155   1.6587  1.21506  2.35515  0.08291     0.04641  10298.55232   4355.64821  1.44873         5490.67014     16.70515    3e-05  57859.17408  1.49004   0.0146  4411525.91024  44.07701  17.77992  57882.62037    50.45415       43.92482   14.45143  28.90286   34.0    0.46144  -20.88636  0.99504 
   -5.24286  0.00493  7.98643     14.38682   1.7622  0.87917  2.20434  0.10301     0.12324   10854.3741   3564.69339  1.78894         4921.45723     16.44538    2e-05  57860.25714  1.54923  0.01086  1757697.53406  44.46525  17.87536     57884.47    50.53732       43.99594      16.86  28.90286   32.0    0.55432  -20.96597  0.99637 
   -4.84309  0.00133  7.77449     14.38229  1.74329  1.00794  1.94661  0.12335      0.0567    8783.1261   4715.03375  2.23906         5283.57748       17.365  0.00013  57860.65691  0.89579  0.00259   1682475.3215  44.50292  17.81773     57884.47    50.47707       43.91824   19.26857  28.84923   29.0    0.54399  -21.08048  0.99917 
   -4.01725   0.0831  8.78743     14.62011  2.04752  0.68581  2.26282  0.08527     0.05833   9035.20236     4154.561  1.60676         5775.62843     16.90145    4e-05  57861.48275  1.10193  0.18805    844411.0899   44.7658  17.78125     57884.47    50.50043       43.92308      16.86  28.90286   30.5    0.57314  -21.07604  0.94289 
   -6.24693  0.30906  8.89783     14.37926  1.75411   0.7515  2.51493  0.06992     0.02557   9040.01867   4518.69404  1.90145         5371.72615     19.07997  0.00668  57859.25307    1.226  0.77727  2248698.49693   44.2624  17.76121  57885.34205    50.52367       43.99633      16.86  25.29171   33.0    0.47026  -20.93881   0.7517 
   -5.43135  0.31759  6.95417     14.46047  1.37654  0.49484  2.15267  0.12275      0.0709  11894.07365   4179.00358  1.39148         5208.66357     16.24682    1e-05  57860.06865  1.81662  0.68367   741560.73156    44.853   17.8467  57885.34205    50.49294       43.92254   19.26857  28.84923   31.5    0.53626  -21.00039  0.79906 
   -5.61484  0.03675  7.44403     14.30465  1.66664  1.55382  4.14656  0.08074     0.02508   8956.46348   4751.01115  2.20257         5307.04894     17.28447  0.00011  57859.88516  1.98421  0.15238  2108457.75774  44.42311  17.84022  57885.34205    50.53858       43.98066      16.86  27.70028   28.5    0.48994  -21.03934  0.95431 
   -5.28457  0.12792  8.37049     14.44501  1.82491   0.7595  3.01591  0.05071     0.01733   8103.72006   4935.95654  1.61173         5851.95316     18.60976  0.00226  57860.21543  1.18145   0.3858  1529496.52028  44.50004   17.7766  57885.34205    50.51436       43.97477   19.26857  27.23861   31.0    0.51486  -21.00647  0.88098 
    -4.6659  0.34164  8.83765     14.43916  1.84665  1.02514  1.95094  0.08978     0.03114   8393.54864   4905.93768  2.03789         5509.08146     17.36298  0.00013   57860.8341   0.8199  0.66651  1772405.34428  44.39399  17.74709  57882.62037    50.49701       43.96916      16.86  27.70028   29.5     0.5645   -21.1095  0.79747 
   -5.12521  0.01582  7.71702     14.20459  1.72074  1.49543  1.28155    0.122     0.10035  10219.47501   4290.93528  1.32911          5636.0765     18.82127  0.00368  57860.37479   0.7984  0.02027  3708956.68422  44.16041  17.89346  57888.06374    50.45783       43.86029   23.31399  31.23009   34.5    0.52951  -20.96782  0.99343 
   -6.43227  0.00862  5.46981     14.22399  1.16795  0.93217  1.92682  0.19325     0.30385   7543.11634   3544.60594  2.13447         5450.59331     19.00083  0.00557  57859.06773  0.65399   0.0166  1156628.79025  44.79713  17.80406  57885.34205    50.51804       43.96509      16.86  25.29171   30.0    0.45348  -20.91807  0.99524 
   -5.12973  0.05165  5.96852     13.99629  1.16993  1.44922  2.77776  0.05602     0.02516   8100.92905   4741.87859  1.86703          5647.8112     19.62878  0.02363  57860.37027  1.08741  0.14347  3936637.96966  44.19015  17.80363     57884.47    50.54482       44.03842   14.45143  24.08572   32.0    0.53813  -21.03366  0.95261 
   -7.41531  0.07478  7.87074       14.283   1.6693  1.47319   4.8044  0.04739     0.01328   6972.64774   4360.99258  2.28986         5704.05514     17.57719  0.00021  57858.08469  1.39335  0.35926  2608401.79347  44.28297  17.78676  57882.62037    50.53366       44.03386   14.45143  26.49429   31.5    0.46074  -21.05815  0.88777 
   -6.61924  0.00965  8.18423     14.70561  1.79641  0.35578  2.73088  0.07341     0.03218   8507.93638   4630.29298  1.89244         5725.67078      19.2426  0.00971  57858.88076  1.17917  0.02635   433468.66144  45.06034  17.95741  57885.34205     50.5004       43.90675   21.67715  30.62799   32.0    0.50032  -21.01189  0.99103 
   -5.31147  0.00134  7.21113     14.56712  1.58448  0.39258  2.17249  0.07808     0.03943   9399.65101   4714.81311  1.63347         5431.58505     19.70049  0.02788  57860.18853  1.14501  0.00292   561660.99472  45.00325  17.87881     57884.47    50.51061       43.95768      16.86    30.364   32.0    0.52646  -20.99654  0.99906 
    -5.7463  0.00197  8.15397     14.41232  1.75464  0.86352  2.66616  0.11238     0.12585  10261.69735   3467.17571  2.42443         4778.36484     16.81637    4e-05   57859.7537  1.67476  0.00526  1622176.86827   44.4802   17.8792     57884.47    50.50582        43.9537      16.86    30.364   31.0    0.52487  -20.93401  0.99816 
   -6.12013  0.01406  7.20617     14.09677  1.75455   1.5332  1.70654  0.08561     0.03456   9185.40525   4808.68854  1.94266         5500.69179     20.45505  0.15841  57859.37987  0.85889  0.02399  5418235.86315  44.06374  17.76233     57884.47    50.48418       43.92795   19.26857  28.90286   33.0    0.46373  -21.16683  0.99333 
   -9.59413  0.00237  6.94767     14.49715  1.57883  0.52421  2.27009  0.12852     0.02237   6440.86537   5188.80191  1.88717         5921.18161     19.79263  0.03446  57855.90587  0.56177  0.00537   717012.77295  44.92798  17.83122     57884.47    50.59431       44.06977   14.45143  26.49429   32.0    0.38461  -20.90136   0.9984 
   -5.67324  0.01252  7.50423     14.24607  1.64508  1.05913  1.40401  0.13823     0.07525   9667.01228    4542.9402  1.45991         5713.17105     16.99744    6e-05  57859.82676  0.78268  0.01758  2769998.91692  44.29194  17.85474  57885.34205     50.5082       43.95544      16.86    30.364   32.0    0.50412  -20.97411  0.99424 
   -3.29691  0.02567  7.62083     14.51221  1.65778  0.63892  6.04442  0.02076     0.01669   8566.41368   4222.06763  1.86469         5575.06648     19.22086  0.00924  57862.20309  2.64594  0.15518   845155.31273  44.79743  17.83184     57884.47    50.44817       43.88398   19.26857  29.78729   30.0    0.63076  -21.15162  0.95092 
   -6.16499  0.00265  7.19467      14.6441  1.53058  0.32043   1.8413  0.14653     0.05787   9750.37513   4667.92287  2.05968         5362.81497     18.81485  0.00363  57859.33501  1.04422  0.00487   378868.24995  45.16119  17.84235  57882.62037    50.48505       43.94143      16.86  29.64718   30.5    0.49822   -21.0122  0.99836 
   -6.15281  0.00312  8.18722     14.28225  1.81784  0.97262  2.93611  0.06899     0.04369  10949.68012   4355.80481  1.62199         5142.20266     19.18368  0.00848  57859.34719  2.09992  0.00917  3084251.03982  44.21298   17.8222  57885.34205      50.499       43.92681   19.26857  28.90286   33.5    0.48902  -20.91458  0.99689 
   -5.88668  0.00251   9.3388     14.48165  2.17476   1.1265  1.54468  0.15976     0.10501   9584.02363   4517.53872  1.51525         5493.06041     16.57468    2e-05  57859.61332  0.84637  0.00388  1916507.41538  44.38316   17.9486     57884.47    50.54444       43.99283      16.86  28.90286   31.5    0.53399  -20.92126  0.99871 
   -5.84872  0.03292  7.12998     14.39419  1.56307  0.74426  4.45524  0.04806     0.01995   8437.41112   4807.12605  1.72929         5729.39175     18.71752   0.0029  57859.65128  1.89198  0.14668  1201110.73646  44.67706  17.88286  57888.06374    50.53114       43.95528   19.26857  27.95543   30.5    0.52135  -21.05479  0.95538 
   -5.71475   0.0037  8.37578     14.58379   1.8591  0.56597  3.24947  0.06693     0.04139   8805.81436   4201.14947  1.82877         5512.16803     16.46328    2e-05  57859.78525  1.50307  0.01202   823365.12745  44.77651   17.9249  57888.06374    50.49536       43.89707   23.31399  29.67459   32.0    0.52398   -20.9801  0.99593 
   -6.00782  0.03105  8.65197     14.29311  1.91803  1.03258  1.16657  0.12068      0.0525   8285.05079   4795.28805  1.91141         5713.49398     18.61963  0.00231  57859.49218  0.47767  0.03622  3456818.35507  44.13879  17.82425  57885.34205    50.61566       44.08034      16.86  26.49429   34.0      0.484  -20.98181  0.98742 
   -5.26946  0.01139  7.82067     14.28036  1.78924  1.04099   1.4606   0.1103     0.05567   9093.70334   4656.11961  1.79208         5726.42143     20.02713  0.05914  57860.23054  0.72051  0.01663  2794171.66452  44.28877   17.6784  57882.62037    50.51541       44.00555   14.45143  26.49429   32.0    0.51899   -21.1151  0.99477 
   -5.30757  0.18151  7.07107     14.02841   1.4814  1.44806  2.33796  0.04013     0.01507   7328.79397   4946.85692   2.2728         5428.10786     20.30415  0.11191  57860.19243  0.74908  0.42436  6034511.43007   43.9599  17.87664  57885.34205     50.5521       43.99637      16.86  27.70028   34.5    0.45584   -21.0805  0.87133 
   -4.57294  0.18702  8.57275     14.25336  1.62922   1.2726   3.7375  0.03839     0.02067   9179.23367   4614.62793  1.95967         5443.78174     17.03342    6e-05  57860.92706  1.87854  0.69898  3461833.84833  44.07528  17.85433  57882.62037    50.49512       43.97661      16.86  27.70028   32.5    0.55873  -21.02072  0.76615 
   -5.51068  0.07842  8.50424      14.6443  1.73041  0.42626  3.12522  0.04034     0.01588   6803.72277   4710.54392  2.26791         5665.82001     17.24892   0.0001  57859.98932  0.86298  0.24508    597916.8425  44.87108  17.75216     57884.47    50.55629       43.98363      16.86  26.49429   32.5    0.52584  -21.03245  0.91234 
   -3.85825  0.32327  8.58204     14.34435  1.66471   1.1354  1.93435  0.08291     0.07741  10352.34616   3845.38712  2.27618         4952.27127     18.21811  0.00092  57861.64175  1.23663  0.62532  2331549.17857  44.25536  17.82325  57885.34205    50.46431       43.87837   19.26857  31.31143   31.0    0.64535  -21.07746  0.79171 
   -6.41615  0.01328  7.95478     14.59386  1.71703  0.45379  4.58511  0.05228     0.01865   8486.44468   4624.35385  1.96157         5497.72018      19.5773  0.02099  57859.08385  1.96983  0.06087   654821.09402  44.88624  17.66224     57884.47    50.50657       43.99253      16.86  24.08572   31.5    0.47187    -20.957  0.97932 
   -5.58575  0.00139   7.6523     14.44677  1.70879   0.5659  1.72163  0.12153     0.05512  10019.05386   4578.97462  1.45659         5587.03057     16.52111    2e-05  57859.91425  1.03091  0.00239  1187268.14878   44.6594  17.80886  57882.62037    50.52758       44.01648   14.45143  26.49429   32.0    0.49273  -20.95488  0.99922 
   -5.42485  0.06246   7.7066     14.25415  1.60333  1.10781   3.1976  0.05339     0.01535   7173.60519   4964.13379  2.08964          5685.8868     18.26023  0.00101  57860.07515  0.98158  0.19972  2743176.80591  44.26189  17.82266  57882.62037    50.49088       43.93633      16.86  29.64718   31.0    0.50786  -21.01424  0.93285 
   -5.12224  0.03176  7.57021     14.33962  1.71347   1.3609  3.99378  0.07919     0.04665   9665.34451    4420.3155  2.29835         5019.38031     17.31039  0.00011  57860.37776  2.22559  0.12686  1908355.55872  44.46385  17.89068  57885.34205    50.48563       43.89176   19.26857  31.31143   29.0    0.54703   -21.0549  0.96199 
   -5.00973  0.00186    6.034     14.52396  1.25934  0.37148  1.43354  0.16666     0.28559  11039.98829   3581.13821  1.50758         5206.71034      19.0565  0.00633  57860.49027  1.04226  0.00267    381287.0355  45.22653  17.97112  57888.06374      50.459       43.85288   23.31399  31.23009   30.5    0.60478  -21.00818  0.99916 
    -6.8564  0.28392  8.34123     14.62929  1.72669  0.47747  2.69003  0.08527      0.0127   6893.56004    5059.1671  2.15279         5632.70196     16.30034    1e-05   57858.6436  0.76256  0.76375    615038.4024   44.8747  17.72302  57885.34205    50.47093        43.8982   20.90542  28.99115   29.5    0.46848  -21.01672  0.77661 
   -4.19314  0.27848  7.28052     14.44355   1.7105  1.35131  3.25581  0.09384     0.07388  11089.77656   3813.18775  1.34911         5745.01685     16.60501    2e-05  57861.30686  2.38854  0.90668  1091862.55366  44.73948  17.78224  57885.34205    50.49419       43.93793   19.26857  27.95543   28.0    0.63001  -21.15366  0.79365 
   -6.32228  0.08215   7.2913      14.3621  1.67192  1.52413  1.96448  0.15473     0.04614   6920.79973   4667.23448   2.1656         5614.51091     19.21187  0.00905  57859.17772  0.56129  0.16139  1557538.09233  44.57401  17.89979  57888.06374    50.45684       43.84054   24.08572  31.31143   30.0    0.46226  -20.98043  0.95402 
   -6.34965  0.00149  5.03779     14.38091  1.40063  1.21628  3.71639   0.0967     0.01101   4309.83088   6830.02949    2.717          5970.8856      19.9346  0.04779  57859.15035  0.41178  0.00554   571220.94189  45.25388  17.74816     57884.47    50.52884       43.99236   19.26857  26.49429   31.5    0.32825  -20.94387  0.99898 
    -4.8873  0.06675  7.22351     14.37224  1.52527  0.73822  2.09236  0.09539     0.08983  10597.87315   4254.88807  1.37781          5332.2424     19.17407  0.00829   57860.6127  1.40185  0.13966  1331003.90128  44.61051  17.97929  57885.34205    50.45794       43.85734   21.67715  32.86693   32.0    0.55967  -20.94707  0.95469 
   -6.78468  0.03852  7.33409      14.3536  1.66555  0.57345  4.19135  0.04387     0.01118   8806.94692   4767.52914  1.88695         5478.26683      18.9441  0.00488  57858.71532  1.93924  0.16145  1632512.16938  44.54685  17.73466     57884.47    50.50611       43.93284      16.86  28.84923   30.5    0.49108  -21.02409  0.95183 
   -6.53045  0.08739  8.18608     14.27145  1.72186  1.56217  3.37722  0.06882     0.02511   8178.23453   4567.22672   1.9917         5654.43834     19.17968   0.0084  57858.96955  1.34743  0.29512  3069503.53356  44.19162  17.80681  57888.06374    50.51168       43.92112   20.90542  27.21239   32.0    0.47783  -20.99917  0.90282 
    -5.1605  0.23321  8.19486     14.38091  1.67267  1.56926  4.35639  0.05893     0.03333  10147.54491   3904.71157  1.36666         5670.20812     19.32932  0.01186   57860.3395  2.67594  1.01596  1805044.99625  44.40868  17.85399  57885.34205    50.50264       43.93813   19.26857  27.95543   31.5    0.54468  -21.00376  0.72264 
   -7.69514   0.0331  7.61412     14.43568  1.67638  0.82336  5.48386  0.05539     0.01814   7752.73752   4635.24362  1.83629         5725.65894     19.42194  0.01468  57857.80486  1.96618  0.18149  1213598.14731   44.6459  17.94517  57885.34205    50.47315       43.87468   21.67715  30.62799   31.5    0.44129  -20.92732  0.94409 
