 texplosion  fnickel    Pspin  log(Bfield)      Mns  thetaPB  mejecta    kappa  kappagamma     vejecta  temperature    alpha  cutoff_wavelength  log(nhhost)      A_V         MJD0  kenergy  mnickel             TSD   log(L0)  Peak_mag     Peak_MJD  log(E_rad)  log(Peak_lum)  Rise_Time    E_fold  tau_1  delta_m15     r_peak     frac 
    -8.5197  0.00203   2.5078     13.50554  1.54811  1.18096  3.57949  0.17213     0.01733  8950.81904   6650.99208  1.85583          3637.1018     18.08534  0.00068   58223.9583   1.7107  0.00726   8813005.82375  44.71494  18.34337   58275.8945    51.23542       44.51952   35.80047  37.83578   48.0     0.2353  -21.98428  0.99969 
   -9.83288  0.03906  2.56981     13.67922  1.80877  0.73001  2.93744  0.26113     0.01419  8382.73992   6508.48512  2.21348         3526.35116     16.52261    2e-05  58222.64512  1.23131  0.11474   4859181.86108  45.01986   18.3593   58275.8984    51.23242       44.51795   36.74095  38.48883   48.5    0.21942  -21.97078  0.99594 
   -8.94768  0.00105  2.41602     13.53102  1.68857   0.9067  3.09521  0.21386     0.01211  8205.67126   6716.94407  2.54511         3452.57311     18.10558  0.00071  58223.53032  1.24321  0.00326   7933933.14406  44.83068  18.34286   58275.3745    51.22665       44.50152   36.74095  39.35178   48.5    0.22759   -21.9661  0.99989 
   -9.43995  0.01962  2.28459     13.40222   1.4382  1.25766  3.96845  0.16437     0.01174  8192.73736   6705.88786  2.55257         3416.38657     16.97281    5e-05  58223.03805  1.58894  0.07787  10934695.94795  44.67024  18.36098   58275.8984    51.22159       44.49812   36.95838  39.19095   49.0    0.22326  -21.95422  0.99693 
  -10.26809  0.00192  2.21856     13.41641  1.52388  1.13263  3.06067  0.22573     0.01146  7844.85426   6658.67378  2.14945         3601.87111     18.95284  0.00498  58222.20991  1.12361  0.00589  10235075.80286  44.74956  18.32497   58275.8906     51.2164       44.49864    36.0179  38.56469   49.0    0.22291  -21.95592   0.9998 
   -8.95522  0.06043  2.32735     13.43328  1.54496  1.25406  2.80693  0.26851     0.01774  8997.24648   6546.32183  2.27404          3373.9487     18.71805   0.0029  58223.52278  1.35543  0.16962  10565628.58927  44.70015  18.36549   58276.4572    51.23563       44.51294   36.95838  39.13435   48.0    0.23049   -21.9784  0.99379 
   -9.79187  0.00197  2.35745     13.51245  1.64023  0.91043  2.24577  0.33051     0.01893  8572.57376   6484.14364  2.39592         3442.47309     17.23651   0.0001  58222.68613   0.9845  0.00443   7993031.60799  44.83615  18.35464   58275.3745    51.22958       44.51421   36.74095  38.48883   49.0    0.21711  -21.97038  0.99985 
   -9.83249  0.00115   2.4519      13.4602  1.75318  1.24018  2.72764  0.26374     0.01538   8599.4435   6502.11519  2.20507         3535.39501     17.34933  0.00012  58222.64551  1.20325  0.00313  11755897.92509  44.66341  18.34452   58275.8906    51.24208       44.51649   36.74095  39.40838   49.0    0.22049  -21.97251  0.99989 
   -9.25533  0.17199  2.29408     13.42493  1.56226  1.22735  3.11432  0.25037     0.01325  8560.09977   6764.67585  2.58005         3364.28579     17.24765   0.0001  58223.22267  1.36128  0.53565  10787821.36751  44.70845  18.37124  58275.43512     51.2389       44.51837   36.74095  38.59181   48.0    0.22378  -21.97213  0.98141 
   -9.18544   0.0225  2.68901     13.80358  1.75263   0.5837  3.66716  0.19248     0.01285  8214.42378   6943.42408  2.31308         3627.74376     16.99419    5e-05  58223.29256  1.47608   0.0825   2907545.01519  45.18982  18.37399   58276.3276    51.21882       44.49591   36.95838  39.13506   47.5    0.23245  -21.98903  0.99669 
   -9.79847  0.20617  2.57185     13.66695  1.73484  0.77986  3.15797  0.24098      0.0153  8658.44829    6670.3579  2.11717         3392.95196      17.5222  0.00018  58222.67953  1.41226  0.65108   4939334.38926  44.99395  18.36286   58275.8984     51.2165       44.48507   37.73919  39.78556   48.0    0.21673  -21.96299  0.97614 
   -9.82975  0.22801  2.11257     13.38076  1.35255  1.12156  4.38298   0.1841     0.01085  8796.79644   6536.64223  2.12962         3455.21361       17.359  0.00013  58222.64825  2.02323  0.99935   9706542.30866  44.76331  18.35827   58275.8906     51.2235       44.49758   36.95838  39.19095   48.0    0.21561  -21.97834  0.96439 
   -9.97455  0.06657  2.55584     13.73783  1.78459  0.60988  4.38967   0.1813        0.01  8582.20367   6564.30868  2.22127         3546.45527     18.60823  0.00225  58222.50345  1.92866   0.2922   3620514.53397  45.14655  18.35362   58275.8984    51.23546       44.51115   36.74095  39.35178   48.0    0.22312   -21.9845  0.98963 
   -9.05851  0.47793  2.94919     13.66982  1.74689  1.20434  6.74497  0.11567     0.01024    9142.597   6485.55972  2.34709         3244.45478     17.78088  0.00034  58223.41949  3.36315  3.22366   6454275.88523  44.76186  18.33399   58275.3745    51.22115       44.50325   36.95838  38.56469   48.0    0.21986    -21.968   0.8662 
   -10.5353  0.00433  2.75582     13.59436  1.87405   1.3713  4.37306  0.17633     0.01051  8227.43715   6782.12624  1.97273          3639.6689     18.15654   0.0008   58221.9427   1.7658  0.01893   8558001.07207  44.72875  18.35993   58275.8906    51.21477       44.49173   37.73919  39.06217   47.5    0.21882  -21.96368  0.99928 
   -9.65409  0.21091  2.64033     13.53347  1.69074  1.30775  5.85069  0.12864        0.01  9019.98945   6490.25999   2.0559          3393.2745     18.32932  0.00119  58222.82391  2.83953  1.23398   9381611.67147  44.68133  18.35385   58275.8984    51.23303       44.51466   36.95838  38.56469   48.5    0.22031  -21.96015  0.95173 
   -9.03123  0.04696   2.0919     13.56794  1.28921  0.60694  2.54518  0.25458     0.01843  8306.02829   6608.69841   2.1743         3511.00015     17.24461   0.0001  58223.44677  1.04745  0.11952   3831252.98616  45.15475  18.35833   58276.3276    51.22873       44.50191   36.95838  39.84298   48.5    0.22336  -21.97377  0.99538 
   -9.92102  0.00709  2.54085     13.50961  1.67614  1.26786  4.60527  0.15136     0.01084  8508.92825   6626.08925  2.33982         3422.50738     17.51521  0.00018  58222.55698  1.98899  0.03263   9613094.52484  44.70034  18.35542   58275.3745    51.22998       44.50721   36.74095  39.35178   48.5    0.21839  -21.97313  0.99874 
   -9.81374  0.00492   2.1821     13.38319  1.38237  1.23738  3.46283  0.22664     0.01442  8719.32893   6571.60611   2.3477          3470.1407     16.97477    5e-05  58222.66426  1.57045  0.01703  10466826.17867  44.71191  18.36195   58275.8984    51.21889       44.49513   36.95838  39.19095   48.0    0.21938  -21.97939  0.99935 
     -9.631  0.04601  2.44699     13.65568  1.50041  0.72562  4.79827  0.14244      0.0107  8129.53963   6870.94905  2.16421         3527.21914     16.86909    4e-05    58222.847  1.89166  0.22077   4073188.55254  45.05786  18.37203   58275.8906    51.23797       44.52314   36.74095  38.48883   48.0    0.22634  -21.95266  0.99085 
   -9.70854  0.12821  2.32637     13.72825  1.53858  0.50446   3.2778  0.24053     0.01514  8846.47445   6446.46684  2.44241         3322.79235     16.61826    2e-05  58222.76946   1.5302  0.42026   2702668.55663  45.29081   18.3519   58275.3745    51.24308       44.53053   35.79571  38.70965   48.5    0.21542   -21.9737  0.98468 
   -9.97204  0.08033  2.42905     13.46498  1.49394  1.33945  3.64092  0.19583     0.01408  8195.97068   6574.94139  2.44108         3522.20734     17.41246  0.00014  58222.50596  1.45895  0.29248   9617399.14202  44.68925  18.34686  58275.43512    51.22509       44.50022   36.74095  39.40838   48.5    0.21735  -21.97096  0.98794 
   -9.95223   0.0159  2.55623     13.64579   1.7514  0.81097  2.82664  0.24785     0.01342  7788.25621   6695.52593  2.26761         3576.17057     19.05186  0.00626  58222.52577  1.02277  0.04495   5430328.66431  44.96221  18.34772   58275.3745    51.24864       44.54116   35.79571  37.95981   48.5     0.2242  -21.96103  0.99835 
   -9.90535   0.0013  1.88456     13.42443  1.22185  0.72121  3.96867  0.19892     0.01077  8640.84933    6625.3601  2.19699         3431.61221     17.69356  0.00027  58222.57265   1.7676  0.00514   5706715.96967  45.04905   18.3405   58275.8984    51.22742       44.50959    36.0179  39.13435   48.0    0.22768  -21.97684  0.99982 
   -9.94128  0.03984  2.49677      13.5239  1.65689  1.12466  2.68022  0.28799     0.01524  7925.69916   6676.01046  2.42182         3575.89878     16.93114    5e-05  58222.53672  1.00432  0.10678   8591491.68352  44.75931  18.33914   58275.3745    51.22829       44.51008   36.74095  38.59181   48.0    0.21735  -21.95684  0.99596 
   -9.71633  0.06212  2.39969      13.5521  1.69086  0.84606  3.05607  0.25628      0.0143  8784.48624   6685.40903  2.48261         3399.08337     17.50089  0.00018  58222.76167  1.40677  0.18984   7112578.84038  44.88462  18.36694   58275.3745    51.22454       44.50351   36.74095  39.35178   48.5    0.22847  -21.97863  0.99347 
   -8.96086  0.01805   2.3924     13.43314  1.54976  1.34344  2.51711  0.26446     0.01967  8650.04936   6654.75223  2.30137         3461.32499     16.25289    1e-05  58223.51714  1.12348  0.04544  11206473.70615  44.65197  18.34217  58275.43512    51.21999       44.49964   36.95838  39.13435   48.5    0.22661  -21.97256  0.99824 
   -9.61535  0.00464  2.77572     13.59245  1.90934  1.23553  2.91264  0.23541     0.01395  7880.53719   6758.29313  2.21472         3620.67682     16.86294    4e-05  58222.86265  1.07901   0.0135   8923914.70367  44.71242  18.36587   58276.3276    51.22939       44.50688   36.95838  39.19095   48.5    0.22779  -21.95845  0.99949 
   -8.82685  0.06907  2.59963     13.65653  1.78967  0.75353  3.48051  0.18417     0.01174  8265.84822   6681.38967  2.27199         3560.54142     17.15044    8e-05  58223.65115  1.41855  0.24038   5462091.78653  44.95444  18.36681   58275.3745    51.23795       44.51186   35.79571  40.29702   48.5    0.23603  -21.97349  0.99116 
   -9.93254  0.00136  2.55448     13.68114  1.70429  0.69809  2.92181  0.23992     0.01544  8271.02663   6696.20568  2.32336          3543.6696     18.65056  0.00248  58222.54546  1.19234  0.00396   4484136.70259  45.03411  18.34375   58275.3936    51.21853       44.49855    36.0179  39.13435   48.5    0.21885  -21.97441  0.99985 
  -10.87252  0.07089  2.36761     13.46485  1.69319   1.1335  4.40223  0.18323      0.0105  8988.22635   6345.29044  2.17529         3338.95448     16.25725    1e-05  58221.60548  2.12152  0.31207      10361756.8   44.7335   18.3471  58275.43512    51.23393       44.51893   35.80047  38.48883   49.5    0.22131  -21.96725  0.98962 
   -8.54417  0.03932  2.33599     13.49399  1.47143  0.93876  2.72782  0.26011     0.02043  8959.07373    6590.5471  2.60944         3292.35195     16.33419    1e-05  58223.93383  1.30608  0.10726    7664996.0354  44.81513  18.34704   58275.3745    51.22732       44.50822   36.74095  38.78211   48.0    0.22014  -21.96785  0.99574 
  -10.46284  0.00713  2.84073     13.73445  1.88809  0.78279  2.68701  0.29122     0.02288  9018.90338   6546.13235  2.46058         3329.73963     17.96272  0.00051  58222.01516  1.30378  0.01915   4806230.07129   44.9562  18.35728   58275.3745    51.23295       44.51188   35.79571  39.72735   48.0    0.21841  -21.97144  0.99923 
  -10.45421  0.15351  2.24834     13.37697  1.58675  1.45141   2.5906   0.3007     0.01466  8360.17011   6580.65077  2.30197          3461.3727     16.34238    1e-05  58222.02379  1.08009  0.39768  13125085.28152  44.64753  18.35283   58275.8906    51.21663       44.49221   36.95838  39.84298   49.5    0.21765  -21.95236  0.98687 
   -9.00739  0.13211  2.24625     13.43269   1.6305  1.00953  2.69637  0.24621     0.01351  8514.72053   6666.04027   2.0304         3571.33075     16.55551    2e-05  58223.47061  1.16613  0.35621   10415515.8572  44.76057  18.34047  58275.43512    51.23722       44.51602   36.74095  38.78211   49.0    0.22878  -21.96865  0.98859 
  -10.13823  0.00114  2.53709     13.69198  1.66289  0.70224  4.23802  0.17603     0.01102  8261.57872    6817.6072  2.21628         3582.83904     18.36595  0.00129  58222.33977   1.7255  0.00481   4105759.16929  45.06764  18.33287   58275.3745    51.23536       44.51913   35.79571  39.43407   47.5     0.2244  -21.97683  0.99981 
   -9.06131  0.38984   1.8822     13.26837  1.38379   1.0126  2.54241  0.28752     0.01303  8557.40378   6453.54093  2.24422         3500.15442     17.47731  0.00017  58223.41669   1.1106  0.99112  13227335.91726  44.73911  18.34995   58275.4134    51.21542       44.49439   36.95838  39.13435   50.0    0.21801  -21.96553  0.97152 
   -9.49488  0.01776   2.4484     13.45158  1.71597  1.48445  2.67083  0.27268     0.01571    8450.141   6546.88566  2.22607         3513.63992     17.35679  0.00013  58222.98312  1.13763  0.04743  11938223.44572  44.64865  18.35514   58275.8906    51.22326       44.49143   36.95838  40.56638   49.0    0.21984  -21.97478  0.99834 
   -8.90278  0.01268  1.84175     13.20046  1.40457  1.40875   2.6086  0.29441     0.01159  8533.92946   6459.58674  2.51742         3440.35089       18.181  0.00084  58223.57522  1.13327  0.03309  17575047.14963  44.64103   18.3747   58277.3194    51.22947         44.505   36.79871  39.06217   49.5    0.22849  -21.97323  0.99909 
   -9.16737  0.03156  2.24931     13.43616  1.51729  1.05179  3.29237  0.21565     0.01416  8885.66886   6613.13543  2.14345         3494.78146      18.2046  0.00089  58223.31063  1.55066  0.10391   9564656.01626  44.76515  18.33941   58275.3745     51.2379       44.52433   35.79571  38.70965   48.0    0.23408   -21.9958  0.99632 
   -9.07813  0.07165  2.56443     13.75421  1.74177  0.57546  3.29388  0.21263      0.0132  8426.15849   6742.03082  2.28661         3479.88204     18.18026  0.00084  58223.39987  1.39507  0.23602   3298968.21608  45.17347  18.35262   58275.3745    51.21824       44.49857   36.74095  38.78211   48.5    0.22328  -21.96156  0.99125 
   -10.2327  0.04337  2.35912     13.45745   1.6389  1.22225  2.47385  0.33056     0.01697  8542.77011   6679.11312  2.14876         3458.50795     16.00451    1e-05   58222.2453  1.07695  0.10728  10303308.14824  44.72492  18.35407  58275.43512    51.25468       44.54454   35.79571  37.95981   48.0     0.2151  -21.94694  0.99629 
   -10.0167  0.03664  2.46326     13.47711  1.59747  1.32268  3.94581  0.20532     0.01317  8728.94915   6551.10511  2.64752         3388.49314     17.19999    9e-05   58222.4613  1.79344  0.14458  10001327.33012   44.6892  18.36347  58275.43512    51.22567       44.50063   36.74095  39.40838   48.0    0.21913  -21.98138  0.99439 
   -9.38476  0.06266   2.8394     13.62624  1.86583  1.18804  2.70219  0.27194     0.02079  8737.67186   6619.49467  2.26024         3445.74578     18.47656  0.00166  58223.09324  1.23065  0.16932   7810296.66275  44.74059  18.36597   58275.8906    51.22929       44.50869   36.74095  38.78211   48.0    0.22625  -21.97335  0.99313 
  -10.50175  0.01525  2.17305     13.41028  1.66646  1.08141  2.71657  0.27389     0.01083  8010.37539    6647.6123  2.04545         3677.65189     18.07995  0.00067  58221.97625  1.03981  0.04143   11045615.1282  44.77331  18.35813   58275.8984    51.23967       44.52163   36.74095  38.48883   49.5    0.21232  -21.97084  0.99879 
   -10.7549  0.00603    2.573      13.6467  1.78902  0.81814   4.3481   0.1941     0.01119  8770.87997   6558.33655  2.38474         3366.78626     17.62498  0.00023   58221.7231  1.99532  0.02621   5596522.34101  44.95266  18.34974  58275.43512    51.22563       44.49855   36.95838  39.84298   48.5    0.22249  -21.97254  0.99906 
   -9.78547  0.02702  2.13608     13.39915  1.50089  1.01479  3.04358   0.2441     0.01035  7820.75204   6581.46689  2.69525         3476.68347     18.75157  0.00314  58222.69253  1.11047  0.08225  10117916.42317  44.78087  18.35739   58276.3276    51.24444       44.52624   36.74095  38.78211   49.5    0.21905  -21.94971   0.9973 
  -10.01924  0.03281  1.87488     13.21754  1.34031  1.50373  2.31635  0.32606     0.01621  8695.78159   6362.35025  2.28982         3351.87661     18.63734  0.00241  58222.45876  1.04484  0.07601  16065293.42753  44.64421    18.339   58275.3745    51.22456       44.50937   35.80047  38.59181   49.5    0.21217  -21.97106   0.9977 
  -10.17743  0.00262  2.41485     13.60724   1.6309  0.75115  3.52241   0.2035     0.01222   8255.0643   6576.22681  2.39228         3441.80821     18.56481  0.00204  58222.30057  1.43188  0.00923   5389411.39342  44.98395  18.35365   58276.3276    51.23077       44.51294   36.95838  38.56469   49.0    0.21648  -21.96094  0.99966 
   -9.23074  0.05126  2.40085      13.4364  1.68181  1.34249    2.345  0.29822     0.01684  8396.01228   6687.02262  2.37538         3466.82723     17.26518   0.0001  58223.24726  0.98609  0.12021  12065075.79392  44.65236  18.37187   58276.3276    51.22828       44.50267   35.80047  39.35178   49.0    0.21953   -21.9661  0.99582 
   -9.81124  0.00117  2.19688     13.35706  1.54346  1.50746  3.33991  0.21301     0.01087  8118.16822   6567.60978  2.08956         3610.68152     17.93594  0.00048  58222.66676  1.31304  0.00391  13359826.50474  44.64793  18.38426   58276.4572    51.24154       44.51229   36.74095  39.40838   49.0    0.22216  -21.96375  0.99987 
   -9.68006  0.04921  2.41958     13.57144  1.56088  0.83344  3.04807  0.21902     0.01403  8013.60649   6658.64655  2.28686         3593.25336     17.59952  0.00022  58222.79794  1.16764  0.14998   6106342.51636  44.90895  18.35632   58275.8906    51.21651       44.48942   36.95838  39.84298   48.5    0.22945  -21.96312  0.99417 
  -10.80953  0.00614  2.51321     13.50692  1.69362  1.25171  2.34608  0.32024     0.02272  8835.12482   6387.06814  2.01861         3491.82035       17.504  0.00018  58221.66847  1.09243  0.01441   9621547.19877  44.71396  18.35266   58275.8984    51.21786       44.49679   36.95838  39.84298   48.5    0.21976  -21.98521  0.99946 
   -9.97972  0.14035  2.51439     13.58469  1.78458  0.89746  3.05948  0.25193       0.012  8099.29966   6729.66691  2.41631          3529.7413     16.52999    2e-05  58222.49828  1.19721  0.42939   7092997.23143  44.86869   18.3665   58275.8906    51.22494       44.49535   36.95838  39.84298   48.5    0.22589  -21.96434  0.98526 
   -9.89255  0.00257  2.05585     13.33306   1.4261  1.19235  2.86233  0.27348     0.01566    8970.065   6308.84915  2.14248         3328.66857     18.48718  0.00171  58222.58545  1.37384  0.00737  12073558.99935  44.71518  18.37211   58276.3276    51.21945       44.49011   37.73919  39.18093   49.0     0.2175  -21.96523  0.99976 
   -9.43758  0.00776  2.83264     13.62551  1.81464  1.25427  5.18282  0.13404     0.01107  8441.78537   6717.94252  2.39526         3364.63084      18.9916  0.00545  58223.04042  2.20324  0.04023   7585355.24499  44.74328  18.35457   58275.3745    51.23957       44.52077   35.79571  39.43407   48.0    0.22526  -21.95694  0.99831 
  -10.25226    0.006  2.16015     13.40108  1.57131  1.07734   3.9661  0.19408     0.01006  8757.14104   6551.00748  1.90817         3508.36089     16.13846    1e-05  58222.22574  1.81433   0.0238  10737268.92326  44.76525  18.35715   58276.3869    51.22738       44.50264   36.95838  39.19095   49.0    0.21692  -21.96758  0.99925 
   -9.17914     0.04  2.71473     13.60024  1.68691  1.09161  6.66216  0.10767     0.01021  9103.30382   6419.16548  2.31874         3364.34116      18.2575  0.00101  58223.29886  3.29337  0.26646   7275755.65932   44.7666  18.35765   58275.8984     51.2189       44.49648   36.95838  39.19095   48.0    0.22321  -21.97385  0.98858 
   -9.75874  0.06199  1.86071     13.45071  1.27092  0.59618  2.84698  0.28145     0.01372  8754.43017   6588.37696    2.439         3445.22776     17.72369  0.00029  58222.71926  1.30157   0.1765   5127107.08161  45.12373  18.35776   58275.8984    51.22317       44.50095   36.95838  39.19095   49.0    0.21956  -21.97303  0.99434 
   -9.67303  0.04166  2.17589     13.65019  1.59827  0.52993   4.0805  0.19284      0.0102  9039.09878   6560.07031   2.2094         3269.28713     17.88895  0.00043  58222.80497   1.9888  0.17001   3518549.27359  45.25086  18.36738   58275.8984    51.23355       44.50604   36.74095  40.06041   49.0    0.21407  -21.96959  0.99474 
   -9.60074  0.00204  2.37417      13.5018  1.56347  0.96989  2.78839   0.2601      0.0155  8269.84861   6670.25575  2.49875         3521.60865     17.99817  0.00055  58222.87726  1.13757  0.00568     8115780.587  44.80258  18.35316   58275.8984    51.23341       44.51198   36.74095  38.78211   48.0    0.22395   -21.9707  0.99979 
   -9.91594  0.07244  2.33087     13.42095  1.66549  1.49276  2.52481  0.29177     0.01559  8410.08519   6531.68061   1.9721         3510.16526     18.96454  0.00512  58222.56206  1.06526  0.18291  12091696.77813  44.67286  18.34824  58274.50815    51.23842       44.52261   35.79571  38.78102   49.0    0.22069  -21.96152  0.99396 
   -9.77155  0.00943  2.61289     13.56364  1.60851  1.16271  2.62124  0.27015     0.02341  8561.99756   6691.68946  2.25449         3465.52073     16.53815    2e-05  58222.70645  1.14626  0.02473   7606801.69381  44.75982  18.36548   58276.3276    51.22105        44.4943   36.95838  39.84298   48.0     0.2239  -21.96338  0.99894 
   -9.51844  0.00151  2.27059     13.43941  1.62063  1.06318  4.29152  0.17924     0.01088  9168.69438   6414.93417  2.17053         3344.52236     16.61354    2e-05  58222.95956  2.15205  0.00647  10255429.21285   44.7553  18.37237   58276.4283    51.24062       44.52426   36.74095  38.55363   49.0    0.22279  -21.97984  0.99979 
  -10.01391  0.00348  1.99468     13.40526  1.41711  0.81511  3.35258  0.21734     0.01071   8481.9058   6658.16404   2.5548         3371.33758     18.68483  0.00269  58222.46409  1.43878  0.01167   8099358.18406  44.91205  18.35941   58276.4572    51.22777       44.50545   37.73919  38.41014   49.5    0.21908   -21.9758  0.99963 
  -10.13005  0.08476  1.91206     13.26397  1.26357   1.2048  2.87381  0.26883     0.01324  8287.36891   6574.30312  2.55991         3389.55314     18.32713  0.00118  58222.34795  1.17738  0.24359   12719477.2454  44.70297  18.37249  58275.43512    51.24244       44.52622   36.74095  38.48883   49.5      0.215  -21.95362  0.99179 
   -9.67505  0.05508   2.4137     13.48195  1.64047  1.11215  3.52003  0.19793     0.01082  8046.34075   6682.77082  2.36406         3625.43446     16.58559    2e-05  58222.80295  1.35947  0.19388   9643810.05883   44.7342   18.3602   58275.8984      51.225       44.50556   36.95838  39.13435   48.5    0.22603  -21.98185  0.99299 
   -8.36847  0.00614  2.72411     13.60738  1.89372   0.9927  2.89276  0.23449     0.01699  8914.50111   6605.19264  2.27882          3479.3348     18.43354  0.00151  58224.10953  1.37131  0.01777   7958332.15881  44.77489  18.33454   58275.3745    51.21518       44.49793    36.0179  38.56469   48.0    0.23822   -21.9906  0.99934 
   -9.86738   0.0016   2.1819     13.43561  1.39487  0.95656  3.90116  0.18429     0.01084  8114.72442   6698.26714  2.52786         3482.99892     18.31243  0.00114  58222.61062  1.53239  0.00626   8294746.99056  44.81691  18.36419   58275.8906      51.234       44.51281   36.74095  38.78211   48.5    0.22256  -21.95767  0.99976 
   -9.51922  0.04353  1.98327     13.41171  1.47339  0.79826  2.93627  0.27159     0.01324   9080.6972   6337.08601  2.42854         3275.87938     17.40144  0.00014  58222.95878  1.44431  0.12781   8081352.57744  44.93492   18.3597   58275.8984    51.22991       44.51168   36.95838  39.13435   49.5    0.22498  -21.98555  0.99625 
  -10.89172  0.00127  2.50298     13.68398  1.69276  0.68147  3.11234  0.26592     0.01472  8376.37526   6748.15647  2.58695         3354.96473     16.84742    4e-05  58221.58628  1.30264  0.00394   4220557.86935  45.07516  18.35711   58275.8984    51.22896       44.50592   36.74095  38.78211   48.5    0.21669  -21.94957  0.99985 
  -10.00836  0.05845   1.9458     13.34437  1.57664  0.90966  3.12826  0.25254     0.01067  8928.29752   6302.42961  1.99452         3497.98644     17.31154  0.00011  58222.46964  1.48754  0.18286  11349987.94929  44.83339  18.36019   58275.8906     51.2163       44.49074   36.95838  39.84298   50.0    0.21458  -21.97643  0.99524 
   -9.72845   0.0459  2.66504     13.54892   1.8285   1.1695  3.67178  0.19725     0.01325  8693.00383    6518.0202  2.40245         3365.17657     18.03007   0.0006  58222.74955  1.65518  0.16853   9626721.84117  44.69605  18.35451   58275.8984    51.22638       44.50478   36.95838  39.13435   49.0    0.22132  -21.95236  0.99368 
  -10.43008  0.00238  2.64576     13.53902  1.88483  1.33976  4.15228   0.1866      0.0106  8524.78187   6597.52848  2.31305         3483.04367     17.28563  0.00011  58222.04792  1.80003  0.00988  10236461.75096  44.68887  18.35087  58274.50815    51.22311       44.50339   36.74095  38.78211   48.5    0.22133  -21.98545  0.99965 
   -9.82836  0.00758  2.36509     13.53373  1.55497  0.87553  4.14533  0.17336     0.01137  8440.75007   6495.73602  2.62222         3443.44382      19.2976  0.01102  58222.64964  1.76177  0.03142   6914845.09786  44.87309  18.33667  58275.43512    51.22792       44.50276   36.95838  39.19095   48.5     0.2185  -21.99682  0.99882 
   -9.28442  0.07958  2.20917     13.43755   1.6525  0.92804  2.85201  0.24573      0.0115  8290.75889   6574.56053  2.41009         3498.11446     16.32196    1e-05  58223.19358  1.16941  0.22697   9984075.41624  44.79922  18.33795   58275.3745    51.23081       44.50811   36.74095  38.78211   49.5    0.22918  -21.96209  0.99302 
   -9.88329  0.01016  2.50314     13.48068  1.60435  1.44961  3.78108  0.19706     0.01303  8258.69447   6803.36757  2.68749         3391.34408     19.20905  0.00899  58222.59471  1.53839   0.0384  10202873.73134  44.66845  18.35731   58276.3276    51.23116        44.5078   36.95838  39.19095   48.5    0.22301  -21.96071  0.99847 
   -9.05999  0.01516  2.25265     13.50998  1.63305  0.82521  2.95338  0.24462     0.01328  8673.04777   6627.51634   2.2295         3326.24505     16.80624    4e-05  58223.41801  1.32523  0.04477   7349258.55904  44.91021   18.3487   58275.8984    51.22159       44.49346   36.95838  39.84298   49.5    0.21982  -21.94898  0.99856 
   -9.64255  0.00427  2.30938     13.53359  1.65098  0.82376  3.04868  0.23207     0.01414  8875.80804   6554.19113  2.04475         3412.83451     17.98216  0.00053  58222.83545   1.4327  0.01302   7004273.54792  44.91423  18.35152  58275.43512    51.23006        44.5117   36.74095  38.78211   49.0    0.22768  -21.97256  0.99957 
  -10.40433  0.01258  2.55772     13.51953  1.81983  1.21559  3.84047  0.20968     0.01166  8724.28303   6697.75492  2.21069         3525.42615     17.00762    6e-05  58222.07367   1.7437   0.0483   10103954.2931  44.70868  18.34649  58275.43512    51.23536       44.51956   36.74095  38.48883   48.5    0.21704  -21.98354  0.99831 
   -9.31877  0.00218  2.08649     13.33406    1.518   1.3451  3.11413  0.23008     0.01183  8649.14855   6676.62416  2.07352         3420.72105     19.16827  0.00818  58223.15923  1.38967   0.0068  13176726.12348  44.69148  18.35938   58276.4572    51.21335       44.48535   37.76983  39.75492   49.0    0.22744  -21.97708  0.99979 
   -8.76763  0.00763  2.72259     13.59865  1.98053  1.05097  4.60671  0.16585     0.01047  9168.68299   6558.73589  2.30735         3404.76778     17.51104  0.00018  58223.71037  2.31011  0.03514   8654718.02362  44.75841  18.35072  58275.43512    51.22331       44.49959   36.95838  39.19095   48.0    0.23353   -21.9936  0.99877 
   -9.97765  0.02383  2.45454     13.50074   1.7267  1.14881  2.98286  0.26033     0.01445  8677.22222   6616.29823  2.41715         3413.11828     17.04791    6e-05  58222.50035  1.33974  0.07109    9627040.9833  44.74263  18.34981   58275.8906    51.22644       44.50814   35.80047  38.78211   48.0    0.22705  -21.98479  0.99753 
   -9.76402  0.01334  1.92375     13.41227  1.41751  0.74107  2.59168  0.30737     0.01239  8409.58243   6488.64806   2.1749          3530.7277     17.64574  0.00025  58222.71398  1.09335  0.03458   7296265.33657  44.98898  18.35092   58275.8984    51.22454       44.50349   36.95838  39.13435   49.5    0.21623  -21.95298  0.99899 
   -9.51744  0.12014  2.39949     13.45493  1.67094  1.26092  2.66643  0.27741     0.01382  8112.11561   6671.94839  2.33224         3588.39188     18.17155  0.00082  58222.96056  1.04671  0.32033  10993924.15071  44.69041  18.33757   58275.3745    51.22514       44.51144   35.80047  37.83578   48.5    0.22467  -21.97204  0.98889 
  -10.16113  0.00406  2.31889     13.70821    1.536  0.54748  2.64612  0.28468     0.01557  8025.14537   6704.89589  2.23415          3517.5892     18.79957   0.0035  58222.31687  1.01658  0.01075   2939950.34341  45.25634  18.34598  58275.43512      51.224       44.50217   36.74095  38.78211   48.5    0.21127  -21.95267  0.99961 
  -10.72237  0.00295  2.40523     13.44722  1.77763   1.2876  2.45656  0.31893     0.01765  8861.54795   6511.77637  2.18877         3375.34731     17.74929  0.00031  58221.75563  1.15073  0.00724  12176681.44911  44.67084   18.3672   58275.3745    51.23942       44.51434   35.79571  39.72735   49.5    0.22076  -21.96515  0.99976 
    -8.9639   0.0681  2.34789      13.3932  1.59966  1.47208  3.10187  0.22006     0.01373  8578.95189   6577.40049  2.32781         3543.27424      16.8611    4e-05   58223.5141  1.36182  0.21123  13390732.36085  44.60471  18.36429   58276.4572    51.22268       44.49974   36.79871  39.06217   49.0    0.23283  -21.97776  0.99243 
   -8.60816  0.17808  3.09048     13.83414  2.15569  0.70919  4.43716   0.1558       0.012  9013.84728   6432.30334  2.50528         3275.30248     16.56314    2e-05  58223.86984  2.15057  0.79015   4103642.94405  45.00921  18.36983   58276.3276    51.22568       44.49359   36.95838  39.96174   48.5    0.22739  -21.97953  0.96983 
   -9.65189  0.01621  1.87641      13.2939  1.28856  1.00656  2.57787   0.3144     0.01564  8913.06664   6436.19614  2.40674         3380.06304     17.34758  0.00012  58222.82611  1.22164  0.04179  10883724.17285  44.79552  18.36904   58275.3745    51.22594       44.50095   36.74095  39.35178   48.5     0.2225  -21.98198  0.99867 
   -9.77548  0.00411  2.17717     13.46624  1.63902  0.83841   2.6799  0.28356     0.01402  8788.92524    6430.7529  2.24777         3419.35488     18.00552  0.00056  58222.70252  1.23486  0.01101   8427408.26793  44.88195  18.34578  58274.50815    51.23429       44.52278   34.85523  38.70965   49.5    0.22444  -21.96918  0.99967 
   -9.77722  0.01507  2.60511     13.54878  1.87226  1.11654  2.59426   0.3021     0.01566  8455.95036   6677.75875  2.40577         3508.79878     17.21349    9e-05  58222.70078  1.10654  0.03909   9424993.32738  44.73528  18.36171   58276.3276    51.23117       44.51128   36.95838  38.56469   48.0    0.22312  -21.97139  0.99864 
   -9.50462  0.00241  2.73873     13.64925  1.77673  0.91945  4.75553  0.14227     0.01033  8205.73004   6697.57008  2.40003         3501.81128     16.57264    2e-05  58222.97338  1.91012  0.01148   6223472.24487  44.84934  18.34361   58275.8906    51.22489       44.50363   36.95838  38.56469   48.5    0.21912  -21.95564  0.99953 
   -9.73942  0.00227  2.09705     13.32662  1.42598  1.24636  2.81642  0.25416      0.0149  8571.21177   6490.33484   2.4732         3388.56528     18.84518  0.00389  58222.73858  1.23427  0.00639  12939069.99844  44.66784  18.35119   58275.8984    51.22034       44.49654   36.95838  39.19095   49.5    0.22115  -21.97108  0.99978 
  -10.60141  0.00867  2.53994     13.66111  1.77477  0.76005   2.8922  0.27882     0.01477  8301.03022   6553.55614  2.16529         3549.93806     18.35565  0.00126  58221.87659  1.18883  0.02508   5062690.28842  45.00396  18.33842   58275.8906    51.23826       44.52404   35.80047  37.83578   48.5    0.21301  -21.96627  0.99911 
   -9.72478  0.01378  2.40932     13.42677  1.67903  1.44455  3.22468  0.21838     0.01514  8840.19374   6326.75637  2.24887         3430.05821     19.09072  0.00685  58222.75322  1.50327  0.04443  12679862.56738    44.627  18.34983   58275.8984     51.2274       44.50683   36.95838  39.13435   49.5    0.22426  -21.99164  0.99843 
   -9.39394  0.03521  2.24862     13.73068  1.51793   0.4785  3.25357  0.23679     0.01341  8656.07499   6622.30566  2.20733         3399.55865     17.91065  0.00045  58223.08406  1.45422  0.11457   2463381.76195  45.35473  18.34449   58275.3745     51.2211       44.50639   35.80047  38.48883   48.5    0.21876  -21.96445  0.99597 
  -10.35709  0.00375  2.31453     13.40785  1.49769  1.41915  2.93502  0.24085     0.01555  8241.90364   6575.70025  2.40636         3506.53535     17.46909  0.00016  58222.12091  1.18931    0.011  11388288.18255  44.65888  18.36107   58275.8906    51.22436       44.49989   36.95838  39.19095   48.5    0.22171  -21.97505  0.99958 
   -9.36332  0.00164   2.6451     13.51327  1.79519  1.53292  2.52681  0.28791     0.01921  8630.64505   6532.83382  2.48838         3391.36144     17.06022    6e-05  58223.11468  1.12276  0.00414  10971391.02204  44.63781  18.35528   58275.3745    51.23303       44.51538   35.79571  39.43407   48.5     0.2178  -21.96553  0.99984 
   -8.96972  0.29359   2.2626     13.54308  1.39872  0.76576  3.33788  0.20277     0.01181  7828.08977   6830.84997  2.38898         3661.61052     17.34291  0.00012  58223.50828  1.22014  0.97997     5452671.116  44.96875   18.3557   58276.3276    51.22974       44.51337    36.0179  38.56469   47.5    0.22401  -21.98002  0.96211 
  -10.22662    0.162   2.7917      13.7585  1.88261  0.76283  2.78789  0.30002     0.01998  8898.79943   6720.48256  1.96945         3460.09757     17.56309   0.0002  58222.25138  1.31694  0.45165   4143015.88076  45.03455  18.35373  58275.43512    51.22436       44.50149   36.74095  39.35178   47.5    0.21711  -21.97078  0.98276 
   -9.62287  0.04835  2.06151     13.32529  1.42357  1.26836  2.94741  0.24786     0.01222  8287.54019   6639.44434   2.1662         3525.16532     17.14329    8e-05  58222.85513  1.20759  0.14252  12559861.54865  44.69487  18.35216   58275.3745    51.22545       44.50228   36.74095  39.35178   49.0    0.21897  -21.95967  0.99531 
  -10.22912  0.00242  2.11659     13.37794  1.44928  1.09943  3.50613  0.21326     0.01215  8614.41436   6437.57487  2.32104         3303.98577       17.618  0.00023  58222.24888  1.55205  0.00849  10576736.73515  44.75437  18.34953   58275.8906    51.22356         44.505   36.95838  39.13435   49.5    0.21675  -21.95233  0.99971 
   -9.27015  0.21999   2.7767     13.56771  1.86357  1.51331  4.28826  0.17507      0.0123  8918.01279   6670.05792  2.22332         3390.72664     17.34549  0.00012  58223.20785  2.03444  0.94336   9767937.78704  44.66233  18.32681   58275.8984    51.21896       44.49937   37.73919  38.35354   48.0    0.23105  -21.97603  0.96421 
   -9.82883  0.00139  2.31094     13.61198  1.44573  0.67928   4.0578  0.18439     0.01259  8558.72022   6630.88974  2.24555         3472.40175     17.04803    6e-05  58222.64917  1.77311  0.00565   4280719.75107  45.06984  18.36162   58275.8984    51.23996       44.52289   36.74095  38.48883   47.5    0.21608  -21.95399  0.99978 
   -9.21573  0.16414  2.31769     13.41312  1.36162  1.21946  3.17243  0.20635      0.0177  8408.56605   6634.49004  2.70512         3413.59398     16.50741    2e-05  58223.26227  1.33802  0.52072  10133168.78247  44.66704   18.3514   58276.3276    51.23428       44.51363   36.95838  39.13435   49.0    0.21697  -21.96025  0.97765 
   -9.86853  0.03353  2.72092     13.71013  1.80911  0.73687  4.35032  0.16587     0.01218  8700.63422   6662.31859    2.396         3431.62365     18.18565  0.00085  58222.60947  1.96449  0.14586   4725616.02595  44.98242  18.34416   58275.8906    51.22501       44.50241   36.95838  39.19095   48.5    0.22592   -21.9719  0.99425 
   -10.6272  0.00925  2.55672     13.51897  1.78831  1.31243  4.95994  0.16798     0.01018  8974.12967   6677.21832   2.0414          3467.8499     17.66735  0.00026   58221.8508   2.3828  0.04588   9946716.11297  44.70824   18.3674   58276.4283    51.23973       44.51732   36.74095  38.78211   48.0    0.22114  -21.98316  0.99837 
   -9.16151  0.01007  2.15047     13.34961  1.39756  1.28022  3.00977  0.22384     0.01334  8169.06074   6744.73024  2.41476         3554.48478       18.271  0.00104  58223.31649  1.19813  0.03031  11995923.95068  44.67012  18.35683   58275.8984    51.22949       44.50923   36.74095  38.78211   48.5    0.23307  -21.97875  0.99889 
   -9.20859  0.04926   2.2272     13.53226  1.51167   0.7373  3.42912  0.22177     0.01181  8473.79347    6679.6469  2.60192         3413.48581     16.23156    1e-05  58223.26941  1.46881  0.16891    6001619.5636  44.97452  18.37775   58276.4572    51.23524        44.5106   36.95838  39.13435   48.5    0.21951  -21.96289  0.99408 
  -10.18973  0.30324  2.66592     13.67882   1.9822  0.78451  2.96679  0.26179     0.01317  8476.72581   6612.83277  2.03037         3593.44329     18.00539  0.00056  58222.28827  1.27166  0.89965   5741505.30905  44.95527  18.34797  58275.43512     51.2336       44.51274   36.74095  38.59181   49.0    0.21526  -21.98095  0.97067 
  -10.12773  0.00458  2.24736     13.41107  1.59967  1.26007  2.57736  0.28614     0.01374  8129.74321   6783.98408   1.9814         3693.99275     17.89562  0.00044  58222.35027  1.01615  0.01179  11299403.74215  44.71647  18.35626  58275.43512     51.2251       44.50506   36.74095  38.78211   48.5     0.2204  -21.97888  0.99961 
   -9.45923  0.00611  2.26787     13.40644  1.49055   1.1889  3.20029  0.20385     0.01137  7736.69572   6772.98301  2.40882         3614.00056     18.09227  0.00069  58223.01877  1.14269  0.01954  10952738.27734  44.69143  18.35337   58275.3745    51.23119       44.50904   36.74095  39.35178   48.5    0.22901  -21.95557  0.99927 
  -10.16926  0.00266  1.99851     13.26144  1.32187  1.54849  2.95956  0.27927     0.01676  9126.33509   6441.93171  2.57756         3339.78036     16.60367    2e-05  58222.30874  1.47044  0.00788  14707234.80574  44.62109  18.34397  58274.50815    51.22364       44.50525   35.80047  38.78211   49.0    0.22324  -21.98601  0.99973 
  -10.00682  0.00759  2.44486     13.46442  1.63896  1.41143  3.12773  0.24678     0.01404  8383.21693   6620.52823  2.24245         3552.01257     18.23384  0.00095  58222.47118  1.31123  0.02375  10716407.04665  44.67686  18.35634   58275.3745    51.21872       44.49383   36.74095  39.40838   48.0    0.22137  -21.96666  0.99912 
   -9.37426  0.02974  2.02088     13.28771  1.27609  1.40745  4.05975  0.17411     0.01033  8194.85702   6637.51014  2.39226         3531.58623     19.36607  0.01291  58223.10374  1.62633  0.12075  12863695.67421  44.65428  18.36005  58275.43512    51.24589       44.52945   35.79571  39.43407   48.5    0.21869  -21.97316  0.99554 
  -10.51911  0.01744   2.0894     13.31942  1.47346  1.52532  3.21198  0.26793     0.01352  8927.13676   6509.42527  2.31106         3337.56576     18.13689  0.00076  58221.95889  1.52695  0.05601  13720214.45943  44.65978  18.34951   58275.8906    51.21406       44.48951   36.95838  39.84298   49.0     0.2196  -21.96893  0.99819 
   -9.55101  0.15404  2.22799     13.50169  1.46399  0.80856  3.11409  0.24228     0.01682  9181.78017   6551.92648  2.09399         3443.32144      18.6109  0.00227  58222.92699  1.56607  0.47969   6695823.59642  44.91275  18.36215   58275.8906    51.24421       44.52759   36.74095  38.48883   48.0    0.22395  -21.98611  0.98264 
   -9.18667  0.00115  1.99137     13.33366  1.52741  1.00553  2.92273  0.24976     0.01174  8776.03415    6422.5756  2.17172         3439.54782     17.22501    9e-05  58223.29133  1.34281  0.00335   12099376.0529  44.77174  18.36399   58276.3276    51.22809       44.50106   36.95838  39.19095   49.5    0.22699  -21.97251   0.9999 
   -9.40346  0.00983  2.52619     13.75747  1.65208  0.53545  3.34095    0.193       0.013  7940.29725   6720.88692  2.30342         3579.11037     17.79615  0.00035  58223.07454  1.25653  0.03285   2991205.06706   45.2061  18.35469   58275.8906    51.23931       44.51945   36.74095  38.78211   49.5    0.22333  -21.94717  0.99871 
   -9.26577  0.04521  2.47528     13.47126  1.71271  1.42587  3.66848  0.20871     0.01427  9263.67315   6602.07636  2.01109          3311.7874     17.71583  0.00029  58223.21223  1.87793  0.16586  11123044.27171  44.66906  18.34279   58274.3003    51.23156       44.51455   35.79571  38.78102   48.0    0.22379  -21.96521   0.9941 
   -9.59754  0.01289  2.31852     13.41991  1.50512  1.52584  2.67311  0.29013     0.01825   8585.0761   6646.05337  2.23616         3476.79927     19.01844   0.0058  58222.88046  1.17526  0.03446  10864076.84131     44.68  18.36683  58275.43512    51.22305       44.49816   36.95838  39.19095   48.0    0.22052   -21.9741   0.9987 
   -9.17126  0.08523  2.97893     13.66418  2.07618  1.15474  3.19657  0.20833     0.01608  8686.99088   6656.71257  2.52305         3227.82623     19.36428  0.01285  58223.30674  1.43897  0.27244   8032286.80888  44.73315  18.32854   58275.3745    51.21884       44.49972   36.74095  38.78211   49.0    0.22766  -21.96267  0.98959 
   -9.81445  0.00185  2.49157     13.54971  1.74822   1.0382   3.3526  0.24381     0.01272  8574.81365   6812.09471  2.38152          3392.6167     16.65338    3e-05  58222.66355  1.47048  0.00621    8015641.0283  44.81455  18.33706   58275.8906    51.22576       44.51016    36.0179  38.56469   48.0    0.21899  -21.96485  0.99978 
   -8.78887  0.03548  2.29912     13.47109  1.52188  0.94989  2.84254  0.23125     0.01379  8137.90924   6598.91061  2.64272         3497.68615      18.2332  0.00095  58223.68913  1.12295  0.10086     8533826.155  44.79696  18.36024   58275.8906    51.21686       44.49132   36.95838  39.84298   48.0    0.23708  -21.97628  0.99627 
  -10.21592  0.07599   2.3678     13.43815   1.5434  1.48239  4.81154  0.15964     0.01046  8708.21615   6728.96839    2.235          3379.8404     18.17617  0.00083  58222.26208  2.17655  0.36564  10682917.11192  44.67995  18.34314   58275.3745    51.24121       44.52328   35.79571  39.49887   48.5     0.2239   -21.9648  0.98631 
    -9.0761   0.0116  2.70301     13.65785  1.95612  0.85688  2.88402  0.26282     0.01606  8924.09883   6500.27117  2.40263         3314.65402     16.76551    3e-05   58223.4019  1.37011  0.03345   6415113.66646  44.88934  18.37781   58275.8984    51.22054       44.48955   36.95838  39.96174   48.5    0.23085  -21.96969  0.99883 
   -9.93133  0.00925  3.07785     13.72148  1.98311  1.14353  4.73759  0.13759       0.011  7843.60528   6862.58636  2.16599         3622.62111     18.24054  0.00097  58222.54667  1.73867  0.04382   6290608.02157  44.79101  18.35099  58274.50815    51.24448        44.5214   35.79571  39.53705   48.0    0.21785  -21.95289   0.9981 
  -10.10244  0.02945  2.54201     13.56991  1.73229  0.95537  3.36369  0.20614     0.01075  7626.13589   6824.81049  2.40234         3604.20791     16.21484    1e-05  58222.37556  1.16695  0.09904   7532906.16466  44.82015  18.37729   58275.8906    51.22355       44.49851   36.95838  39.19095   49.0    0.22155  -21.94575  0.99634 
   -9.60519  0.00548  2.21432     13.40446   1.3899  1.16181  2.30326  0.32937     0.02413    8946.414   6552.37495  2.19723         3459.94405     18.63649  0.00241  58222.87281  1.09969  0.01261   9825636.26004  44.72899  18.36475   58276.3869    51.22827       44.50235   36.95838  39.19095   48.0    0.22569  -21.98079  0.99951 
  -10.08375  0.00859  2.32753     13.45333  1.53044  1.18486  3.39582  0.21947     0.01284  8245.54328   6670.92595  2.18565         3554.56804     17.26706   0.0001  58222.39425  1.37724  0.02918   9544680.76824  44.74011  18.34548   58275.8906    51.23051       44.50987   36.95838  39.13435   48.0    0.22007  -21.96439  0.99892 
   -10.2946  0.04327  2.06148     13.36686  1.46056  1.08803  2.53309  0.31686     0.01552  8676.04593   6504.10767  2.29853         3354.92305     18.69023  0.00272   58222.1834  1.13742   0.1096   10640895.0294  44.77803   18.3587  58275.43512    51.24251       44.52377   35.79571  39.43407   49.0    0.22252  -21.97208  0.99653 
   -10.5731  0.00723  2.37664     13.57091  1.66296  0.78042  2.34468  0.33397     0.01854  8559.29251   6574.03179  2.36869         3434.94547     16.94207    5e-05   58221.9049  1.02468  0.01695   6292292.30771  44.93899  18.36883   58275.8984     51.2418       44.52044   36.74095  38.78211   49.0     0.2124  -21.96196  0.99941 
   -8.96028  0.38506  2.65029     13.55428  1.63037  1.23122  4.65104  0.16086     0.01202  8654.24542   6442.72457  2.24406         3417.65298     18.85866  0.00401  58223.51772  2.07795  1.79092   8281816.19529  44.71642  18.33007  58275.43512    51.23543       44.52076   36.74095  38.48883   48.5    0.21973  -21.95822  0.92782 
  -10.11028  0.07691  2.07976     13.45358  1.48617  0.83552  2.58835  0.30233     0.01424  8582.88594   6705.88866  2.01191         3550.85293     17.20372    9e-05  58222.36772  1.13741  0.19906   7391681.59796  44.93614  18.35767   58275.8906    51.22349       44.50718   36.95838  38.56469   48.0    0.21561  -21.98029  0.99376 
   -9.64965  0.00411  2.83384     13.72369  1.90831  0.79961  3.33242  0.20132     0.01322  8076.05796   6866.44602  2.42917         3520.85143     17.51969  0.00018  58222.82835  1.29654   0.0137    5079774.5075   44.9389  18.38076   58276.3276    51.22428       44.50153   36.95838  39.19095   48.0    0.22035  -21.95981  0.99946 
   -9.60316  0.00956  2.50933     13.55784  1.80887  1.02507  3.46713  0.20188      0.0124  8614.21611   6707.16143  1.93498         3453.97387     19.31121  0.01137  58222.87484  1.53472  0.03314    8103247.4727  44.81848  18.35144   58275.8984    51.21687       44.48884   37.73919  39.18093   48.5    0.22855  -21.97629  0.99888 
   -9.62148  0.06125  2.02879      13.3877  1.43759  0.87502  3.00047   0.2564     0.01285  8660.38334   6441.78272  2.43983         3393.89912      18.0468  0.00062  58222.85652  1.34243  0.18377    9215773.3398  44.84747  18.35744   58276.3276    51.22678       44.50515   36.95838  39.13435   49.5    0.22594  -21.96321  0.99416 
   -9.58129  0.01793  2.75484     13.66764  1.97951  0.85137  3.97937   0.1775     0.01124  8618.77302   6477.22245  2.09416         3502.66926     16.62632    2e-05  58222.89671  1.76333  0.07136   6446062.68702  44.87592  18.33665   58274.3412    51.23535       44.51866   35.79571  38.74042   49.0    0.22255  -21.95885  0.99744 
   -9.86148  0.01623  2.64978     13.53756  1.83099  1.35074  4.72792  0.15522     0.01098   8958.7182    6582.5695  1.96039         3454.70569     16.01176    1e-05  58222.61652  2.26355  0.07676   10041715.2969   44.6833   18.3609   58275.8984    51.22876       44.50173   36.95838  39.84298   48.5    0.22418  -21.97311  0.99717 
  -10.36796  0.00263  1.95491     13.38385  1.29778  0.84954  3.05757  0.26187      0.0132  8392.22502   6599.05283  2.45056         3475.90611     18.97903  0.00529  58222.11004  1.28457  0.00803   7862529.03888  44.90423  18.36164   58275.3745    51.21318       44.48963   36.95838  39.19095   49.0     0.2128  -21.97934  0.99973 
   -9.22676  0.04427   2.4432     13.47502  1.84908  1.28433   3.5982  0.22379     0.01175  9021.03064   6683.66571  1.97386         3478.19173     19.44988  0.01565  58223.25124  1.74673   0.1593  11498802.87261  44.69923  18.35365   58275.3745    51.24343       44.52375   35.79571  39.43407   49.0      0.222  -21.99205  0.99501 
   -8.72543  0.00975  2.11634     13.33108  1.50197   1.2665  2.83247   0.2425     0.01239  8335.18242   6623.08159  2.20858         3594.16602     16.68137    3e-05  58223.75257  1.17388   0.0276  13598327.96865  44.66085  18.35881  58275.43512    51.22901       44.50615   36.74095  39.35178   49.0    0.22997   -21.9741   0.9991 
   -9.44003  0.04985  2.62104     13.56718  1.79638   1.1286  3.64621  0.19687     0.01168  8214.68267   6668.83094  2.12268         3567.73028     18.76998  0.00327  58223.03797  1.46774  0.18177   8410211.51603  44.76149  18.35034   58275.3745    51.22439       44.50719   36.74095  38.59181   48.0    0.22609  -21.96541   0.9933 
   -8.91621  0.01291    2.922     13.72329  1.76153  0.94206  6.13731  0.10277     0.01098  8358.37855    6657.3394  2.17499         3528.68884     17.24803   0.0001  58223.56179   2.5577  0.07921   4994424.08639  44.88489  18.34941   58275.8906    51.23329       44.51283   36.74095  38.78211   49.0    0.21867    -21.948  0.99633 
  -10.00787  0.00108  2.84974     13.80651  1.77053  0.71702   7.1752  0.10051     0.01006  8721.68238   6560.92107  2.04772         3425.34314     19.11111  0.00718  58222.47013  3.25583  0.00777   3254702.66029  45.09483  18.34814  58275.43512    51.22183       44.50158   36.74095  38.78211   48.5    0.21249  -21.95609  0.99966 
   -9.82578  0.12269   2.7765     13.74448  1.85306   0.6941  3.51963  0.20909     0.01434  8608.60572   6836.51021  2.43135         3483.38338     17.46315  0.00016  58222.65222  1.55593  0.43184    4302639.9513    45.016  18.34568  58275.43512    51.24202       44.51796   36.74095  38.59181   48.0    0.22529  -21.97238  0.98307 
   -9.27882  0.01952   2.3998     13.49524  1.74332  1.07235  2.56927  0.31118     0.01411  8342.29712   6579.73465   2.4427         3485.61664     16.36275    1e-05  58223.19918  1.06662  0.05014   9529137.03958  44.77082  18.35046  58275.43512    51.21989        44.4968   36.95838  39.19095   48.5    0.21603  -21.96672  0.99835 
   -9.62376  0.22949  2.66158     13.52382  1.81548  1.46083  3.30313  0.22413     0.01384  8594.71237    6555.3139  2.41477         3432.56424     19.13076  0.00751  58222.85424  1.45551  0.75803  10701475.64653  44.64811  18.37038   58276.3276    51.23263       44.51098   36.95838  38.56469   48.5    0.21879  -21.97563   0.9721 
   -9.77188  0.08726   2.5867     13.50275  1.77235  1.40828  2.61417  0.26723     0.01601   8146.4274   6584.80514  2.33288         3522.87936     16.88435    4e-05  58222.70612  1.03489  0.22811  10873082.83982  44.65555  18.34822   58275.8906    51.22736       44.50488   36.95838  39.13435   48.5     0.2241  -21.96614   0.9916 
